rowN,DAU,participantN,age,gender,task,taskOrder,trial,lImage,lValue,rImage,rValue,xBoxPos,yBoxPos,response,RT
1,NS01,46,23,male,binary,1,1,2217,6.24,4617,6.6,1440,972,2,8.53361665585544
2,NS01,46,23,male,binary,1,2,7547,5.21,1675,5.24,1440,972,2,3.8502220618393
3,NS01,46,23,male,binary,1,3,7021,5.21,5731,5.39,1440,972,2,4.63344878365388
4,NS01,46,23,male,binary,1,4,7279,6.22,7320,6.54,480,972,1,3.56686959361832
5,NS01,46,23,male,binary,1,5,7001,5.32,5740,5.21,1440,972,2,5.26719473145204
6,NS01,46,23,male,binary,1,6,2594,6.05,2305,5.41,480,972,1,2.80028256133301
7,NS01,46,23,male,binary,1,7,4613,5.34,7192,5.77,480,972,1,3.8500715267146
8,NS01,46,23,male,binary,1,8,8118,6.14,4536,6.01,1440,972,2,3.51703585830546
9,NS01,46,23,male,binary,1,9,7503,5.77,5870,6.78,480,972,1,3.1003288035572
10,NS01,46,23,male,binary,1,10,2374,6.29,2980,5.61,480,972,1,5.11687384525794
11,NS01,46,23,male,binary,1,11,2442,6.17,5530,5.38,1440,972,2,4.0001748731338
12,NS01,46,23,male,binary,1,12,2358,6.56,7190,5.55,1440,972,2,2.05022073977307
13,NS01,46,23,male,binary,1,13,5626,6.71,7238,6.43,480,972,1,2.48361375632521
14,NS01,46,23,male,binary,1,14,2302,6.43,2435,5.84,1440,972,2,2.76694909779326
15,NS01,46,23,male,binary,1,15,1640,6.16,7507,6.25,480,972,1,6.21678920305567
16,NS01,46,23,male,binary,1,16,2514,5.19,8205,6.62,480,972,1,4.616865882821
17,NS01,46,23,male,binary,1,17,7179,5.06,2616,5.97,1440,972,2,2.15011686753496
18,NS01,46,23,male,binary,1,18,5661,5.96,5764,6.74,1440,972,2,4.93353348595338
19,NS01,46,23,male,binary,1,19,8251,6.16,7026,5.38,480,972,1,3.05015073042523
20,NS01,46,23,male,binary,1,20,7461,5.8,2515,6.09,1440,972,2,7.26696457196522
21,NS01,46,23,male,binary,1,21,7477,6.12,8320,6.24,1440,972,2,4.23363351218359
22,NS01,46,23,male,binary,1,22,1560,5.97,8280,6.38,1440,972,2,3.4334996831567
23,NS01,46,23,male,binary,1,23,7440,6.32,2092,6.28,1440,972,2,6.08354939580386
24,NS01,46,23,male,binary,1,24,2411,5.07,8600,6.38,1440,972,2,5.5169445156389
25,NS01,46,23,male,binary,1,25,7501,6.85,7080,5.27,480,972,1,3.16674483876341
26,NS01,46,23,male,binary,1,26,8179,6.48,1720,6.79,480,972,1,3.18350922305763
27,NS01,46,23,male,binary,1,27,4619,6.46,5890,6.67,480,972,1,2.4834749395086
28,NS01,46,23,male,binary,1,28,5395,5.34,8208,6.79,480,972,1,3.66681830350717
29,NS01,46,23,male,binary,1,29,7475,6.33,2389,6.61,1440,972,2,2.30020999799672
30,NS01,46,23,male,binary,1,30,5215,6.83,1947,5.85,480,972,1,2.58337437243244
31,NS01,46,23,male,binary,1,31,7242,5.28,5622,6.33,1440,972,2,4.28352043055929
32,NS01,46,23,male,binary,1,32,7660,6.61,5500,5.42,480,972,1,4.35011734828731
33,NS01,46,23,male,binary,1,33,2635,5.22,8040,6.64,1440,972,2,2.83349253198685
34,NS01,46,23,male,binary,1,34,5040,5.39,1450,6.37,1440,972,2,5.18354557983912
35,NS01,46,23,male,binary,1,35,8031,6.76,5020,6.32,480,972,1,3.38352052069968
36,NS01,46,23,male,binary,1,36,7830,5.26,9156,6.43,1440,972,2,3.35018134824713
37,NS01,46,23,male,binary,1,37,5711,6.62,1903,5.5,480,972,1,2.41695073535448
38,NS01,46,23,male,binary,1,38,7057,5.35,7499,6.47,480,972,1,3.85011389289139
39,NS01,46,23,male,binary,1,39,1810,6.52,1908,5.28,1440,972,2,2.23358032911347
40,NS01,46,23,male,binary,1,40,2032,5.58,2513,5.8,480,972,1,4.75012762433835
41,NS01,46,23,male,binary,1,41,7053,5.22,7820,5.39,1440,972,2,6.06684390349255
42,NS01,46,23,male,binary,1,42,7451,6.68,7017,5.18,1440,972,2,4.38342557240321
43,NS01,46,23,male,binary,1,43,2880,5.18,7620,5.78,1440,972,2,2.98355140894637
44,NS01,46,23,male,binary,1,44,8130,6.58,2037,6.42,1440,972,2,3.00024097638379
45,NS01,46,23,male,binary,1,45,2351,5.49,1659,6.57,480,972,1,4.30026888997963
46,NS01,46,23,male,binary,1,46,7530,6.71,1650,6.65,480,972,1,5.333527236191
47,NS01,46,23,male,binary,1,47,7205,5.56,2339,6.72,1440,972,2,3.50026816885293
48,NS01,46,23,male,binary,1,48,1595,6.22,7250,6.62,480,972,1,4.41679479178492
49,NS01,46,23,male,binary,1,49,4625,6.4,7352,6.2,480,972,1,2.70015687502382
50,NS01,46,23,male,binary,1,50,7183,5.58,5635,6.25,1440,972,2,4.56682031664968
51,NS01,46,23,male,continuous,2,51,5410,6.11,7506,5.34,1067,972,62,5.00020011255765
52,NS01,46,23,male,continuous,2,52,5533,5.31,2018,5.56,1214,972,77,4.06693224146875
53,NS01,46,23,male,continuous,2,53,5531,5.15,7510,6.05,1440,972,100,2.78347731321264
54,NS01,46,23,male,continuous,2,54,2500,6.16,7100,5.24,737,972,28,3.25012206565589
55,NS01,46,23,male,continuous,2,55,7286,6.36,2392,6.15,763,972,30,3.98343632920296
56,NS01,46,23,male,continuous,2,56,1605,6.59,5471,5.21,1079,972,63,6.61701731935318
57,NS01,46,23,male,continuous,2,57,2390,5.4,7052,5.33,480,972,1,3.50027057260741
58,NS01,46,23,male,continuous,2,58,2102,5.16,7495,5.9,725,972,26,4.13357813569019
59,NS01,46,23,male,continuous,2,59,7490,5.52,7039,5.93,1387,972,95,4.13343120619902
60,NS01,46,23,male,continuous,2,60,4600,6.41,7354,5.51,1291,972,85,4.83344085126373
61,NS01,46,23,male,continuous,2,61,7351,5.82,2900,6.62,1440,972,100,4.10018547969958
62,NS01,46,23,male,continuous,2,62,4598,6.33,7900,6.5,480,972,1,4.5169631447352
63,NS01,46,23,male,continuous,2,63,5300,6.91,2870,5.31,480,972,1,2.90023307404044
64,NS01,46,23,male,continuous,2,64,7509,6.03,2605,6.26,1192,972,74,3.2502473613531
65,NS01,46,23,male,continuous,2,65,7489,6.54,2122,5.15,480,972,1,2.18350681929951
66,NS01,46,23,male,continuous,2,66,8311,5.88,2620,5.93,480,972,1,5.8833932719499
67,NS01,46,23,male,continuous,2,67,7248,5.22,5628,6.51,1440,972,100,4.05027602612245
68,NS01,46,23,male,continuous,2,68,5390,5.59,2372,5.48,737,972,28,4.5001164318528
69,NS01,46,23,male,continuous,2,69,2560,6.34,2506,5.67,480,972,1,4.5668719973728
70,NS01,46,23,male,continuous,2,70,1616,5.21,7460,6.81,635,972,17,2.05009304031773
71,NS01,46,23,male,continuous,2,71,7340,6.68,7061,5.4,480,972,1,3.00025870406898
72,NS01,46,23,male,continuous,2,72,2060,6.49,2579,5.53,1440,972,100,3.51698808368747
73,NS01,46,23,male,continuous,2,73,5510,5.15,7095,5.99,1440,972,100,5.65029759982281
74,NS01,46,23,male,continuous,2,74,8161,6.71,7546,5.4,480,972,1,3.06683008190521
75,NS01,46,23,male,continuous,2,75,7500,5.33,6250,6.32,1158,972,71,2.60023520737013
76,NS01,46,23,male,continuous,2,76,5849,6.65,2521,5.78,480,972,1,6.66687208751318
77,NS01,46,23,male,continuous,2,77,2020,5.68,5875,6.03,1440,972,100,4.35022371441664
78,NS01,46,23,male,continuous,2,78,8341,6.25,8312,5.37,611,972,15,4.20016243370264
79,NS01,46,23,male,continuous,2,79,2025,5.78,5665,6.15,1440,972,100,3.55029059888693
80,NS01,46,23,male,continuous,2,80,7019,5.2,2511,6.21,1254,972,81,3.00022745526439
81,NS01,46,23,male,continuous,2,81,4645,6.73,2720,5.43,480,972,1,3.38343879305103
82,NS01,46,23,male,continuous,2,82,8325,5.63,8193,6.73,1440,972,100,3.41674341153339
83,NS01,46,23,male,continuous,2,83,2377,5.19,5301,6.54,1043,972,59,4.05025889937315
84,NS01,46,23,male,continuous,2,84,2308,5.22,8206,6.43,1440,972,100,3.65033816317737
85,NS01,46,23,male,continuous,2,85,2382,5.67,7513,5.45,480,972,1,4.8501727848743
86,NS01,46,23,male,continuous,2,86,7182,5.16,7188,5.5,480,972,1,4.21685560676997
87,NS01,46,23,male,continuous,2,87,2488,5.73,2152,6.93,678,972,21,5.98354449815088
88,NS01,46,23,male,continuous,2,88,2597,5.61,2019,6.07,1436,972,100,5.26696126680326
89,NS01,46,23,male,continuous,2,89,8211,5.76,7497,5.19,480,972,1,3.60015017455953
90,NS01,46,23,male,continuous,2,90,1419,6.54,8250,6.19,776,972,32,4.80014945342919
91,NS01,46,23,male,continuous,2,91,7237,5.43,8191,6.07,1440,972,100,3.70016498769473
92,NS01,46,23,male,continuous,2,92,2593,5.8,2445,5.39,1079,972,63,3.26673651576493
93,NS01,46,23,male,continuous,2,93,7632,5.22,7450,6.4,480,972,1,2.24998204696021
94,NS01,46,23,male,continuous,2,94,2107,5.53,7472,6.25,1203,972,76,2.76684243119234
95,NS01,46,23,male,continuous,2,95,5900,5.93,2575,5.46,709,972,25,3.3835160136623
96,NS01,46,23,male,continuous,2,96,7550,5.27,8467,6.35,1440,972,100,3.41694983394336
97,NS01,46,23,male,continuous,2,97,1660,6.49,5250,6.08,1206,972,76,2.9835129488747
98,NS01,46,23,male,continuous,2,98,5990,6.54,2273,5.41,1400,972,96,2.8500201464667
99,NS01,46,23,male,continuous,2,99,5520,5.33,2036,5.8,1250,972,80,2.6334172343777
100,NS01,46,23,male,continuous,2,100,2606,5.92,1333,6.11,480,972,1,3.05017296515507
101,NS01,46,23,male,likert,3,101,NA,NA,5500,5.42,480,629.1,3,2.68361573942457
102,NS01,46,23,male,likert,3,102,NA,NA,1450,6.37,480,450.9,5,3.66688140206315
103,NS01,46,23,male,likert,3,103,NA,NA,2102,5.16,480,450.9,5,3.78345898458792
104,NS01,46,23,male,likert,3,104,NA,NA,5410,6.11,480,361.8,6,2.18367177695109
105,NS01,46,23,male,likert,3,105,NA,NA,2445,5.39,480,629.1,3,1.78344816769459
106,NS01,46,23,male,likert,3,106,NA,NA,5870,6.78,480,540,4,1.28350240240252
107,NS01,46,23,male,likert,3,107,NA,NA,8205,6.62,480,540,4,3.66681409693774
108,NS01,46,23,male,likert,3,108,NA,NA,7489,6.54,480,270,7,1.90009696144261
109,NS01,46,23,male,likert,3,109,NA,NA,2579,5.53,480,450.9,5,2.66683332697357
110,NS01,46,23,male,likert,3,110,NA,NA,7320,6.54,480,540,4,3.11692853067143
111,NS01,46,23,male,likert,3,111,NA,NA,7053,5.22,480,629.1,3,1.93362362674088
112,NS01,46,23,male,likert,3,112,NA,NA,2720,5.43,480,810,1,1.93345686627799
113,NS01,46,23,male,likert,3,113,NA,NA,7477,6.12,480,629.1,3,3.25007969948274
114,NS01,46,23,male,likert,3,114,NA,NA,4613,5.34,480,450.9,5,1.98346247003064
115,NS01,46,23,male,likert,3,115,NA,NA,7440,6.32,480,540,4,1.85024309469009
116,NS01,46,23,male,likert,3,116,NA,NA,2107,5.53,480,629.1,3,1.41692579639857
117,NS01,46,23,male,likert,3,117,NA,NA,7242,5.28,480,540,4,1.26680051572839
118,NS01,46,23,male,likert,3,118,NA,NA,2880,5.18,480,540,4,1.55023861769951
119,NS01,46,23,male,likert,3,119,NA,NA,2351,5.49,480,450.9,5,2.18357712911893
120,NS01,46,23,male,likert,3,120,NA,NA,7506,5.34,480,450.9,5,2.88347079303276
121,NS01,46,23,male,likert,3,121,NA,NA,7095,5.99,480,450.9,5,1.33352333008952
122,NS01,46,23,male,likert,3,122,NA,NA,5020,6.32,480,540,4,1.51674049697976
123,NS01,46,23,male,likert,3,123,NA,NA,1659,6.57,480,629.1,3,3.45014478113444
124,NS01,46,23,male,likert,3,124,NA,NA,4617,6.6,480,361.8,6,3.00016676046289
125,NS01,46,23,male,likert,3,125,NA,NA,8040,6.64,480,540,4,1.81688018516434
126,NS01,46,23,male,likert,3,126,NA,NA,7052,5.33,480,718.2,2,4.31680161243639
127,NS01,46,23,male,likert,3,127,NA,NA,7507,6.25,480,629.1,3,1.91678622840845
128,NS01,46,23,male,likert,3,128,NA,NA,7497,5.19,480,540,4,1.13351233291178
129,NS01,46,23,male,likert,3,129,NA,NA,2358,6.56,480,540,4,2.31676826034527
130,NS01,46,23,male,likert,3,130,NA,NA,5711,6.62,480,361.8,6,2.48347944654961
131,NS01,46,23,male,likert,3,131,NA,NA,7019,5.2,480,629.1,3,1.68349194607072
132,NS01,46,23,male,likert,3,132,NA,NA,5900,5.93,480,540,4,1.50028349278728
133,NS01,46,23,male,likert,3,133,NA,NA,7352,6.2,480,718.2,2,1.60027907589028
134,NS01,46,23,male,likert,3,134,NA,NA,7179,5.06,480,629.1,3,1.90010958115454
135,NS01,46,23,male,likert,3,135,NA,NA,4625,6.4,480,450.9,5,1.40016621961695
136,NS01,46,23,male,likert,3,136,NA,NA,2500,6.16,480,540,4,1.71692306212935
137,NS01,46,23,male,likert,3,137,NA,NA,2036,5.8,480,540,4,1.51688652506346
138,NS01,46,23,male,likert,3,138,NA,NA,2389,6.61,480,361.8,6,1.98358325869413
139,NS01,46,23,male,likert,3,139,NA,NA,2339,6.72,480,361.8,6,2.11690990157513
140,NS01,46,23,male,likert,3,140,NA,NA,5740,5.21,480,540,4,1.80019031725897
141,NS01,46,23,male,likert,3,141,NA,NA,8600,6.38,480,450.9,5,1.75016938956833
142,NS01,46,23,male,likert,3,142,NA,NA,5635,6.25,480,450.9,5,1.86694017385889
143,NS01,46,23,male,likert,3,143,NA,NA,2597,5.61,480,540,4,2.95024949468643
144,NS01,46,23,male,likert,3,144,NA,NA,5531,5.15,480,718.2,2,2.15010484876257
145,NS01,46,23,male,likert,3,145,NA,NA,8208,6.79,480,450.9,5,1.70010729758724
146,NS01,46,23,male,likert,3,146,NA,NA,7351,5.82,480,718.2,2,1.38337419215168
147,NS01,46,23,male,likert,3,147,NA,NA,7490,5.52,480,540,4,2.46675412326658
148,NS01,46,23,male,likert,3,148,NA,NA,7057,5.35,480,361.8,6,1.73353330566897
149,NS01,46,23,male,likert,3,149,NA,NA,7017,5.18,480,450.9,5,1.66690754289084
150,NS01,46,23,male,likert,3,150,NA,NA,7188,5.5,480,629.1,3,1.35010082247391
151,NS01,46,23,male,likert,3,151,NA,NA,7205,5.56,480,540,4,6.06681115233732
152,NS01,46,23,male,likert,3,152,NA,NA,1720,6.79,480,450.9,5,1.1001965970645
153,NS01,46,23,male,likert,3,153,NA,NA,2593,5.8,480,450.9,5,1.26679510727627
154,NS01,46,23,male,likert,3,154,NA,NA,1595,6.22,480,540,4,1.35016932947474
155,NS01,46,23,male,likert,3,155,NA,NA,2435,5.84,480,450.9,5,3.1168158546825
156,NS01,46,23,male,likert,3,156,NA,NA,7513,5.45,480,540,4,1.6002273951708
157,NS01,46,23,male,likert,3,157,NA,NA,7237,5.43,480,629.1,3,1.00008984031956
158,NS01,46,23,male,likert,3,158,NA,NA,1605,6.59,480,450.9,5,1.50028439419475
159,NS01,46,23,male,likert,3,159,NA,NA,7475,6.33,480,540,4,2.16683407814708
160,NS01,46,23,male,likert,3,160,NA,NA,1419,6.54,480,540,4,1.35012996799924
161,NS01,46,23,male,likert,3,161,NA,NA,5510,5.15,480,718.2,2,1.01707386767157
162,NS01,46,23,male,likert,3,162,NA,NA,2635,5.22,480,540,4,1.21682586030875
163,NS01,46,23,male,likert,3,163,NA,NA,7238,6.43,480,629.1,3,1.56684886123548
164,NS01,46,23,male,likert,3,164,NA,NA,7820,5.39,480,629.1,3,1.73361383144584
165,NS01,46,23,male,likert,3,165,NA,NA,7546,5.4,480,540,4,2.11695707525359
166,NS01,46,23,male,likert,3,166,NA,NA,7021,5.21,480,629.1,3,1.88345697144177
167,NS01,46,23,male,likert,3,167,NA,NA,7530,6.71,480,540,4,2.20015402056379
168,NS01,46,23,male,likert,3,168,NA,NA,2273,5.41,480,629.1,3,1.96681797298879
169,NS01,46,23,male,likert,3,169,NA,NA,7501,6.85,480,450.9,5,1.86673074675127
170,NS01,46,23,male,likert,3,170,NA,NA,1650,6.65,480,540,4,1.50013896705423
171,NS01,46,23,male,likert,3,171,NA,NA,7660,6.61,480,540,4,1.43347925124181
172,NS01,46,23,male,likert,3,172,NA,NA,1560,5.97,480,540,4,2.33360175257621
173,NS01,46,23,male,likert,3,173,NA,NA,1908,5.28,480,629.1,3,1.48347584091607
174,NS01,46,23,male,likert,3,174,NA,NA,2511,6.21,480,450.9,5,1.33339502969829
175,NS01,46,23,male,likert,3,175,NA,NA,5395,5.34,480,540,4,1.40006886756237
176,NS01,46,23,male,likert,3,176,NA,NA,2606,5.92,480,450.9,5,1.86674607068926
177,NS01,46,23,male,likert,3,177,NA,NA,8341,6.25,480,450.9,5,1.70028968245606
178,NS01,46,23,male,likert,3,178,NA,NA,8467,6.35,480,450.9,5,1.00012769945533
179,NS01,46,23,male,likert,3,179,NA,NA,7001,5.32,480,629.1,3,1.2334261883625
180,NS01,46,23,male,likert,3,180,NA,NA,2392,6.15,480,540,4,1.06675857021037
181,NS01,46,23,male,likert,3,181,NA,NA,1903,5.5,480,629.1,3,1.01682658143909
182,NS01,46,23,male,likert,3,182,NA,NA,7192,5.77,480,450.9,5,1.69999281878336
183,NS01,46,23,male,likert,3,183,NA,NA,2514,5.19,480,361.8,6,1.36677326315839
184,NS01,46,23,male,likert,3,184,NA,NA,2488,5.73,480,450.9,5,1.81678794108302
185,NS01,46,23,male,likert,3,185,NA,NA,5764,6.74,480,450.9,5,1.3667420143538
186,NS01,46,23,male,likert,3,186,NA,NA,9156,6.43,480,450.9,5,1.18355219016667
187,NS01,46,23,male,likert,3,187,NA,NA,7450,6.4,480,718.2,2,1.28346784843234
188,NS01,46,23,male,likert,3,188,NA,NA,5390,5.59,480,361.8,6,1.4668809213108
189,NS01,46,23,male,likert,3,189,NA,NA,8320,6.24,480,718.2,2,1.20015251822042
190,NS01,46,23,male,likert,3,190,NA,NA,4645,6.73,480,450.9,5,1.20013028349058
191,NS01,46,23,male,likert,3,191,NA,NA,2506,5.67,480,540,4,1.25009382153803
192,NS01,46,23,male,likert,3,192,NA,NA,2411,5.07,480,629.1,3,2.16694044428004
193,NS01,46,23,male,likert,3,193,NA,NA,8251,6.16,480,450.9,5,1.11684409880036
194,NS01,46,23,male,likert,3,194,NA,NA,4619,6.46,480,450.9,5,1.2336196905926
195,NS01,46,23,male,likert,3,195,NA,NA,2560,6.34,480,450.9,5,2.61677063405295
196,NS01,46,23,male,likert,3,196,NA,NA,2980,5.61,480,629.1,3,1.76684423401093
197,NS01,46,23,male,likert,3,197,NA,NA,7509,6.03,480,450.9,5,4.23352263900961
198,NS01,46,23,male,likert,3,198,NA,NA,5626,6.71,480,450.9,5,1.0668354903537
199,NS01,46,23,male,likert,3,199,NA,NA,7286,6.36,480,629.1,3,1.20016453699282
200,NS01,46,23,male,likert,3,200,NA,NA,5530,5.38,480,629.1,3,1.15014150601564
201,NS01,46,23,male,likert,3,1,NA,NA,8118,6.14,480,450.9,5,1.3168046171304
202,NS01,46,23,male,likert,3,2,NA,NA,5665,6.15,480,361.8,6,1.20018827406602
203,NS01,46,23,male,likert,3,3,NA,NA,5849,6.65,480,361.8,6,1.3668183335576
204,NS01,46,23,male,likert,3,4,NA,NA,2305,5.41,480,540,4,1.06673964064612
205,NS01,46,23,male,likert,3,5,NA,NA,2122,5.15,480,629.1,3,1.23361939012466
206,NS01,46,23,male,likert,3,6,NA,NA,2374,6.29,480,450.9,5,1.30012857081601
207,NS01,46,23,male,likert,3,7,NA,NA,2308,5.22,480,629.1,3,1.46681121243455
208,NS01,46,23,male,likert,3,8,NA,NA,7495,5.9,480,450.9,5,1.26684047814342
209,NS01,46,23,male,likert,3,9,NA,NA,7510,6.05,480,450.9,5,1.63353832350549
210,NS01,46,23,male,likert,3,10,NA,NA,4536,6.01,480,361.8,6,1.96687355981339
211,NS01,46,23,male,likert,3,11,NA,NA,2060,6.49,480,540,4,1.35017593979865
212,NS01,46,23,male,likert,3,12,NA,NA,5215,6.83,480,361.8,6,2.01694466587287
213,NS01,46,23,male,likert,3,13,NA,NA,8311,5.88,480,450.9,5,1.65016899896
214,NS01,46,23,male,likert,3,14,NA,NA,2442,6.17,480,540,4,1.25020769940602
215,NS01,46,23,male,likert,3,15,NA,NA,5300,6.91,480,450.9,5,1.13349821085649
216,NS01,46,23,male,likert,3,16,NA,NA,5990,6.54,480,450.9,5,2.38334354428298
217,NS01,46,23,male,likert,3,17,NA,NA,2900,6.62,480,629.1,3,1.76670722000563
218,NS01,46,23,male,likert,3,18,NA,NA,7183,5.58,480,718.2,2,1.58352851318341
219,NS01,46,23,male,likert,3,19,NA,NA,8250,6.19,480,540,4,1.63354403242556
220,NS01,46,23,male,likert,3,20,NA,NA,5471,5.21,480,540,4,1.86681818331999
221,NS01,46,23,male,likert,3,21,NA,NA,7499,6.47,480,540,4,1.0502243454066
222,NS01,46,23,male,likert,3,22,NA,NA,2620,5.93,480,540,4,1.40016081116846
223,NS01,46,23,male,likert,3,23,NA,NA,7182,5.16,480,629.1,3,1.56676202560629
224,NS01,46,23,male,likert,3,24,NA,NA,7472,6.25,480,540,4,1.53346191416131
225,NS01,46,23,male,likert,3,25,NA,NA,8325,5.63,480,540,4,1.10011186472184
226,NS01,46,23,male,likert,3,26,NA,NA,1947,5.85,480,540,4,2.65025793787208
227,NS01,46,23,male,likert,3,27,NA,NA,2020,5.68,480,629.1,3,1.68348353293186
228,NS01,46,23,male,likert,3,28,NA,NA,7500,5.33,480,629.1,3,1.6002279961067
229,NS01,46,23,male,likert,3,29,NA,NA,7061,5.4,480,540,4,1.93346377707348
230,NS01,46,23,male,likert,3,30,NA,NA,2515,6.09,480,540,4,1.51680660022976
231,NS01,46,23,male,likert,3,31,NA,NA,8193,6.73,480,450.9,5,1.46676403875244
232,NS01,46,23,male,likert,3,32,NA,NA,8031,6.76,480,450.9,5,1.08356111410467
233,NS01,46,23,male,likert,3,33,NA,NA,5301,6.54,480,361.8,6,1.2168084330915
234,NS01,46,23,male,likert,3,34,NA,NA,2019,6.07,480,361.8,6,1.51672907915054
235,NS01,46,23,male,likert,3,35,NA,NA,2382,5.67,480,361.8,6,2.20009633045993
236,NS01,46,23,male,likert,3,36,NA,NA,7461,5.8,480,718.2,2,1.86682869974538
237,NS01,46,23,male,likert,3,37,NA,NA,7547,5.21,480,629.1,3,1.90010567505306
238,NS01,46,23,male,likert,3,38,NA,NA,2605,6.26,480,450.9,5,1.41677646315657
239,NS01,46,23,male,likert,3,39,NA,NA,2025,5.78,480,540,4,1.2668512950404
240,NS01,46,23,male,likert,3,40,NA,NA,7632,5.22,480,629.1,3,2.00011628161883
241,NS01,46,23,male,likert,3,41,NA,NA,5520,5.33,480,629.1,3,1.350194268427
242,NS01,46,23,male,likert,3,42,NA,NA,2616,5.97,480,629.1,3,2.41677405940572
243,NS01,46,23,male,likert,3,43,NA,NA,7100,5.24,480,629.1,3,1.25042463824138
244,NS01,46,23,male,likert,3,44,NA,NA,8161,6.71,480,450.9,5,4.20012487504209
245,NS01,46,23,male,likert,3,45,NA,NA,1810,6.52,480,540,4,1.06685592226495
246,NS01,46,23,male,likert,3,46,NA,NA,7900,6.5,480,361.8,6,1.36674111294269
247,NS01,46,23,male,likert,3,47,NA,NA,4600,6.41,480,629.1,3,1.58346571509901
248,NS01,46,23,male,likert,3,48,NA,NA,7550,5.27,480,629.1,3,1.60012583654316
249,NS01,46,23,male,likert,3,49,NA,NA,2018,5.56,480,450.9,5,1.50014978394756
250,NS01,46,23,male,likert,3,50,NA,NA,2513,5.8,480,540,4,1.95019901584601
251,NS01,46,23,male,likert,3,1,NA,NA,7340,6.68,480,361.8,6,1.78350225216855
252,NS01,46,23,male,likert,3,2,NA,NA,1675,5.24,480,540,4,1.11690178890422
253,NS01,46,23,male,likert,3,3,NA,NA,5731,5.39,480,540,4,2.31679319929754
254,NS01,46,23,male,likert,3,4,NA,NA,1660,6.49,480,629.1,3,2.15026049186417
255,NS01,46,23,male,likert,3,5,NA,NA,2152,6.93,480,450.9,5,1.76691454382672
256,NS01,46,23,male,likert,3,6,NA,NA,2870,5.31,480,450.9,5,1.36674141341427
257,NS01,46,23,male,likert,3,7,NA,NA,2302,6.43,480,540,4,1.25027260077695
258,NS01,46,23,male,likert,3,8,NA,NA,8130,6.58,480,540,4,1.66682311101613
259,NS01,46,23,male,likert,3,9,NA,NA,7279,6.22,480,450.9,5,1.23342318367213
260,NS01,46,23,male,likert,3,10,NA,NA,8312,5.37,480,450.9,5,1.43345641557244
261,NS01,46,23,male,likert,3,11,NA,NA,2575,5.46,480,450.9,5,1.53344478741201
262,NS01,46,23,male,likert,3,12,NA,NA,5250,6.08,480,540,4,1.66679907347134
263,NS01,46,23,male,likert,3,13,NA,NA,8206,6.43,480,361.8,6,2.95021554165578
264,NS01,46,23,male,likert,3,14,NA,NA,8280,6.38,480,450.9,5,1.66676301715779
265,NS01,46,23,male,likert,3,15,NA,NA,2217,6.24,480,540,4,1.9169355616541
266,NS01,46,23,male,likert,3,16,NA,NA,7190,5.55,480,450.9,5,2.88335571328935
267,NS01,46,23,male,likert,3,17,NA,NA,5875,6.03,480,450.9,5,2.50001667604738
268,NS01,46,23,male,likert,3,18,NA,NA,5533,5.31,480,629.1,3,1.38348085875259
269,NS01,46,23,male,likert,3,19,NA,NA,5661,5.96,480,629.1,3,2.21687754103186
270,NS01,46,23,male,likert,3,20,NA,NA,2372,5.48,480,450.9,5,1.26672960496944
271,NS01,46,23,male,likert,3,21,NA,NA,2377,5.19,480,450.9,5,1.5502407209824
272,NS01,46,23,male,likert,3,22,NA,NA,7250,6.62,480,629.1,3,2.61694430531134
273,NS01,46,23,male,likert,3,23,NA,NA,1333,6.11,480,629.1,3,3.16690919547182
274,NS01,46,23,male,likert,3,24,NA,NA,7460,6.81,480,718.2,2,1.81678103029117
275,NS01,46,23,male,likert,3,25,NA,NA,1616,5.21,480,629.1,3,1.91684301710848
276,NS01,46,23,male,likert,3,26,NA,NA,2390,5.4,480,450.9,5,1.83347420335849
277,NS01,46,23,male,likert,3,27,NA,NA,5628,6.51,480,450.9,5,2.26686631850316
278,NS01,46,23,male,likert,3,28,NA,NA,7080,5.27,480,629.1,3,1.56684315231905
279,NS01,46,23,male,likert,3,29,NA,NA,2092,6.28,480,540,4,1.03360298450207
280,NS01,46,23,male,likert,3,30,NA,NA,7830,5.26,480,450.9,5,1.93355542021163
281,NS01,46,23,male,likert,3,31,NA,NA,1640,6.16,480,450.9,5,1.33354165871788
282,NS01,46,23,male,likert,3,32,NA,NA,4598,6.33,480,361.8,6,1.46671265850455
283,NS01,46,23,male,likert,3,33,NA,NA,8191,6.07,480,450.9,5,1.50029671343509
284,NS01,46,23,male,likert,3,34,NA,NA,2037,6.42,480,450.9,5,1.63334872737687
285,NS01,46,23,male,likert,3,35,NA,NA,7354,5.51,480,629.1,3,1.18350441554503
286,NS01,46,23,male,likert,3,36,NA,NA,8211,5.76,480,450.9,5,3.05019399800585
287,NS01,46,23,male,likert,3,37,NA,NA,7451,6.68,480,718.2,2,1.53347904091424
288,NS01,46,23,male,likert,3,38,NA,NA,7503,5.77,480,450.9,5,1.90047825699003
289,NS01,46,23,male,likert,3,39,NA,NA,2521,5.78,480,540,4,1.65022428531302
290,NS01,46,23,male,likert,3,40,NA,NA,6250,6.32,480,540,4,1.61674569510069
291,NS01,46,23,male,likert,3,41,NA,NA,2594,6.05,480,361.8,6,1.68359891314321
292,NS01,46,23,male,likert,3,42,NA,NA,7026,5.38,480,629.1,3,1.8835780605732
293,NS01,46,23,male,likert,3,43,NA,NA,7248,5.22,480,718.2,2,1.98347508974257
294,NS01,46,23,male,likert,3,44,NA,NA,5040,5.39,480,629.1,3,1.41683896077302
295,NS01,46,23,male,likert,3,45,NA,NA,5890,6.67,480,540,4,1.0668405983306
296,NS01,46,23,male,likert,3,46,NA,NA,2032,5.58,480,450.9,5,1.85021725433035
297,NS01,46,23,male,likert,3,47,NA,NA,8179,6.48,480,361.8,6,2.05016996046106
298,NS01,46,23,male,likert,3,48,NA,NA,5622,6.33,480,450.9,5,2.0002818402063
299,NS01,46,23,male,likert,3,49,NA,NA,7620,5.78,480,450.9,5,2.11680263403468
300,NS01,46,23,male,likert,3,50,NA,NA,7039,5.93,480,361.8,6,1.40012806001687
