rowN,DAU,participantN,age,gender,task,taskOrder,trial,lImage,lValue,rImage,rValue,xBoxPos,yBoxPos,response,RT
1,NS01,19,35,male,continuous,1,1,2442,6.17,7620,5.78,1297,972,85,4.40038538200315
2,NS01,19,35,male,continuous,1,2,5593,6.47,7179,5.06,480,972,1,2.58364887622884
3,NS01,19,35,male,continuous,1,3,7482,6.36,8161,6.71,572,972,10,3.45031167689012
4,NS01,19,35,male,continuous,1,4,5531,5.15,7501,6.85,1338,972,89,3.56684392358875
5,NS01,19,35,male,continuous,1,5,1450,6.37,5395,5.34,1035,972,58,3.65034707222367
6,NS01,19,35,male,continuous,1,6,5726,6.23,5628,6.51,1262,972,82,3.4835012255935
7,NS01,19,35,male,continuous,1,7,2514,5.19,2092,6.28,723,972,26,3.31681582971942
8,NS01,19,35,male,continuous,1,8,7039,5.93,7237,5.43,761,972,30,2.0001901970827
9,NS01,19,35,male,continuous,1,9,2038,5.09,2308,5.22,1236,972,79,2.53350233734818
10,NS01,19,35,male,continuous,1,10,5740,5.21,7632,5.22,1206,972,76,2.6000713314279
11,NS01,19,35,male,continuous,1,11,2351,5.49,7080,5.27,767,972,31,2.75016661029076
12,NS01,19,35,male,continuous,1,12,5500,5.42,7165,6.09,1162,972,71,3.43356561620021
13,NS01,19,35,male,continuous,1,13,1595,6.22,2411,5.07,856,972,40,2.83351411571493
14,NS01,19,35,male,continuous,1,14,5530,5.38,4617,6.6,1181,972,73,2.83339993737172
15,NS01,19,35,male,continuous,1,15,5731,5.39,5950,5.99,1312,972,87,2.86680792731931
16,NS01,19,35,male,continuous,1,16,5040,5.39,5471,5.21,693,972,23,3.08348692324944
17,NS01,19,35,male,continuous,1,17,2511,6.21,1903,5.5,1195,972,75,1.85014028917067
18,NS01,19,35,male,continuous,1,18,5890,6.67,7509,6.03,490,972,2,2.2334779392113
19,NS01,19,35,male,continuous,1,19,5622,6.33,2377,5.19,564,972,10,2.7001426628558
20,NS01,19,35,male,continuous,1,20,8130,6.58,7510,6.05,1223,972,78,3.0668075667927
21,NS01,19,35,male,continuous,1,21,5875,6.03,5800,6.36,723,972,26,2.15010489383712
22,NS01,19,35,male,continuous,1,22,7140,5.5,1616,5.21,843,972,38,3.63348683313234
23,NS01,19,35,male,continuous,1,23,7291,6.35,7052,5.33,538,972,7,3.18347532511689
24,NS01,19,35,male,continuous,1,24,5410,6.11,5626,6.71,1250,972,80,2.95023265347118
25,NS01,19,35,male,continuous,1,25,2020,5.68,5720,6.31,1255,972,81,2.25023872294696
26,NS01,19,35,male,continuous,1,26,7451,6.68,6250,6.32,530,972,6,2.05016697087558
27,NS01,19,35,male,continuous,1,27,2870,5.31,7351,5.82,1265,972,82,2.46682787855389
28,NS01,19,35,male,continuous,1,28,7450,6.4,5870,6.78,1169,972,72,2.90021892194636
29,NS01,19,35,male,continuous,1,29,2900,6.62,2358,6.56,1163,972,71,2.28360795235494
30,NS01,19,35,male,continuous,1,30,7546,5.4,8191,6.07,1440,972,100,2.03356393356808
31,NS01,19,35,male,continuous,1,31,2489,5.66,7488,6.19,1143,972,69,2.6668861094513
32,NS01,19,35,male,continuous,1,32,2302,6.43,7472,6.25,1220,972,77,2.43348208576208
33,NS01,19,35,male,continuous,1,33,2339,6.72,1605,6.59,573,972,11,2.85027970699593
34,NS01,19,35,male,continuous,1,34,7490,5.52,8620,6.04,1183,972,73,2.53350714483531
35,NS01,19,35,male,continuous,1,35,2010,6.25,8179,6.48,1243,972,80,2.95011607132619
36,NS01,19,35,male,continuous,1,36,2597,5.61,7033,5.4,709,972,25,3.41667713300558
37,NS01,19,35,male,continuous,1,37,8341,6.25,7242,5.28,1301,972,86,3.20015077554854
38,NS01,19,35,male,continuous,1,38,2560,6.34,7489,6.54,1184,972,74,3.25020567129832
39,NS01,19,35,male,continuous,1,39,7057,5.35,5849,6.65,557,972,9,3.75024022528669
40,NS01,19,35,male,continuous,1,40,8031,6.76,2575,5.46,672,972,21,2.316762646602
41,NS01,19,35,male,continuous,1,41,5510,5.15,5533,5.31,1236,972,79,1.78357580211014
42,NS01,19,35,male,continuous,1,42,2374,6.29,5764,6.74,661,972,20,2.40011796425097
43,NS01,19,35,male,continuous,1,43,2382,5.67,7600,5.9,745,972,28,2.80018034169916
44,NS01,19,35,male,continuous,1,44,2606,5.92,5635,6.25,1199,972,75,3.58359539275989
45,NS01,19,35,male,continuous,1,45,8467,6.35,8312,5.37,666,972,20,2.50017186847981
46,NS01,19,35,male,continuous,1,46,7506,5.34,7238,6.43,612,972,15,2.23363298148615
47,NS01,19,35,male,continuous,1,47,7061,5.4,8208,6.79,701,972,24,2.55016066099051
48,NS01,19,35,male,continuous,1,48,1660,6.49,1650,6.65,495,972,3,2.30028099898482
49,NS01,19,35,male,continuous,1,49,2018,5.56,7830,5.26,805,972,35,2.93351573828841
50,NS01,19,35,male,continuous,1,50,2152,6.93,7240,6.02,689,972,23,2.53359848755645
51,NS01,19,35,male,binary,2,51,7195,6.02,7390,6.84,1440,972,2,4.51683469919953
52,NS01,19,35,male,binary,2,52,7014,5.15,1908,5.28,480,972,1,2.10019121872028
53,NS01,19,35,male,binary,2,53,5990,6.54,4645,6.73,1440,972,2,1.95024316990748
54,NS01,19,35,male,binary,2,54,2107,5.53,7475,6.33,1440,972,2,1.91687934892252
55,NS01,19,35,male,binary,2,55,1850,6.15,2513,5.8,480,972,1,2.06687367008999
56,NS01,19,35,male,binary,2,56,2880,5.18,5900,5.93,1440,972,2,3.45018547977088
57,NS01,19,35,male,binary,2,57,2488,5.73,7354,5.51,1440,972,2,2.50022084498778
58,NS01,19,35,male,binary,2,58,8118,6.14,7340,6.68,480,972,1,2.70033916982356
59,NS01,19,35,male,binary,2,59,8600,6.38,7053,5.22,480,972,1,2.53348010260379
60,NS01,19,35,male,binary,2,60,1810,6.52,4100,6.11,480,972,1,1.86680402123602
61,NS01,19,35,male,binary,2,61,5301,6.54,2593,5.8,1440,972,2,2.21698277053656
62,NS01,19,35,male,binary,2,62,8211,5.76,2506,5.67,1440,972,2,4.13358899269952
63,NS01,19,35,male,binary,2,63,7250,6.62,2389,6.61,1440,972,2,2.83364812511718
64,NS01,19,35,male,binary,2,64,7096,5.54,1900,6.65,1440,972,2,2.75012003752636
65,NS01,19,35,male,binary,2,65,1659,6.57,2025,5.78,480,972,1,2.21680639497936
66,NS01,19,35,male,binary,2,66,1640,6.16,7460,6.81,1440,972,2,1.28353343589697
67,NS01,19,35,male,binary,2,67,7499,6.47,2342,6.2,1440,972,2,3.0501795905293
68,NS01,19,35,male,binary,2,68,2390,5.4,5661,5.96,480,972,1,2.61687988979975
69,NS01,19,35,male,binary,2,69,1640,6.27,1947,5.85,480,972,1,1.98350633360678
70,NS01,19,35,male,binary,2,70,7042,5.55,1333,6.11,1440,972,2,1.61691203998635
71,NS01,19,35,male,binary,2,71,2357,5.41,2032,5.58,1440,972,2,3.78344660025323
72,NS01,19,35,male,binary,2,72,7026,5.38,2056,6.34,480,972,1,3.23363748850534
73,NS01,19,35,male,binary,2,73,8021,6.79,5215,6.83,1440,972,2,1.75021829101024
74,NS01,19,35,male,binary,2,74,2594,6.05,5520,5.33,480,972,1,2.96669116494013
75,NS01,19,35,male,binary,2,75,2720,5.43,7550,5.27,1440,972,2,3.03340768953785
76,NS01,19,35,male,binary,2,76,8325,5.63,2362,6.74,480,972,1,2.90026639617281
77,NS01,19,35,male,binary,2,77,7500,5.33,7019,5.2,1440,972,2,2.5168725582771
78,NS01,19,35,male,binary,2,78,2392,6.15,2616,5.97,480,972,1,2.26681531890063
79,NS01,19,35,male,binary,2,79,4600,6.41,2060,6.49,1440,972,2,3.43353376648156
80,NS01,19,35,male,binary,2,80,8250,6.19,7001,5.32,480,972,1,3.00022174644982
81,NS01,19,35,male,binary,2,81,7530,6.71,5750,6.6,480,972,1,1.65021095960401
82,NS01,19,35,male,binary,2,82,8260,6.18,2521,5.78,1440,972,2,1.50009584974032
83,NS01,19,35,male,binary,2,83,1670,5.82,2037,6.42,1440,972,2,1.90023905347334
84,NS01,19,35,male,binary,2,84,8311,5.88,7183,5.58,480,972,1,2.36696417140774
85,NS01,19,35,male,binary,2,85,7710,5.42,7182,5.16,480,972,1,2.7168421507813
86,NS01,19,35,male,binary,2,86,7440,6.32,7233,5.09,480,972,1,1.80017252953257
87,NS01,19,35,male,binary,2,87,2605,6.26,7286,6.36,1440,972,2,2.95032309473027
88,NS01,19,35,male,binary,2,88,2235,5.64,7017,5.18,1440,972,2,3.98356642742874
89,NS01,19,35,male,binary,2,89,7660,6.61,2217,6.24,1440,972,2,2.60020834545139
90,NS01,19,35,male,binary,2,90,1419,6.54,8193,6.73,1440,972,2,2.45018728257855
91,NS01,19,35,male,binary,2,91,8465,5.96,7477,6.12,480,972,1,1.85027550038649
92,NS01,19,35,male,binary,2,92,7188,5.5,7279,6.22,1440,972,2,2.53356273169629
93,NS01,19,35,male,binary,2,93,5300,6.91,5250,6.08,480,972,1,1.70012793986825
94,NS01,19,35,male,binary,2,94,2273,5.41,2372,5.48,480,972,1,2.81691979209427
95,NS01,19,35,male,binary,2,95,7190,5.55,2019,6.07,1440,972,2,1.78348295710748
96,NS01,19,35,male,binary,2,96,7820,5.39,7507,6.25,1440,972,2,2.6002732468769
97,NS01,19,35,male,binary,2,97,8040,6.64,1910,6.71,480,972,1,3.11691414326197
98,NS01,19,35,male,binary,2,98,4536,6.01,8320,6.24,1440,972,2,2.71697225404205
99,NS01,19,35,male,binary,2,99,8192,5.52,2305,5.41,1440,972,2,1.73349716927623
100,NS01,19,35,male,binary,2,100,1675,5.24,2515,6.09,480,972,1,3.05022045434453
101,NS01,19,35,male,likert,3,101,NA,NA,2382,5.67,480,361.8,6,3.48356011766009
102,NS01,19,35,male,likert,3,102,NA,NA,1903,5.5,480,450.9,5,1.98362561996328
103,NS01,19,35,male,likert,3,103,NA,NA,5250,6.08,480,361.8,6,1.91695687005995
104,NS01,19,35,male,likert,3,104,NA,NA,7477,6.12,480,718.2,2,1.90014650888043
105,NS01,19,35,male,likert,3,105,NA,NA,8620,6.04,480,450.9,5,1.48350753542036
106,NS01,19,35,male,likert,3,106,NA,NA,1810,6.52,480,270,7,1.4669525733334
107,NS01,19,35,male,likert,3,107,NA,NA,4100,6.11,480,629.1,3,1.75022580270888
108,NS01,19,35,male,likert,3,108,NA,NA,5510,5.15,480,629.1,3,1.90013809577795
109,NS01,19,35,male,likert,3,109,NA,NA,7550,5.27,480,450.9,5,1.65011571079958
110,NS01,19,35,male,likert,3,110,NA,NA,2560,6.34,480,540,4,1.45020110416226
111,NS01,19,35,male,likert,3,111,NA,NA,7710,5.42,480,361.8,6,1.86685329827014
112,NS01,19,35,male,likert,3,112,NA,NA,2358,6.56,480,450.9,5,1.60018400748959
113,NS01,19,35,male,likert,3,113,NA,NA,1605,6.59,480,629.1,3,2.11696101649432
114,NS01,19,35,male,likert,3,114,NA,NA,7053,5.22,480,718.2,2,1.71680699585704
115,NS01,19,35,male,likert,3,115,NA,NA,2273,5.41,480,450.9,5,1.51689960056683
116,NS01,19,35,male,likert,3,116,NA,NA,2489,5.66,480,540,4,1.30009741213871
117,NS01,19,35,male,likert,3,117,NA,NA,2506,5.67,480,450.9,5,1.46683358744485
118,NS01,19,35,male,likert,3,118,NA,NA,5635,6.25,480,361.8,6,2.35018596047303
119,NS01,19,35,male,likert,3,119,NA,NA,1908,5.28,480,629.1,3,1.683500264131
120,NS01,19,35,male,likert,3,120,NA,NA,2374,6.29,480,361.8,6,1.83352012513205
121,NS01,19,35,male,likert,3,121,NA,NA,7190,5.55,480,629.1,3,2.00020101398695
122,NS01,19,35,male,likert,3,122,NA,NA,5750,6.6,480,629.1,3,2.48340988293057
123,NS01,19,35,male,likert,3,123,NA,NA,1675,5.24,480,361.8,6,1.58340669795871
124,NS01,19,35,male,likert,3,124,NA,NA,7507,6.25,480,450.9,5,1.88348187541123
125,NS01,19,35,male,likert,3,125,NA,NA,5726,6.23,480,450.9,5,2.65013824601192
126,NS01,19,35,male,likert,3,126,NA,NA,5626,6.71,480,361.8,6,2.45028042804915
127,NS01,19,35,male,likert,3,127,NA,NA,2442,6.17,480,450.9,5,2.66673016588902
128,NS01,19,35,male,likert,3,128,NA,NA,7233,5.09,480,718.2,2,1.58340729883639
129,NS01,19,35,male,likert,3,129,NA,NA,7033,5.4,480,718.2,2,2.71679016959388
130,NS01,19,35,male,likert,3,130,NA,NA,2521,5.78,480,361.8,6,1.43353767256485
131,NS01,19,35,male,likert,3,131,NA,NA,7017,5.18,480,450.9,5,2.50015444128076
132,NS01,19,35,male,likert,3,132,NA,NA,5731,5.39,480,540,4,1.05020783469081
133,NS01,19,35,male,likert,3,133,NA,NA,2217,6.24,480,450.9,5,1.71696954983054
134,NS01,19,35,male,likert,3,134,NA,NA,7279,6.22,480,270,7,1.48347508482402
135,NS01,19,35,male,likert,3,135,NA,NA,2342,6.2,480,450.9,5,1.76679909351515
136,NS01,19,35,male,likert,3,136,NA,NA,8179,6.48,480,270,7,1.60014194174437
137,NS01,19,35,male,likert,3,137,NA,NA,8021,6.79,480,450.9,5,1.63343455147697
138,NS01,19,35,male,likert,3,138,NA,NA,7195,6.02,480,629.1,3,1.71694521181053
139,NS01,19,35,male,likert,3,139,NA,NA,5531,5.15,480,810,1,1.40021531633101
140,NS01,19,35,male,likert,3,140,NA,NA,5471,5.21,480,629.1,3,1.85023073042976
141,NS01,19,35,male,likert,3,141,NA,NA,7489,6.54,480,450.9,5,1.61679665971315
142,NS01,19,35,male,likert,3,142,NA,NA,2511,6.21,480,540,4,1.23345330078155
143,NS01,19,35,male,likert,3,143,NA,NA,7242,5.28,480,361.8,6,1.93358094018186
144,NS01,19,35,male,likert,3,144,NA,NA,2392,6.15,480,270,7,1.6334754152922
145,NS01,19,35,male,likert,3,145,NA,NA,1640,6.27,480,361.8,6,2.58355603122618
146,NS01,19,35,male,likert,3,146,NA,NA,2597,5.61,480,629.1,3,3.15010489389533
147,NS01,19,35,male,likert,3,147,NA,NA,7506,5.34,480,540,4,1.38342208199902
148,NS01,19,35,male,likert,3,148,NA,NA,2594,6.05,480,450.9,5,1.51677911233855
149,NS01,19,35,male,likert,3,149,NA,NA,8211,5.76,480,540,4,1.25012214080198
150,NS01,19,35,male,likert,3,150,NA,NA,7354,5.51,480,540,4,1.18352640495868
151,NS01,19,35,male,likert,3,151,NA,NA,7080,5.27,480,629.1,3,1.93354368198197
152,NS01,19,35,male,likert,3,152,NA,NA,2305,5.41,480,450.9,5,1.63352829788346
153,NS01,19,35,male,likert,3,153,NA,NA,7820,5.39,480,540,4,1.01699304650538
154,NS01,19,35,male,likert,3,154,NA,NA,2513,5.8,480,450.9,5,1.40026339143515
155,NS01,19,35,male,likert,3,155,NA,NA,1910,6.71,480,450.9,5,2.01680945971748
156,NS01,19,35,male,likert,3,156,NA,NA,2351,5.49,480,361.8,6,1.78346733265789
157,NS01,19,35,male,likert,3,157,NA,NA,5661,5.96,480,450.9,5,2.76689554419136
158,NS01,19,35,male,likert,3,158,NA,NA,5530,5.38,480,718.2,2,1.51670099032344
159,NS01,19,35,male,likert,3,159,NA,NA,5520,5.33,480,810,1,1.41681474796496
160,NS01,19,35,male,likert,3,160,NA,NA,7482,6.36,480,450.9,5,1.43356561620021
161,NS01,19,35,male,likert,3,161,NA,NA,2605,6.26,480,629.1,3,1.6335613495321
162,NS01,19,35,male,likert,3,162,NA,NA,8208,6.79,480,361.8,6,1.26697036111727
163,NS01,19,35,male,likert,3,163,NA,NA,2056,6.34,480,450.9,5,1.81677947286516
164,NS01,19,35,male,likert,3,164,NA,NA,5870,6.78,480,270,7,1.58349954296136
165,NS01,19,35,male,likert,3,165,NA,NA,2870,5.31,480,450.9,5,1.53347829979612
166,NS01,19,35,male,likert,3,166,NA,NA,8325,5.63,480,629.1,3,1.25021829101024
167,NS01,19,35,male,likert,3,167,NA,NA,1947,5.85,480,450.9,5,3.55017688631779
168,NS01,19,35,male,likert,3,168,NA,NA,2900,6.62,480,629.1,3,2.23348154482665
169,NS01,19,35,male,likert,3,169,NA,NA,8040,6.64,480,270,7,1.50019620649982
170,NS01,19,35,male,likert,3,170,NA,NA,7488,6.19,480,450.9,5,1.45028373325476
171,NS01,19,35,male,likert,3,171,NA,NA,7238,6.43,480,810,1,1.30026537459344
172,NS01,19,35,male,likert,3,172,NA,NA,5849,6.65,480,629.1,3,2.1334859317285
173,NS01,19,35,male,likert,3,173,NA,NA,5720,6.31,480,450.9,5,1.48357544158353
174,NS01,19,35,male,likert,3,174,NA,NA,7472,6.25,480,361.8,6,3.1835501420428
175,NS01,19,35,male,likert,3,175,NA,NA,1450,6.37,480,629.1,3,1.56680786726065
176,NS01,19,35,male,likert,3,176,NA,NA,8161,6.71,480,450.9,5,3.05025590979494
177,NS01,19,35,male,likert,3,177,NA,NA,2060,6.49,480,361.8,6,1.3834298941656
178,NS01,19,35,male,likert,3,178,NA,NA,2010,6.25,480,629.1,3,1.46687835734338
179,NS01,19,35,male,likert,3,179,NA,NA,2308,5.22,480,361.8,6,1.38349599746289
180,NS01,19,35,male,likert,3,180,NA,NA,5533,5.31,480,718.2,2,1.43348959740251
181,NS01,19,35,male,likert,3,181,NA,NA,7165,6.09,480,450.9,5,1.51682868978241
182,NS01,19,35,male,likert,3,182,NA,NA,2235,5.64,480,270,7,1.50009554927237
183,NS01,19,35,male,likert,3,183,NA,NA,5764,6.74,480,450.9,5,1.81680110667367
184,NS01,19,35,male,likert,3,184,NA,NA,1419,6.54,480,629.1,3,2.18352670542663
185,NS01,19,35,male,likert,3,185,NA,NA,2390,5.4,480,718.2,2,3.2334424838773
186,NS01,19,35,male,likert,3,186,NA,NA,7061,5.4,480,810,1,1.63350335892756
187,NS01,19,35,male,likert,3,187,NA,NA,7182,5.16,480,810,1,1.36678929824848
188,NS01,19,35,male,likert,3,188,NA,NA,5875,6.03,480,450.9,5,2.78354725753888
189,NS01,19,35,male,likert,3,189,NA,NA,5900,5.93,480,450.9,5,1.43359446123941
190,NS01,19,35,male,likert,3,190,NA,NA,4536,6.01,480,540,4,1.23347283125622
191,NS01,19,35,male,likert,3,191,NA,NA,5622,6.33,480,270,7,1.78348776459461
192,NS01,19,35,male,likert,3,192,NA,NA,7475,6.33,480,361.8,6,1.516818774282
193,NS01,19,35,male,likert,3,193,NA,NA,8250,6.19,480,540,4,1.23354915046366
194,NS01,19,35,male,likert,3,194,NA,NA,1670,5.82,480,450.9,5,1.51693114981754
195,NS01,19,35,male,likert,3,195,NA,NA,2372,5.48,480,629.1,3,1.45012208068511
196,NS01,19,35,male,likert,3,196,NA,NA,5300,6.91,480,450.9,5,1.16687679488678
197,NS01,19,35,male,likert,3,197,NA,NA,8193,6.73,480,361.8,6,4.58347430353751
198,NS01,19,35,male,likert,3,198,NA,NA,7042,5.55,480,718.2,2,1.48360398615478
199,NS01,19,35,male,likert,3,199,NA,NA,7026,5.38,480,450.9,5,1.66680558363441
200,NS01,19,35,male,likert,3,200,NA,NA,2515,6.09,480,540,4,1.55011529009789
201,NS01,19,35,male,likert,3,1,NA,NA,8600,6.38,480,361.8,6,1.93346165376715
202,NS01,19,35,male,likert,3,2,NA,NA,2018,5.56,480,450.9,5,1.40019668731838
203,NS01,19,35,male,likert,3,3,NA,NA,2019,6.07,480,270,7,1.48349431483075
204,NS01,19,35,male,likert,3,4,NA,NA,7052,5.33,480,718.2,2,1.45030025904998
205,NS01,19,35,male,likert,3,5,NA,NA,7019,5.2,480,629.1,3,1.61673566448735
206,NS01,19,35,male,likert,3,6,NA,NA,7340,6.68,480,361.8,6,1.21685086440993
207,NS01,19,35,male,likert,3,7,NA,NA,7440,6.32,480,270,7,1.3501306741382
208,NS01,19,35,male,likert,3,8,NA,NA,5040,5.39,480,361.8,6,1.76679158181651
209,NS01,19,35,male,likert,3,9,NA,NA,7460,6.81,480,450.9,5,1.53348641243065
210,NS01,19,35,male,likert,3,10,NA,NA,2362,6.74,480,361.8,6,3.01694346906152
211,NS01,19,35,male,likert,3,11,NA,NA,8118,6.14,480,270,7,1.46684981277213
212,NS01,19,35,male,likert,3,12,NA,NA,1650,6.65,480,540,4,2.63353851391003
213,NS01,19,35,male,likert,3,13,NA,NA,5890,6.67,480,361.8,6,1.35005044884747
214,NS01,19,35,male,likert,3,14,NA,NA,8341,6.25,480,450.9,5,1.8835380631499
215,NS01,19,35,male,likert,3,15,NA,NA,1595,6.22,480,361.8,6,2.11671853769803
216,NS01,19,35,male,likert,3,16,NA,NA,5500,5.42,480,810,1,1.21688481746241
217,NS01,19,35,male,likert,3,17,NA,NA,2339,6.72,480,270,7,1.53349302278366
218,NS01,19,35,male,likert,3,18,NA,NA,7490,5.52,480,450.9,5,1.46669416961959
219,NS01,19,35,male,likert,3,19,NA,NA,7830,5.26,480,718.2,2,2.15013403940247
220,NS01,19,35,male,likert,3,20,NA,NA,4645,6.73,480,450.9,5,1.40029433980817
221,NS01,19,35,male,likert,3,21,NA,NA,2575,5.46,480,629.1,3,1.55009636055911
222,NS01,19,35,male,likert,3,22,NA,NA,7351,5.82,480,361.8,6,2.2167817564914
223,NS01,19,35,male,likert,3,23,NA,NA,7499,6.47,480,450.9,5,1.86673611513106
224,NS01,19,35,male,likert,3,24,NA,NA,2389,6.61,480,361.8,6,1.73347673733952
225,NS01,19,35,male,likert,3,25,NA,NA,7240,6.02,480,718.2,2,1.58352448197547
226,NS01,19,35,male,likert,3,26,NA,NA,8312,5.37,480,450.9,5,1.55008674552664
227,NS01,19,35,male,likert,3,27,NA,NA,8467,6.35,480,270,7,1.70013785531046
228,NS01,19,35,male,likert,3,28,NA,NA,7390,6.84,480,450.9,5,1.53344584914157
229,NS01,19,35,male,likert,3,29,NA,NA,5410,6.11,480,629.1,3,1.5668874916737
230,NS01,19,35,male,likert,3,30,NA,NA,7600,5.9,480,540,4,1.26691537519218
231,NS01,19,35,male,likert,3,31,NA,NA,2020,5.68,480,718.2,2,1.75005844124826
232,NS01,19,35,male,likert,3,32,NA,NA,8465,5.96,480,450.9,5,1.16689782775939
233,NS01,19,35,male,likert,3,33,NA,NA,7632,5.22,480,361.8,6,2.05020422907546
234,NS01,19,35,male,likert,3,34,NA,NA,5740,5.21,480,629.1,3,1.51695398549782
235,NS01,19,35,male,likert,3,35,NA,NA,6250,6.32,480,629.1,3,1.7167889677221
236,NS01,19,35,male,likert,3,36,NA,NA,7451,6.68,480,450.9,5,1.31674041191582
237,NS01,19,35,male,likert,3,37,NA,NA,7530,6.71,480,270,7,1.51701648317976
238,NS01,19,35,male,likert,3,38,NA,NA,2593,5.8,480,361.8,6,3.46680804749485
239,NS01,19,35,male,likert,3,39,NA,NA,2092,6.28,480,718.2,2,1.40020029293373
240,NS01,19,35,male,likert,3,40,NA,NA,2514,5.19,480,450.9,5,1.66676982783247
241,NS01,19,35,male,likert,3,41,NA,NA,2880,5.18,480,450.9,5,1.56674446823308
242,NS01,19,35,male,likert,3,42,NA,NA,7501,6.85,480,361.8,6,1.46674284565961
243,NS01,19,35,male,likert,3,43,NA,NA,8130,6.58,480,629.1,3,1.50018929567887
244,NS01,19,35,male,likert,3,44,NA,NA,2302,6.43,480,629.1,3,2.38346625096165
245,NS01,19,35,male,likert,3,45,NA,NA,7546,5.4,480,629.1,3,3.36684007756412
246,NS01,19,35,male,likert,3,46,NA,NA,8260,6.18,480,629.1,3,1.5501723792986
247,NS01,19,35,male,likert,3,47,NA,NA,8031,6.76,480,361.8,6,1.21690765308449
248,NS01,19,35,male,likert,3,48,NA,NA,2377,5.19,480,540,4,1.28357129509095
249,NS01,19,35,male,likert,3,49,NA,NA,7014,5.15,480,450.9,5,1.4835123429657
250,NS01,19,35,male,likert,3,50,NA,NA,7250,6.62,480,718.2,2,1.66693598742131
251,NS01,19,35,male,likert,3,1,NA,NA,7660,6.61,480,629.1,3,2.01702790096169
252,NS01,19,35,male,likert,3,2,NA,NA,1900,6.65,480,450.9,5,1.76692919677589
253,NS01,19,35,male,likert,3,3,NA,NA,7450,6.4,480,540,4,1.2501957557979
254,NS01,19,35,male,likert,3,4,NA,NA,4617,6.6,480,361.8,6,2.88352183782263
255,NS01,19,35,male,likert,3,5,NA,NA,8320,6.24,480,450.9,5,1.80015269858995
256,NS01,19,35,male,likert,3,6,NA,NA,2032,5.58,480,540,4,1.55015645443927
257,NS01,19,35,male,likert,3,7,NA,NA,2357,5.41,480,540,4,1.16687469161116
258,NS01,19,35,male,likert,3,8,NA,NA,5593,6.47,480,361.8,6,1.43353346595541
259,NS01,19,35,male,likert,3,9,NA,NA,7291,6.35,480,361.8,6,1.48351594858104
260,NS01,19,35,male,likert,3,10,NA,NA,2037,6.42,480,450.9,5,2.31679599871859
261,NS01,19,35,male,likert,3,11,NA,NA,1616,5.21,480,629.1,3,1.33359043498058
262,NS01,19,35,male,likert,3,12,NA,NA,7039,5.93,480,540,4,1.35016733140219
263,NS01,19,35,male,likert,3,13,NA,NA,7179,5.06,480,810,1,2.05017448257422
264,NS01,19,35,male,likert,3,14,NA,NA,7620,5.78,480,629.1,3,1.56682619586354
265,NS01,19,35,male,likert,3,15,NA,NA,7057,5.35,480,540,4,1.25012334273197
266,NS01,19,35,male,likert,3,16,NA,NA,5950,5.99,480,270,7,1.55019551544683
267,NS01,19,35,male,likert,3,17,NA,NA,1333,6.11,480,450.9,5,1.68336595426081
268,NS01,19,35,male,likert,3,18,NA,NA,1640,6.16,480,540,4,1.51692153484328
269,NS01,19,35,male,likert,3,19,NA,NA,8192,5.52,480,361.8,6,2.70022198674269
270,NS01,19,35,male,likert,3,20,NA,NA,2025,5.78,480,361.8,6,1.45021582720801
271,NS01,19,35,male,likert,3,21,NA,NA,7001,5.32,480,629.1,3,1.31689184845891
272,NS01,19,35,male,likert,3,22,NA,NA,7510,6.05,480,629.1,3,2.31681582966121
273,NS01,19,35,male,likert,3,23,NA,NA,7509,6.03,480,450.9,5,1.26696104655275
274,NS01,19,35,male,likert,3,24,NA,NA,7286,6.36,480,450.9,5,2.20008617464919
275,NS01,19,35,male,likert,3,25,NA,NA,5301,6.54,480,450.9,5,2.03353689133655
276,NS01,19,35,male,likert,3,26,NA,NA,5800,6.36,480,450.9,5,2.05012370320037
277,NS01,19,35,male,likert,3,27,NA,NA,1660,6.49,480,270,7,1.85034550970886
278,NS01,19,35,male,likert,3,28,NA,NA,7183,5.58,480,810,1,1.18351919366978
279,NS01,19,35,male,likert,3,29,NA,NA,5215,6.83,480,361.8,6,2.01683950668667
280,NS01,19,35,male,likert,3,30,NA,NA,7500,5.33,480,629.1,3,1.80009651073487
281,NS01,19,35,male,likert,3,31,NA,NA,7237,5.43,480,810,1,1.21697646065149
282,NS01,19,35,male,likert,3,32,NA,NA,2616,5.97,480,629.1,3,2.01671361003537
283,NS01,19,35,male,likert,3,33,NA,NA,1659,6.57,480,270,7,1.56675798934884
284,NS01,19,35,male,likert,3,34,NA,NA,8191,6.07,480,361.8,6,1.68360001995461
285,NS01,19,35,male,likert,3,35,NA,NA,8311,5.88,480,450.9,5,1.55015885812463
286,NS01,19,35,male,likert,3,36,NA,NA,5990,6.54,480,450.9,5,2.3501484018052
287,NS01,19,35,male,likert,3,37,NA,NA,2107,5.53,480,718.2,2,1.90017625538167
288,NS01,19,35,male,likert,3,38,NA,NA,1850,6.15,480,629.1,3,1.73366903775604
289,NS01,19,35,male,likert,3,39,NA,NA,2488,5.73,480,629.1,3,1.68345399183454
290,NS01,19,35,male,likert,3,40,NA,NA,7140,5.5,480,810,1,2.03353088197764
291,NS01,19,35,male,likert,3,41,NA,NA,4600,6.41,480,629.1,3,2.3001602102886
292,NS01,19,35,male,likert,3,42,NA,NA,5628,6.51,480,270,7,1.4334331091959
293,NS01,19,35,male,likert,3,43,NA,NA,7096,5.54,480,629.1,3,1.2834850603831
294,NS01,19,35,male,likert,3,44,NA,NA,2152,6.93,480,361.8,6,2.21674810384866
295,NS01,19,35,male,likert,3,45,NA,NA,7188,5.5,480,450.9,5,1.85016943467781
296,NS01,19,35,male,likert,3,46,NA,NA,2038,5.09,480,540,4,1.48348950734362
297,NS01,19,35,male,likert,3,47,NA,NA,5395,5.34,480,629.1,3,1.38346174394246
298,NS01,19,35,male,likert,3,48,NA,NA,2411,5.07,480,810,1,1.58352328004548
299,NS01,19,35,male,likert,3,49,NA,NA,2606,5.92,480,629.1,3,1.55013031355338
300,NS01,19,35,male,likert,3,50,NA,NA,2720,5.43,480,810,1,2.00029085436836
