rowN,DAU,participantN,age,gender,task,taskOrder,trial,lImage,lValue,rImage,rValue,xBoxPos,yBoxPos,response,RT
1,NS01,27,20,female,continuous,1,1,2102,5.16,5731,5.39,1355,972,91,4.20032715104753
2,NS01,27,20,female,continuous,1,2,1810,6.52,7039,5.93,1350,972,91,3.11688319494715
3,NS01,27,20,female,continuous,1,3,5530,5.38,5740,5.21,1265,972,82,3.46687505219597
4,NS01,27,20,female,continuous,1,4,2359,5.87,2515,6.09,1352,972,91,3.25021769007435
5,NS01,27,20,female,continuous,1,5,7490,5.52,2605,6.26,546,972,8,3.01716010749806
6,NS01,27,20,female,continuous,1,6,5626,6.71,6250,6.32,545,972,8,3.10014674928971
7,NS01,27,20,female,continuous,1,7,7001,5.32,5720,6.31,1355,972,91,3.15010399249149
8,NS01,27,20,female,continuous,1,8,5870,6.78,7233,5.09,518,972,5,2.45022454077844
9,NS01,27,20,female,continuous,1,9,4598,6.33,5849,6.65,1406,972,96,2.58355873543769
10,NS01,27,20,female,continuous,1,10,5593,6.47,5950,5.99,480,972,1,2.75014527695021
11,NS01,27,20,female,continuous,1,11,2560,6.34,2597,5.61,480,972,1,3.63347841997165
12,NS01,27,20,female,continuous,1,12,7620,5.78,1947,5.85,1401,972,96,3.00035395292798
13,NS01,27,20,female,continuous,1,13,7183,5.58,8193,6.73,613,972,15,4.60031981958309
14,NS01,27,20,female,continuous,1,14,7509,6.03,2019,6.07,480,972,1,2.10029367881361
15,NS01,27,20,female,continuous,1,15,5520,5.33,2308,5.22,985,972,53,3.08340850076638
16,NS01,27,20,female,continuous,1,16,7477,6.12,2445,5.39,1247,972,80,3.16699638171121
17,NS01,27,20,female,continuous,1,17,7095,5.99,8620,6.04,526,972,6,2.70025864406489
18,NS01,27,20,female,continuous,1,18,5900,5.93,7505,6.1,1207,972,76,2.85036053328076
19,NS01,27,20,female,continuous,1,19,4536,6.01,2010,6.25,593,972,13,4.30015119619202
20,NS01,27,20,female,continuous,1,20,7291,6.35,7057,5.35,497,972,3,3.45012358302483
21,NS01,27,20,female,continuous,1,21,8211,5.76,2382,5.67,1356,972,91,2.35014539712574
22,NS01,27,20,female,continuous,1,22,7080,5.27,7497,5.19,503,972,3,2.33351261343341
23,NS01,27,20,female,continuous,1,23,5635,6.25,2593,5.8,1440,972,100,1.78346943593351
24,NS01,27,20,female,continuous,1,24,2870,5.31,7096,5.54,698,972,23,3.60016417648876
25,NS01,27,20,female,continuous,1,25,7600,5.9,5800,6.36,1405,972,96,1.66697114228737
26,NS01,27,20,female,continuous,1,26,7900,6.5,1650,6.65,509,972,4,2.15016829286469
27,NS01,27,20,female,continuous,1,27,7165,6.09,8260,6.18,500,972,3,1.36679440620355
28,NS01,27,20,female,continuous,1,28,8192,5.52,2377,5.19,1307,972,86,1.6167098240694
29,NS01,27,20,female,continuous,1,29,5390,5.59,1903,5.5,546,972,8,1.96690299583133
30,NS01,27,20,female,continuous,1,30,8312,5.37,5455,5.79,480,972,1,2.15013854642166
31,NS01,27,20,female,continuous,1,31,7354,5.51,2513,5.8,1162,972,71,3.75029280741001
32,NS01,27,20,female,continuous,1,32,7830,5.26,7188,5.5,1440,972,100,3.7502973144874
33,NS01,27,20,female,continuous,1,33,1670,5.82,2500,6.16,920,972,46,1.56677751988173
34,NS01,27,20,female,continuous,1,34,2579,5.53,9156,6.43,480,972,1,1.7334563054028
35,NS01,27,20,female,continuous,1,35,2152,6.93,2374,6.29,1419,972,98,1.6669720436912
36,NS01,27,20,female,continuous,1,36,2489,5.66,8280,6.38,1435,972,99,2.20018953608815
37,NS01,27,20,female,continuous,1,37,2302,6.43,1908,5.28,513,972,4,2.88359605375445
38,NS01,27,20,female,continuous,1,38,4625,6.4,1720,6.79,628,972,16,2.63353611010825
39,NS01,27,20,female,continuous,1,39,8325,5.63,7019,5.2,1440,972,100,1.40023334452417
40,NS01,27,20,female,continuous,1,40,8161,6.71,8251,6.16,579,972,11,3.41680212831125
41,NS01,27,20,female,continuous,1,41,2488,5.73,5510,5.15,560,972,9,2.16681519872509
42,NS01,27,20,female,continuous,1,42,1910,6.71,7300,5.64,607,972,14,1.95014251262182
43,NS01,27,20,female,continuous,1,43,1605,6.59,5622,6.33,519,972,5,1.76686189160682
44,NS01,27,20,female,continuous,1,44,2384,5.92,5301,6.54,1424,972,98,2.43360347533599
45,NS01,27,20,female,continuous,1,45,4100,6.11,8206,6.43,1387,972,95,2.86678839684464
46,NS01,27,20,female,continuous,1,46,7195,6.02,4617,6.6,1440,972,100,2.13352829788346
47,NS01,27,20,female,continuous,1,47,5040,5.39,7546,5.4,1392,972,95,2.50016615953064
48,NS01,27,20,female,continuous,1,48,1850,6.15,7190,5.55,552,972,8,1.38359485188266
49,NS01,27,20,female,continuous,1,49,2606,5.92,7237,5.43,746,972,28,2.86678268789547
50,NS01,27,20,female,continuous,1,50,2435,5.84,8320,6.24,583,972,12,2.43348388851155
51,NS01,27,20,female,binary,2,51,8158,6.53,8040,6.64,1440,972,2,2.81677827105159
52,NS01,27,20,female,binary,2,52,7279,6.22,8341,6.25,480,972,1,1.88357682368951
53,NS01,27,20,female,binary,2,53,7248,5.22,2575,5.46,1440,972,2,1.53357234667055
54,NS01,27,20,female,binary,2,54,2060,6.49,7242,5.28,1440,972,2,1.48354900022969
55,NS01,27,20,female,binary,2,55,7489,6.54,7493,5.35,480,972,1,3.11686696956167
56,NS01,27,20,female,binary,2,56,8117,6.02,5500,5.42,480,972,1,1.30014338396722
57,NS01,27,20,female,binary,2,57,8208,6.79,1419,6.54,1440,972,2,0.966891277523246
58,NS01,27,20,female,binary,2,58,5890,6.67,2032,5.58,480,972,1,2.00011838489445
59,NS01,27,20,female,binary,2,59,4613,5.34,7286,6.36,1440,972,2,1.16679897333961
60,NS01,27,20,female,binary,2,60,7820,5.39,8118,6.14,480,972,1,1.31675904098665
61,NS01,27,20,female,binary,2,61,2980,5.61,8179,6.48,480,972,1,1.71677965315757
62,NS01,27,20,female,binary,2,62,5020,6.32,2392,6.15,480,972,1,1.86682896019192
63,NS01,27,20,female,binary,2,63,2020,5.68,7052,5.33,1440,972,2,1.48338494391646
64,NS01,27,20,female,binary,2,64,7515,6.19,5875,6.03,1440,972,2,1.30014819151256
65,NS01,27,20,female,binary,2,65,7461,5.8,7240,6.02,480,972,1,1.13353160308907
66,NS01,27,20,female,binary,2,66,5750,6.6,7460,6.81,480,972,1,1.01680405129446
67,NS01,27,20,female,binary,2,67,2900,6.62,5726,6.23,1440,972,2,0.900133288174402
68,NS01,27,20,female,binary,2,68,5533,5.31,7053,5.22,1440,972,2,1.0835404068348
69,NS01,27,20,female,binary,2,69,7021,5.21,2235,5.64,1440,972,2,1.40017625538167
70,NS01,27,20,female,binary,2,70,7507,6.25,2037,6.42,480,972,1,1.43352805753238
71,NS01,27,20,female,binary,2,71,2362,6.74,2018,5.56,1440,972,2,0.96685221651569
72,NS01,27,20,female,binary,2,72,2217,6.24,7550,5.27,1440,972,2,1.46685582218925
73,NS01,27,20,female,binary,2,73,5665,6.15,7500,5.33,480,972,1,2.78355927631492
74,NS01,27,20,female,binary,2,74,1660,6.49,1942,6.26,1440,972,2,1.46679753111675
75,NS01,27,20,female,binary,2,75,7496,5.92,8465,5.96,1440,972,2,2.1834675129503
76,NS01,27,20,female,binary,2,76,2511,6.21,5395,5.34,1440,972,2,1.68349185097031
77,NS01,27,20,female,binary,2,77,7530,6.71,7513,5.45,480,972,1,2.05006571265403
78,NS01,27,20,female,binary,2,78,7320,6.54,7182,5.16,480,972,1,1.28348566131899
79,NS01,27,20,female,binary,2,79,5628,6.51,2305,5.41,1440,972,2,1.76680840807967
80,NS01,27,20,female,binary,2,80,2107,5.53,7495,5.9,480,972,1,2.11680447193794
81,NS01,27,20,female,binary,2,81,7033,5.4,5711,6.62,1440,972,2,1.2000528225326
82,NS01,27,20,female,binary,2,82,5471,5.21,7140,5.5,1440,972,2,2.21689293015515
83,NS01,27,20,female,binary,2,83,7352,6.2,2038,5.09,480,972,1,3.63365058897762
84,NS01,27,20,female,binary,2,84,7192,5.77,7042,5.55,480,972,1,1.06676369823981
85,NS01,27,20,female,binary,2,85,2506,5.67,5764,6.74,480,972,1,2.26700852072099
86,NS01,27,20,female,binary,2,86,2036,5.8,7250,6.62,480,972,1,2.28344419650966
87,NS01,27,20,female,binary,2,87,7510,6.05,1560,5.97,1440,972,2,1.28361005563056
88,NS01,27,20,female,binary,2,88,2594,6.05,2092,6.28,480,972,1,1.35025356611004
89,NS01,27,20,female,binary,2,89,4645,6.73,1675,5.24,1440,972,2,1.78351210261462
90,NS01,27,20,female,binary,2,90,2720,5.43,7499,6.47,1440,972,2,1.50018178398022
91,NS01,27,20,female,binary,2,91,8467,6.35,8600,6.38,480,972,1,1.3668379742885
92,NS01,27,20,female,binary,2,92,1640,6.16,7501,6.85,1440,972,2,1.81692309724167
93,NS01,27,20,female,binary,2,93,2273,5.41,7503,5.77,480,972,1,1.06673485320061
94,NS01,27,20,female,binary,2,94,7205,5.56,7475,6.33,1440,972,2,1.3167737639742
95,NS01,27,20,female,binary,2,95,8130,6.58,2880,5.18,480,972,1,1.95020380837377
96,NS01,27,20,female,binary,2,96,7488,6.19,5300,6.91,480,972,1,1.33344020025106
97,NS01,27,20,female,binary,2,97,8311,5.88,7238,6.43,480,972,1,1.48359557299409
98,NS01,27,20,female,binary,2,98,2351,5.49,7632,5.22,1440,972,2,1.73354043689324
99,NS01,27,20,female,binary,2,99,2521,5.78,2342,6.2,1440,972,2,1.36676465976052
100,NS01,27,20,female,binary,2,100,2339,6.72,1900,6.65,1440,972,2,1.73356928193243
101,NS01,27,20,female,likert,3,101,NA,NA,2092,6.28,480,810,1,4.1169622183661
102,NS01,27,20,female,likert,3,102,NA,NA,2384,5.92,480,629.1,3,1.80015600373736
103,NS01,27,20,female,likert,3,103,NA,NA,7530,6.71,480,361.8,6,1.150002433802
104,NS01,27,20,female,likert,3,104,NA,NA,2575,5.46,480,450.9,5,1.4668444042909
105,NS01,27,20,female,likert,3,105,NA,NA,1650,6.65,480,270,7,1.28346162370872
106,NS01,27,20,female,likert,3,106,NA,NA,2235,5.64,480,270,7,1.60009416710818
107,NS01,27,20,female,likert,3,107,NA,NA,2273,5.41,480,361.8,6,2.76679909351515
108,NS01,27,20,female,likert,3,108,NA,NA,7250,6.62,480,718.2,2,3.20013515109895
109,NS01,27,20,female,likert,3,109,NA,NA,2593,5.8,480,361.8,6,1.95013920747442
110,NS01,27,20,female,likert,3,110,NA,NA,1900,6.65,480,361.8,6,1.63337626040448
111,NS01,27,20,female,likert,3,111,NA,NA,7600,5.9,480,540,4,1.93348448944744
112,NS01,27,20,female,likert,3,112,NA,NA,7233,5.09,480,629.1,3,1.65007995493943
113,NS01,27,20,female,likert,3,113,NA,NA,7500,5.33,480,450.9,5,1.73349476553267
114,NS01,27,20,female,likert,3,114,NA,NA,8325,5.63,480,629.1,3,1.33350750542013
115,NS01,27,20,female,likert,3,115,NA,NA,8211,5.76,480,718.2,2,1.46680203813594
116,NS01,27,20,female,likert,3,116,NA,NA,1605,6.59,480,450.9,5,1.83346213452751
117,NS01,27,20,female,likert,3,117,NA,NA,8341,6.25,480,810,1,1.70024602435296
118,NS01,27,20,female,likert,3,118,NA,NA,2374,6.29,480,450.9,5,1.65013253700454
119,NS01,27,20,female,likert,3,119,NA,NA,2217,6.24,480,718.2,2,1.65018992667319
120,NS01,27,20,female,likert,3,120,NA,NA,2010,6.25,480,540,4,1.65009708167054
121,NS01,27,20,female,likert,3,121,NA,NA,8280,6.38,480,450.9,5,1.61686216207454
122,NS01,27,20,female,likert,3,122,NA,NA,2500,6.16,480,629.1,3,1.50013941782527
123,NS01,27,20,female,likert,3,123,NA,NA,8161,6.71,480,718.2,2,2.26683214516379
124,NS01,27,20,female,likert,3,124,NA,NA,7515,6.19,480,810,1,2.50022204685956
125,NS01,27,20,female,likert,3,125,NA,NA,5395,5.34,480,540,4,3.31680321000749
126,NS01,27,20,female,likert,3,126,NA,NA,2342,6.2,480,361.8,6,2.43348298710771
127,NS01,27,20,female,likert,3,127,NA,NA,7632,5.22,480,629.1,3,1.66691194986925
128,NS01,27,20,female,likert,3,128,NA,NA,4536,6.01,480,540,4,1.283466731722
129,NS01,27,20,female,likert,3,129,NA,NA,9156,6.43,480,718.2,2,1.48355380777502
130,NS01,27,20,female,likert,3,130,NA,NA,7300,5.64,480,450.9,5,1.45003374275984
131,NS01,27,20,female,likert,3,131,NA,NA,1942,6.26,480,270,7,1.30013016331941
132,NS01,27,20,female,likert,3,132,NA,NA,2870,5.31,480,361.8,6,2.51677430479322
133,NS01,27,20,female,likert,3,133,NA,NA,7291,6.35,480,450.9,5,1.71683403814677
134,NS01,27,20,female,likert,3,134,NA,NA,7510,6.05,480,270,7,1.60034115292365
135,NS01,27,20,female,likert,3,135,NA,NA,7190,5.55,480,629.1,3,1.43362811382394
136,NS01,27,20,female,likert,3,136,NA,NA,7165,6.09,480,450.9,5,1.38344551855698
137,NS01,27,20,female,likert,3,137,NA,NA,7096,5.54,480,629.1,3,2.16677824093495
138,NS01,27,20,female,likert,3,138,NA,NA,7488,6.19,480,540,4,1.15010008634999
139,NS01,27,20,female,likert,3,139,NA,NA,5520,5.33,480,810,1,1.5336381495581
140,NS01,27,20,female,likert,3,140,NA,NA,2036,5.8,480,718.2,2,2.4168228606577
141,NS01,27,20,female,likert,3,141,NA,NA,7352,6.2,480,629.1,3,1.68361774762161
142,NS01,27,20,female,likert,3,142,NA,NA,5764,6.74,480,361.8,6,1.58348241623025
143,NS01,27,20,female,likert,3,143,NA,NA,2107,5.53,480,540,4,1.65018421784043
144,NS01,27,20,female,likert,3,144,NA,NA,5870,6.78,480,270,7,1.28349918237654
145,NS01,27,20,female,likert,3,145,NA,NA,1947,5.85,480,361.8,6,1.50019830977544
146,NS01,27,20,female,likert,3,146,NA,NA,5628,6.51,480,270,7,1.88356240116991
147,NS01,27,20,female,likert,3,147,NA,NA,7820,5.39,480,629.1,3,1.40013178589288
148,NS01,27,20,female,likert,3,148,NA,NA,5500,5.42,480,810,1,1.10028466471704
149,NS01,27,20,female,likert,3,149,NA,NA,7354,5.51,480,718.2,2,1.9002026966773
150,NS01,27,20,female,likert,3,150,NA,NA,4645,6.73,480,629.1,3,2.1169583122828
151,NS01,27,20,female,likert,3,151,NA,NA,2377,5.19,480,450.9,5,2.21678536204854
152,NS01,27,20,female,likert,3,152,NA,NA,7242,5.28,480,450.9,5,3.51685813581571
153,NS01,27,20,female,likert,3,153,NA,NA,5800,6.36,480,270,7,6.01686504657846
154,NS01,27,20,female,likert,3,154,NA,NA,5533,5.31,480,810,1,1.00008683570195
155,NS01,27,20,female,likert,3,155,NA,NA,5890,6.67,480,450.9,5,2.08366089506308
156,NS01,27,20,female,likert,3,156,NA,NA,2032,5.58,480,629.1,3,2.50006430048961
157,NS01,27,20,female,likert,3,157,NA,NA,7140,5.5,480,718.2,2,2.20015828724718
158,NS01,27,20,female,likert,3,158,NA,NA,8158,6.53,480,270,7,1.2501347605139
159,NS01,27,20,female,likert,3,159,NA,NA,7507,6.25,480,361.8,6,2.6334676030674
160,NS01,27,20,female,likert,3,160,NA,NA,7080,5.27,480,718.2,2,1.56689019588521
161,NS01,27,20,female,likert,3,161,NA,NA,7505,6.1,480,810,1,2.08350795612205
162,NS01,27,20,female,likert,3,162,NA,NA,2382,5.67,480,361.8,6,1.71679768135073
163,NS01,27,20,female,likert,3,163,NA,NA,7477,6.12,480,718.2,2,2.70013274735538
164,NS01,27,20,female,likert,3,164,NA,NA,7497,5.19,480,718.2,2,4.15017640561564
165,NS01,27,20,female,likert,3,165,NA,NA,8206,6.43,480,540,4,4.51696690567769
166,NS01,27,20,female,likert,3,166,NA,NA,7095,5.99,480,629.1,3,4.21689202875132
167,NS01,27,20,female,likert,3,167,NA,NA,7490,5.52,480,270,7,1.58351456641685
168,NS01,27,20,female,likert,3,168,NA,NA,1850,6.15,480,270,7,1.08362724247854
169,NS01,27,20,female,likert,3,169,NA,NA,7039,5.93,480,270,7,1.16690774331801
170,NS01,27,20,female,likert,3,170,NA,NA,7320,6.54,480,361.8,6,2.18352309975307
171,NS01,27,20,female,likert,3,171,NA,NA,7033,5.4,480,718.2,2,1.33336297963979
172,NS01,27,20,female,likert,3,172,NA,NA,5720,6.31,480,361.8,6,1.13349013827974
173,NS01,27,20,female,likert,3,173,NA,NA,5849,6.65,480,629.1,3,1.4501265877625
174,NS01,27,20,female,likert,3,174,NA,NA,2392,6.15,480,718.2,2,1.40005787042901
175,NS01,27,20,female,likert,3,175,NA,NA,5390,5.59,480,718.2,2,3.65004930703435
176,NS01,27,20,female,likert,3,176,NA,NA,2102,5.16,480,810,1,1.75009509857045
177,NS01,27,20,female,likert,3,177,NA,NA,1908,5.28,480,361.8,6,2.71678956865799
178,NS01,27,20,female,likert,3,178,NA,NA,2506,5.67,480,718.2,2,2.18345819838578
179,NS01,27,20,female,likert,3,179,NA,NA,2594,6.05,480,361.8,6,3.91677448508563
180,NS01,27,20,female,likert,3,180,NA,NA,5711,6.62,480,361.8,6,2.68337196367793
181,NS01,27,20,female,likert,3,181,NA,NA,2511,6.21,480,718.2,2,1.58343764627352
182,NS01,27,20,female,likert,3,182,NA,NA,7238,6.43,480,810,1,1.53361771762138
183,NS01,27,20,female,likert,3,183,NA,NA,2489,5.66,480,718.2,2,3.53357384906849
184,NS01,27,20,female,likert,3,184,NA,NA,2515,6.09,480,361.8,6,3.06677812075941
185,NS01,27,20,female,likert,3,185,NA,NA,8117,6.02,480,718.2,2,3.25019695772789
186,NS01,27,20,female,likert,3,186,NA,NA,2302,6.43,480,361.8,6,1.83343989978312
187,NS01,27,20,female,likert,3,187,NA,NA,8600,6.38,480,718.2,2,2.43353136273799
188,NS01,27,20,female,likert,3,188,NA,NA,2351,5.49,480,540,4,1.63346489885589
189,NS01,27,20,female,likert,3,189,NA,NA,8312,5.37,480,540,4,1.76683665224118
190,NS01,27,20,female,likert,3,190,NA,NA,2720,5.43,480,718.2,2,1.7500344037544
191,NS01,27,20,female,likert,3,191,NA,NA,7248,5.22,480,810,1,1.41689617518568
192,NS01,27,20,female,likert,3,192,NA,NA,5875,6.03,480,270,7,2.68361294013448
193,NS01,27,20,female,likert,3,193,NA,NA,7053,5.22,480,361.8,6,1.16677794052521
194,NS01,27,20,female,likert,3,194,NA,NA,7513,5.45,480,718.2,2,1.73353562940611
195,NS01,27,20,female,likert,3,195,NA,NA,4617,6.6,480,270,7,2.26674621092388
196,NS01,27,20,female,likert,3,196,NA,NA,7182,5.16,480,718.2,2,1.03345366130816
197,NS01,27,20,female,likert,3,197,NA,NA,8465,5.96,480,361.8,6,1.2668060043361
198,NS01,27,20,female,likert,3,198,NA,NA,2597,5.61,480,810,1,2.88344882376259
199,NS01,27,20,female,likert,3,199,NA,NA,5950,5.99,480,718.2,2,3.48355380771682
200,NS01,27,20,female,likert,3,200,NA,NA,7496,5.92,480,540,4,3.28357730444986
201,NS01,27,20,female,likert,3,1,NA,NA,7546,5.4,480,450.9,5,3.18355194485048
202,NS01,27,20,female,likert,3,2,NA,NA,8179,6.48,480,810,1,2.61675940151326
203,NS01,27,20,female,likert,3,3,NA,NA,1910,6.71,480,361.8,6,1.48351474670926
204,NS01,27,20,female,likert,3,4,NA,NA,2980,5.61,480,540,4,2.65023529756581
205,NS01,27,20,female,likert,3,5,NA,NA,7237,5.43,480,810,1,1.36680281936424
206,NS01,27,20,female,likert,3,6,NA,NA,4625,6.4,480,450.9,5,2.28344059089432
207,NS01,27,20,female,likert,3,7,NA,NA,7495,5.9,480,718.2,2,3.95019178959774
208,NS01,27,20,female,likert,3,8,NA,NA,8208,6.79,480,810,1,1.21685086440993
209,NS01,27,20,female,likert,3,9,NA,NA,8192,5.52,480,810,1,1.30030924308812
210,NS01,27,20,female,likert,3,10,NA,NA,2019,6.07,480,450.9,5,1.50014692952391
211,NS01,27,20,female,likert,3,11,NA,NA,5455,5.79,480,810,1,1.05016516806791
212,NS01,27,20,female,likert,3,12,NA,NA,8260,6.18,480,718.2,2,1.28352442180039
213,NS01,27,20,female,likert,3,13,NA,NA,7499,6.47,480,810,1,1.66682992171263
214,NS01,27,20,female,likert,3,14,NA,NA,5020,6.32,480,270,7,1.15005711925915
215,NS01,27,20,female,likert,3,15,NA,NA,2037,6.42,480,450.9,5,2.18331126886187
216,NS01,27,20,female,likert,3,16,NA,NA,1560,5.97,480,361.8,6,1.76686850195983
217,NS01,27,20,female,likert,3,17,NA,NA,5593,6.47,480,810,1,1.46679452637909
218,NS01,27,20,female,likert,3,18,NA,NA,2038,5.09,480,810,1,1.75028799992288
219,NS01,27,20,female,likert,3,19,NA,NA,1903,5.5,480,540,4,1.8002428393811
220,NS01,27,20,female,likert,3,20,NA,NA,7493,5.35,480,629.1,3,4.08347881061491
221,NS01,27,20,female,likert,3,21,NA,NA,5665,6.15,480,540,4,4.48353968572337
222,NS01,27,20,female,likert,3,22,NA,NA,7461,5.8,480,718.2,2,1.86680402123602
223,NS01,27,20,female,likert,3,23,NA,NA,7279,6.22,480,810,1,1.28354064718587
224,NS01,27,20,female,likert,3,24,NA,NA,7286,6.36,480,450.9,5,2.53348731389269
225,NS01,27,20,female,likert,3,25,NA,NA,7052,5.33,480,540,4,2.7669391122763
226,NS01,27,20,female,likert,3,26,NA,NA,7900,6.5,480,270,7,1.86673731706105
227,NS01,27,20,female,likert,3,27,NA,NA,5040,5.39,480,629.1,3,1.36675594613189
228,NS01,27,20,female,likert,3,28,NA,NA,2606,5.92,480,718.2,2,1.53348821529653
229,NS01,27,20,female,likert,3,29,NA,NA,2308,5.22,480,810,1,2.13344086130382
230,NS01,27,20,female,likert,3,30,NA,NA,2521,5.78,480,540,4,1.95016955485335
231,NS01,27,20,female,likert,3,31,NA,NA,8467,6.35,480,450.9,5,1.55033583467593
232,NS01,27,20,female,likert,3,32,NA,NA,2445,5.39,480,629.1,3,1.83364572131541
233,NS01,27,20,female,likert,3,33,NA,NA,7830,5.26,480,810,1,0.983537281921599
234,NS01,27,20,female,likert,3,34,NA,NA,2339,6.72,480,540,4,2.96680864848895
235,NS01,27,20,female,likert,3,35,NA,NA,7057,5.35,480,450.9,5,1.60028857080033
236,NS01,27,20,female,likert,3,36,NA,NA,2513,5.8,480,361.8,6,1.75014437554637
237,NS01,27,20,female,likert,3,37,NA,NA,5530,5.38,480,810,1,1.23349897208391
238,NS01,27,20,female,likert,3,38,NA,NA,2152,6.93,480,540,4,2.68349936266895
239,NS01,27,20,female,likert,3,39,NA,NA,8130,6.58,480,629.1,3,2.30006225721445
240,NS01,27,20,female,likert,3,40,NA,NA,4598,6.33,480,718.2,2,2.33352613449097
241,NS01,27,20,female,likert,3,41,NA,NA,7183,5.58,480,810,1,1.0834860218456
242,NS01,27,20,female,likert,3,42,NA,NA,8118,6.14,480,810,1,1.36680942965904
243,NS01,27,20,female,likert,3,43,NA,NA,7475,6.33,480,450.9,5,1.58348181529436
244,NS01,27,20,female,likert,3,44,NA,NA,5750,6.6,480,270,7,1.2168211179669
245,NS01,27,20,female,likert,3,45,NA,NA,7240,6.02,480,540,4,1.73360533826053
246,NS01,27,20,female,likert,3,46,NA,NA,6250,6.32,480,810,1,1.10031290887855
247,NS01,27,20,female,likert,3,47,NA,NA,5635,6.25,480,718.2,2,2.15015837742249
248,NS01,27,20,female,likert,3,48,NA,NA,2018,5.56,480,361.8,6,1.36670186166884
249,NS01,27,20,female,likert,3,49,NA,NA,5900,5.93,480,361.8,6,3.61684473481728
250,NS01,27,20,female,likert,3,50,NA,NA,7501,6.85,480,718.2,2,1.58349353354424
251,NS01,27,20,female,likert,3,1,NA,NA,1419,6.54,480,540,4,2.1334964481066
252,NS01,27,20,female,likert,3,2,NA,NA,1810,6.52,480,450.9,5,2.55027033231454
253,NS01,27,20,female,likert,3,3,NA,NA,7042,5.55,480,629.1,3,1.25021047878545
254,NS01,27,20,female,likert,3,4,NA,NA,8311,5.88,480,629.1,3,1.65011270606192
255,NS01,27,20,female,likert,3,5,NA,NA,7188,5.5,480,629.1,3,1.450122681621
256,NS01,27,20,female,likert,3,6,NA,NA,4100,6.11,480,450.9,5,2.60031290882034
257,NS01,27,20,female,likert,3,7,NA,NA,7019,5.2,480,629.1,3,1.76670294330688
258,NS01,27,20,female,likert,3,8,NA,NA,5510,5.15,480,810,1,1.10033904970624
259,NS01,27,20,female,likert,3,9,NA,NA,1670,5.82,480,629.1,3,2.15018812386552
260,NS01,27,20,female,likert,3,10,NA,NA,7192,5.77,480,361.8,6,1.76682613574667
261,NS01,27,20,female,likert,3,11,NA,NA,7620,5.78,480,629.1,3,2.28345471294597
262,NS01,27,20,female,likert,3,12,NA,NA,5300,6.91,480,361.8,6,1.91687333956361
263,NS01,27,20,female,likert,3,13,NA,NA,2359,5.87,480,629.1,3,1.93346345663304
264,NS01,27,20,female,likert,3,14,NA,NA,1660,6.49,480,361.8,6,1.60009116242873
265,NS01,27,20,female,likert,3,15,NA,NA,7509,6.03,480,450.9,5,2.90006598306354
266,NS01,27,20,female,likert,3,16,NA,NA,8251,6.16,480,540,4,0.766888332960662
267,NS01,27,20,female,likert,3,17,NA,NA,2060,6.49,480,450.9,5,2.0002157369745
268,NS01,27,20,female,likert,3,18,NA,NA,7550,5.27,480,718.2,2,1.31694443058223
269,NS01,27,20,female,likert,3,19,NA,NA,2560,6.34,480,540,4,2.03345967066707
270,NS01,27,20,female,likert,3,20,NA,NA,7001,5.32,480,718.2,2,1.75012454460375
271,NS01,27,20,female,likert,3,21,NA,NA,2362,6.74,480,810,1,1.63352469226811
272,NS01,27,20,female,likert,3,22,NA,NA,2605,6.26,480,810,1,1.08358728006715
273,NS01,27,20,female,likert,3,23,NA,NA,5301,6.54,480,361.8,6,2.63351207255619
274,NS01,27,20,female,likert,3,24,NA,NA,2900,6.62,480,540,4,3.60006231733132
275,NS01,27,20,female,likert,3,25,NA,NA,2020,5.68,480,718.2,2,1.56684873107588
276,NS01,27,20,female,likert,3,26,NA,NA,7195,6.02,480,718.2,2,2.25006144598592
277,NS01,27,20,female,likert,3,27,NA,NA,2435,5.84,480,718.2,2,1.85027640179032
278,NS01,27,20,female,likert,3,28,NA,NA,7489,6.54,480,718.2,2,2.18361294013448
279,NS01,27,20,female,likert,3,29,NA,NA,2579,5.53,480,450.9,5,2.23363718797918
280,NS01,27,20,female,likert,3,30,NA,NA,5622,6.33,480,270,7,1.75013355864212
281,NS01,27,20,female,likert,3,31,NA,NA,2880,5.18,480,629.1,3,1.83349428477231
282,NS01,27,20,female,likert,3,32,NA,NA,1720,6.79,480,270,7,1.35029833606677
283,NS01,27,20,female,likert,3,33,NA,NA,1675,5.24,480,540,4,1.28341204632306
284,NS01,27,20,female,likert,3,34,NA,NA,5740,5.21,480,361.8,6,1.33347084815614
285,NS01,27,20,female,likert,3,35,NA,NA,5731,5.39,480,270,7,1.43344873358728
286,NS01,27,20,female,likert,3,36,NA,NA,8193,6.73,480,718.2,2,1.18350116547663
287,NS01,27,20,female,likert,3,37,NA,NA,2305,5.41,480,450.9,5,1.56685564183863
288,NS01,27,20,female,likert,3,38,NA,NA,8620,6.04,480,629.1,3,1.83342367445584
289,NS01,27,20,female,likert,3,39,NA,NA,1640,6.16,480,270,7,1.6336190396687
290,NS01,27,20,female,likert,3,40,NA,NA,7460,6.81,480,810,1,1.35012105916394
291,NS01,27,20,female,likert,3,41,NA,NA,5726,6.23,480,270,7,0.900228837446775
292,NS01,27,20,female,likert,3,42,NA,NA,7503,5.77,480,810,1,1.6501427530311
293,NS01,27,20,female,likert,3,43,NA,NA,2488,5.73,480,810,1,1.43355810444336
294,NS01,27,20,female,likert,3,44,NA,NA,8320,6.24,480,810,1,2.21688451699447
295,NS01,27,20,female,likert,3,45,NA,NA,7021,5.21,480,810,1,2.18351048004115
296,NS01,27,20,female,likert,3,46,NA,NA,5626,6.71,480,270,7,3.90022613323526
297,NS01,27,20,female,likert,3,47,NA,NA,5471,5.21,480,718.2,2,1.45009203377413
298,NS01,27,20,female,likert,3,48,NA,NA,7205,5.56,480,270,7,3.65012081869645
299,NS01,27,20,female,likert,3,49,NA,NA,4613,5.34,480,718.2,2,1.6168723780429
300,NS01,27,20,female,likert,3,50,NA,NA,8040,6.64,480,629.1,3,2.53359277860727
