rowN,DAU,participantN,age,gender,task,taskOrder,trial,lImage,lValue,rImage,rValue,xBoxPos,yBoxPos,response,RT
1,NS01,30,47,F,binary,1,1,2445,5.39,2900,6.62,1440,972,2,3.85014689946547
2,NS01,30,47,F,binary,1,2,7489,6.54,5800,6.36,1440,972,2,5.63353160308907
3,NS01,30,47,F,binary,1,3,2593,5.8,2513,5.8,1440,972,2,3.80017463280819
4,NS01,30,47,F,binary,1,4,2308,5.22,5530,5.38,1440,972,2,3.18364088376984
5,NS01,30,47,F,binary,1,5,2435,5.84,7475,6.33,1440,972,2,2.73368045559619
6,NS01,30,47,F,binary,1,6,2980,5.61,1908,5.28,480,972,1,2.45019719802076
7,NS01,30,47,F,binary,1,7,7183,5.58,1660,6.49,1440,972,2,1.95006919809384
8,NS01,30,47,F,binary,1,8,7503,5.77,1675,5.24,1440,972,2,4.43359295895789
9,NS01,30,47,F,binary,1,9,1900,6.65,8325,5.63,480,972,1,1.61692135455087
10,NS01,30,47,F,binary,1,10,7057,5.35,1640,6.16,1440,972,2,2.58354671671987
11,NS01,30,47,F,binary,1,11,8250,6.19,2597,5.61,1440,972,2,4.20021958305733
12,NS01,30,47,F,binary,1,12,5740,5.21,7496,5.92,480,972,1,2.26686669915216
13,NS01,30,47,F,binary,1,13,4613,5.34,2374,6.29,1440,972,2,2.01695638929959
14,NS01,30,47,F,binary,1,14,7440,6.32,5500,5.42,1440,972,2,2.20024812762858
15,NS01,30,47,F,binary,1,15,5410,6.11,7248,5.22,480,972,1,2.50017006567214
16,NS01,30,47,F,binary,1,16,7499,6.47,7026,5.38,1440,972,2,2.41694064467447
17,NS01,30,47,F,binary,1,17,5628,6.51,2880,5.18,480,972,1,3.18352159741335
18,NS01,30,47,F,binary,1,18,2594,6.05,8161,6.71,480,972,1,3.23351489700144
19,NS01,30,47,F,binary,1,19,8312,5.37,1616,5.21,1440,972,2,2.30029091448523
20,NS01,30,47,F,binary,1,20,2389,6.61,7512,5.38,1440,972,2,4.4001338891685
21,NS01,30,47,F,binary,1,21,5731,5.39,7490,5.52,480,972,1,2.33351862279233
22,NS01,30,47,F,binary,1,22,7493,5.35,5635,6.25,480,972,1,5.38368469220586
23,NS01,30,47,F,binary,1,23,7390,6.84,1810,6.52,1440,972,2,3.25012845068704
24,NS01,30,47,F,binary,1,24,2392,6.15,5870,6.78,1440,972,2,2.11680056579644
25,NS01,30,47,F,binary,1,25,7205,5.56,8341,6.25,480,972,1,2.95022243750282
26,NS01,30,47,F,binary,1,26,7450,6.4,1670,5.82,1440,972,2,1.81678247760283
27,NS01,30,47,F,binary,1,27,8117,6.02,7238,6.43,1440,972,2,2.36702516669175
28,NS01,30,47,F,binary,1,28,5875,6.03,5455,5.79,480,972,1,3.00028845056659
29,NS01,30,47,F,binary,1,29,2358,6.56,8620,6.04,480,972,1,2.01682177901966
30,NS01,30,47,F,binary,1,30,8280,6.38,1850,6.15,1440,972,2,1.70022829662776
31,NS01,30,47,F,binary,1,31,7042,5.55,8260,6.18,1440,972,2,2.13342283316888
32,NS01,30,47,F,binary,1,32,1910,6.71,5720,6.31,1440,972,2,1.41679762123385
33,NS01,30,47,F,binary,1,33,4617,6.6,8193,6.73,480,972,1,3.41698120802175
34,NS01,30,47,F,binary,1,34,7477,6.12,5533,5.31,1440,972,2,2.53360149229411
35,NS01,30,47,F,binary,1,35,1942,6.26,2515,6.09,480,972,1,2.98357093450613
36,NS01,30,47,F,binary,1,36,5622,6.33,7286,6.36,1440,972,2,2.81677286257036
37,NS01,30,47,F,binary,1,37,7488,6.19,2339,6.72,480,972,1,2.43348088383209
38,NS01,30,47,F,binary,1,38,2018,5.56,7001,5.32,480,972,1,2.18348403880373
39,NS01,30,47,F,binary,1,39,8211,5.76,2122,5.15,480,972,1,2.08351847255835
40,NS01,30,47,F,binary,1,40,1650,6.65,7451,6.68,1440,972,2,3.40013899712358
41,NS01,30,47,F,binary,1,41,7509,6.03,8320,6.24,480,972,1,4.9002886309172
42,NS01,30,47,F,binary,1,42,8467,6.35,7547,5.21,480,972,1,2.08352508291136
43,NS01,30,47,F,binary,1,43,2870,5.31,5250,6.08,1440,972,2,1.383495396527
44,NS01,30,47,F,binary,1,44,5215,6.83,2514,5.19,1440,972,2,3.30018815392395
45,NS01,30,47,F,binary,1,45,7515,6.19,2579,5.53,1440,972,2,2.40020269661909
46,NS01,30,47,F,binary,1,46,2511,6.21,7461,5.8,1440,972,2,2.91689707664773
47,NS01,30,47,F,binary,1,47,7291,6.35,7660,6.61,480,972,1,1.85021300270455
48,NS01,30,47,F,binary,1,48,2377,5.19,4536,6.01,480,972,1,1.91682225972181
49,NS01,30,47,F,binary,1,49,8205,6.62,7510,6.05,1440,972,2,4.06681567948544
50,NS01,30,47,F,binary,1,50,4625,6.4,8179,6.48,480,972,1,2.63362895516912
51,NS01,30,47,F,continuous,2,51,8040,6.64,1560,5.97,766,972,30,4.40011856524507
52,NS01,30,47,F,continuous,2,52,7320,6.54,2342,6.2,933,972,48,7.46694596298039
53,NS01,30,47,F,continuous,2,53,5665,6.15,2152,6.93,703,972,24,2.88359094574116
54,NS01,30,47,F,continuous,2,54,2351,5.49,7460,6.81,1195,972,75,4.60014975391096
55,NS01,30,47,F,continuous,2,55,1903,5.5,7472,6.25,1373,972,93,3.61690603056923
56,NS01,30,47,F,continuous,2,56,1595,6.22,7061,5.4,828,972,37,4.16680768696824
57,NS01,30,47,F,continuous,2,57,8251,6.16,2720,5.43,605,972,14,3.93348929699278
58,NS01,30,47,F,continuous,2,58,2560,6.34,2020,5.68,725,972,26,3.18355254578637
59,NS01,30,47,F,continuous,2,59,9156,6.43,7237,5.43,1088,972,64,3.43351934390375
60,NS01,30,47,F,continuous,2,60,5531,5.15,7033,5.4,1134,972,68,3.95025939523475
61,NS01,30,47,F,continuous,2,61,1450,6.37,7506,5.34,524,972,6,2.48352466226788
62,NS01,30,47,F,continuous,2,62,8206,6.43,2302,6.43,1162,972,71,6.31698349164799
63,NS01,30,47,F,continuous,2,63,2273,5.41,2357,5.41,838,972,38,3.38356871105498
64,NS01,30,47,F,continuous,2,64,2620,5.93,8191,6.07,1237,972,79,2.20017541403649
65,NS01,30,47,F,continuous,2,65,7140,5.5,2032,5.58,958,972,50,3.91680573392659
66,NS01,30,47,F,continuous,2,66,7188,5.5,2411,5.07,868,972,41,2.98360488755861
67,NS01,30,47,F,continuous,2,67,5849,6.65,7165,6.09,728,972,27,3.36680492263986
68,NS01,30,47,F,continuous,2,68,5950,5.99,2489,5.66,722,972,26,3.73345179844182
69,NS01,30,47,F,continuous,2,69,6250,6.32,2575,5.46,958,972,50,2.20022829662776
70,NS01,30,47,F,continuous,2,70,2036,5.8,4619,6.46,1063,972,61,4.48349311295897
71,NS01,30,47,F,continuous,2,71,7340,6.68,2235,5.64,1121,972,67,3.65023199241841
72,NS01,30,47,F,continuous,2,72,2305,5.41,7351,5.82,782,972,32,3.70014777081087
73,NS01,30,47,F,continuous,2,73,8130,6.58,4100,6.11,1106,972,66,3.28358511667466
74,NS01,30,47,F,continuous,2,74,5395,5.34,7354,5.51,787,972,33,5.41681264474755
75,NS01,30,47,F,continuous,2,75,5900,5.93,2037,6.42,799,972,34,4.75011402816745
76,NS01,30,47,F,continuous,2,76,2010,6.25,2384,5.92,859,972,40,4.33347866038093
77,NS01,30,47,F,continuous,2,77,1659,6.57,2605,6.26,1044,972,59,4.71696444181725
78,NS01,30,47,F,continuous,2,78,7014,5.15,8021,6.79,1072,972,62,3.4667978315847
79,NS01,30,47,F,continuous,2,79,7182,5.16,5750,6.6,1161,972,71,2.51689178834204
80,NS01,30,47,F,continuous,2,80,2102,5.16,7017,5.18,836,972,38,3.46692072355654
81,NS01,30,47,F,continuous,2,81,2025,5.78,1333,6.11,849,972,39,6.08349924255162
82,NS01,30,47,F,continuous,2,82,7620,5.78,1640,6.27,1197,972,75,4.98353277490241
83,NS01,30,47,F,continuous,2,83,7096,5.54,5661,5.96,1242,972,80,2.36687312921276
84,NS01,30,47,F,continuous,2,84,4645,6.73,7546,5.4,1001,972,55,4.95011126378085
85,NS01,30,47,F,continuous,2,85,7100,5.24,7039,5.93,1085,972,63,4.98361540399492
86,NS01,30,47,F,continuous,2,86,2217,6.24,4598,6.33,804,972,34,6.40019548538839
87,NS01,30,47,F,continuous,2,87,7021,5.21,7830,5.26,1099,972,65,3.96680504281539
88,NS01,30,47,F,continuous,2,88,5390,5.59,7505,6.1,678,972,21,3.08372459455859
89,NS01,30,47,F,continuous,2,89,7080,5.27,7242,5.28,1169,972,72,2.43345744727412
90,NS01,30,47,F,continuous,2,90,1947,5.85,7250,6.62,848,972,39,3.40019969193963
91,NS01,30,47,F,continuous,2,91,7053,5.22,7019,5.2,952,972,50,3.93347757868469
92,NS01,30,47,F,continuous,2,92,7240,6.02,7900,6.5,1014,972,56,3.58357466035523
93,NS01,30,47,F,continuous,2,93,7482,6.36,2372,5.48,892,972,43,4.83348587166984
94,NS01,30,47,F,continuous,2,94,7632,5.22,7530,6.71,1167,972,72,5.53351435612421
95,NS01,30,47,F,continuous,2,95,5990,6.54,7495,5.9,805,972,35,5.03351796179777
96,NS01,30,47,F,continuous,2,96,5510,5.15,7279,6.22,800,972,34,3.58351336460328
97,NS01,30,47,F,continuous,2,97,2359,5.87,4600,6.41,883,972,43,3.48347418336198
98,NS01,30,47,F,continuous,2,98,2488,5.73,8118,6.14,857,972,40,3.13350215711398
99,NS01,30,47,F,continuous,2,99,7550,5.27,8465,5.96,1062,972,61,3.71689833857818
100,NS01,30,47,F,continuous,2,100,5890,6.67,7095,5.99,847,972,39,2.63351928378688
101,NS01,30,47,F,likert,3,101,NA,NA,8325,5.63,480,718.2,2,9.40023454639595
102,NS01,30,47,F,likert,3,102,NA,NA,7530,6.71,480,540,4,4.46680774708511
103,NS01,30,47,F,likert,3,103,NA,NA,4625,6.4,480,450.9,5,1.73358039930463
104,NS01,30,47,F,likert,3,104,NA,NA,5990,6.54,480,540,4,2.88351162185427
105,NS01,30,47,F,likert,3,105,NA,NA,2358,6.56,480,540,4,2.5168154691346
106,NS01,30,47,F,likert,3,106,NA,NA,5900,5.93,480,540,4,1.9669453620445
107,NS01,30,47,F,likert,3,107,NA,NA,4536,6.01,480,629.1,3,2.16677163064014
108,NS01,30,47,F,likert,3,108,NA,NA,2392,6.15,480,718.2,2,7.08357706404058
109,NS01,30,47,F,likert,3,109,NA,NA,8118,6.14,480,629.1,3,4.98349161061924
110,NS01,30,47,F,likert,3,110,NA,NA,2152,6.93,480,629.1,3,3.80026146845194
111,NS01,30,47,F,likert,3,111,NA,NA,7095,5.99,480,629.1,3,2.11684022779809
112,NS01,30,47,F,likert,3,112,NA,NA,9156,6.43,480,629.1,3,1.86679350479972
113,NS01,30,47,F,likert,3,113,NA,NA,5870,6.78,480,540,4,1.38349749974441
114,NS01,30,47,F,likert,3,114,NA,NA,7660,6.61,480,629.1,3,3.03340979281347
115,NS01,30,47,F,likert,3,115,NA,NA,7482,6.36,480,629.1,3,2.28357940778369
116,NS01,30,47,F,likert,3,116,NA,NA,7014,5.15,480,629.1,3,2.61691774887731
117,NS01,30,47,F,likert,3,117,NA,NA,7250,6.62,480,540,4,2.46681796305347
118,NS01,30,47,F,likert,3,118,NA,NA,2359,5.87,480,540,4,3.25024413136998
119,NS01,30,47,F,likert,3,119,NA,NA,7499,6.47,480,540,4,1.80018394737272
120,NS01,30,47,F,likert,3,120,NA,NA,2597,5.61,480,629.1,3,3.91673452267423
121,NS01,30,47,F,likert,3,121,NA,NA,5635,6.25,480,629.1,3,4.13339879561681
122,NS01,30,47,F,likert,3,122,NA,NA,7550,5.27,480,718.2,2,4.80018605064834
123,NS01,30,47,F,likert,3,123,NA,NA,1675,5.24,480,629.1,3,2.35013848630479
124,NS01,30,47,F,likert,3,124,NA,NA,8250,6.19,480,718.2,2,2.46672541846056
125,NS01,30,47,F,likert,3,125,NA,NA,7340,6.68,480,629.1,3,2.4001771567855
126,NS01,30,47,F,likert,3,126,NA,NA,5395,5.34,480,540,4,4.11668188043404
127,NS01,30,47,F,likert,3,127,NA,NA,8341,6.25,480,629.1,3,1.86674002127256
128,NS01,30,47,F,likert,3,128,NA,NA,1660,6.49,480,629.1,3,1.76689043623628
129,NS01,30,47,F,likert,3,129,NA,NA,7021,5.21,480,718.2,2,2.33362558990484
130,NS01,30,47,F,likert,3,130,NA,NA,8205,6.62,480,629.1,3,1.96680804755306
131,NS01,30,47,F,likert,3,131,NA,NA,2308,5.22,480,540,4,2.38343920878833
132,NS01,30,47,F,likert,3,132,NA,NA,7490,5.52,480,540,4,3.00022955861641
133,NS01,30,47,F,likert,3,133,NA,NA,5661,5.96,480,450.9,5,1.90011766378302
134,NS01,30,47,F,likert,3,134,NA,NA,7506,5.34,480,629.1,3,4.30017944035353
135,NS01,30,47,F,likert,3,135,NA,NA,2357,5.41,480,629.1,3,2.61678704473889
136,NS01,30,47,F,likert,3,136,NA,NA,5890,6.67,480,629.1,3,2.06676309730392
137,NS01,30,47,F,likert,3,137,NA,NA,2605,6.26,480,629.1,3,3.70012463466264
138,NS01,30,47,F,likert,3,138,NA,NA,5628,6.51,480,540,4,1.20016069104895
139,NS01,30,47,F,likert,3,139,NA,NA,2037,6.42,480,540,4,2.85013608256122
140,NS01,30,47,F,likert,3,140,NA,NA,2339,6.72,480,540,4,3.06692565121921
141,NS01,30,47,F,likert,3,141,NA,NA,2870,5.31,480,540,4,3.61686546728015
142,NS01,30,47,F,likert,3,142,NA,NA,2374,6.29,480,540,4,5.15020735393045
143,NS01,30,47,F,likert,3,143,NA,NA,2514,5.19,480,540,4,2.33346243499545
144,NS01,30,47,F,likert,3,144,NA,NA,7503,5.77,480,629.1,3,5.31688553863205
145,NS01,30,47,F,likert,3,145,NA,NA,8312,5.37,480,629.1,3,2.08356354298303
146,NS01,30,47,F,likert,3,146,NA,NA,2389,6.61,480,629.1,3,2.3335138153052
147,NS01,30,47,F,likert,3,147,NA,NA,2342,6.2,480,540,4,1.86692541086813
148,NS01,30,47,F,likert,3,148,NA,NA,7509,6.03,480,629.1,3,2.93358334386721
149,NS01,30,47,F,likert,3,149,NA,NA,2020,5.68,480,718.2,2,2.48356402374338
150,NS01,30,47,F,likert,3,150,NA,NA,1659,6.57,480,540,4,2.48363793920726
151,NS01,30,47,F,likert,3,151,NA,NA,5531,5.15,480,450.9,5,3.36681573954411
152,NS01,30,47,F,likert,3,152,NA,NA,7320,6.54,480,450.9,5,2.11677562689874
153,NS01,30,47,F,likert,3,153,NA,NA,2032,5.58,480,540,4,1.45011847506976
154,NS01,30,47,F,likert,3,154,NA,NA,5215,6.83,480,540,4,2.30026537453523
155,NS01,30,47,F,likert,3,155,NA,NA,7026,5.38,480,540,4,2.35013938770862
156,NS01,30,47,F,likert,3,156,NA,NA,7461,5.8,480,540,4,2.91688025032636
157,NS01,30,47,F,likert,3,157,NA,NA,8191,6.07,480,540,4,1.63353400683263
158,NS01,30,47,F,likert,3,158,NA,NA,7830,5.26,480,540,4,1.21675020718249
159,NS01,30,47,F,likert,3,159,NA,NA,8260,6.18,480,629.1,3,3.13358718995005
160,NS01,30,47,F,likert,3,160,NA,NA,7450,6.4,480,629.1,3,1.93353556923103
161,NS01,30,47,F,likert,3,161,NA,NA,7053,5.22,480,629.1,3,2.53362102276878
162,NS01,30,47,F,likert,3,162,NA,NA,7546,5.4,480,629.1,3,1.93349410447991
163,NS01,30,47,F,likert,3,163,NA,NA,8320,6.24,480,718.2,2,2.60017198865535
164,NS01,30,47,F,likert,3,164,NA,NA,1616,5.21,480,540,4,2.21685627289116
165,NS01,30,47,F,likert,3,165,NA,NA,7351,5.82,480,540,4,3.26688833290245
166,NS01,30,47,F,likert,3,166,NA,NA,7080,5.27,480,629.1,3,3.00010997179197
167,NS01,30,47,F,likert,3,167,NA,NA,7505,6.1,480,629.1,3,2.81684287195094
168,NS01,30,47,F,likert,3,168,NA,NA,5800,6.36,480,450.9,5,3.13341862655943
169,NS01,30,47,F,likert,3,169,NA,NA,2273,5.41,480,540,4,2.1501499642618
170,NS01,30,47,F,likert,3,170,NA,NA,2513,5.8,480,540,4,2.28345681622159
171,NS01,30,47,F,likert,3,171,NA,NA,8211,5.76,480,540,4,2.31686540710507
172,NS01,30,47,F,likert,3,172,NA,NA,7242,5.28,480,450.9,5,4.23371981707169
173,NS01,30,47,F,likert,3,173,NA,NA,5849,6.65,480,540,4,3.58349143032683
174,NS01,30,47,F,likert,3,174,NA,NA,7488,6.19,480,540,4,2.26678497146349
175,NS01,30,47,F,likert,3,175,NA,NA,2372,5.48,480,629.1,3,2.10020263656043
176,NS01,30,47,F,likert,3,176,NA,NA,5665,6.15,480,450.9,5,3.01680945971748
177,NS01,30,47,F,likert,3,177,NA,NA,1947,5.85,480,540,4,2.13347211008659
178,NS01,30,47,F,likert,3,178,NA,NA,1650,6.65,480,629.1,3,2.16690714238212
179,NS01,30,47,F,likert,3,179,NA,NA,2980,5.61,480,540,4,1.70023821212817
180,NS01,30,47,F,likert,3,180,NA,NA,1850,6.15,480,450.9,5,3.46677199122496
181,NS01,30,47,F,likert,3,181,NA,NA,2102,5.16,480,540,4,1.8834515279741
182,NS01,30,47,F,likert,3,182,NA,NA,2560,6.34,480,540,4,3.066811472876
183,NS01,30,47,F,likert,3,183,NA,NA,1910,6.71,480,540,4,1.51693475549109
184,NS01,30,47,F,likert,3,184,NA,NA,2122,5.15,480,718.2,2,2.53359938896028
185,NS01,30,47,F,likert,3,185,NA,NA,5390,5.59,480,450.9,5,2.73349206126295
186,NS01,30,47,F,likert,3,186,NA,NA,7515,6.19,480,540,4,1.45005297270836
187,NS01,30,47,F,likert,3,187,NA,NA,4600,6.41,480,540,4,2.11678674427094
188,NS01,30,47,F,likert,3,188,NA,NA,5875,6.03,480,450.9,5,2.75023752107518
189,NS01,30,47,F,likert,3,189,NA,NA,1640,6.16,480,450.9,5,3.11687027470907
190,NS01,30,47,F,likert,3,190,NA,NA,7489,6.54,480,540,4,1.91684028791497
191,NS01,30,47,F,likert,3,191,NA,NA,1942,6.26,480,450.9,5,5.60011249571107
192,NS01,30,47,F,likert,3,192,NA,NA,7182,5.16,480,718.2,2,3.58345988101792
193,NS01,30,47,F,likert,3,193,NA,NA,1670,5.82,480,629.1,3,2.03355521993944
194,NS01,30,47,F,likert,3,194,NA,NA,2720,5.43,480,810,1,2.28345681622159
195,NS01,30,47,F,likert,3,195,NA,NA,7057,5.35,480,629.1,3,1.93334867729573
196,NS01,30,47,F,likert,3,196,NA,NA,7475,6.33,480,629.1,3,2.38353896455374
197,NS01,30,47,F,likert,3,197,NA,NA,8193,6.73,480,540,4,3.5834821157041
198,NS01,30,47,F,likert,3,198,NA,NA,7496,5.92,480,629.1,3,3.4334625552292
199,NS01,30,47,F,likert,3,199,NA,NA,2620,5.93,480,450.9,5,4.13351447629975
200,NS01,30,47,F,likert,3,200,NA,NA,1450,6.37,480,450.9,5,3.0003133895807
201,NS01,30,47,F,likert,3,1,NA,NA,7477,6.12,480,629.1,3,2.95004756428534
202,NS01,30,47,F,likert,3,2,NA,NA,8130,6.58,480,629.1,3,2.36683917616028
203,NS01,30,47,F,likert,3,3,NA,NA,1595,6.22,480,540,4,1.73346411762759
204,NS01,30,47,F,likert,3,4,NA,NA,8280,6.38,480,540,4,1.96681195363635
205,NS01,30,47,F,likert,3,5,NA,NA,7237,5.43,480,450.9,5,2.03347198996926
206,NS01,30,47,F,likert,3,6,NA,NA,1908,5.28,480,540,4,2.25025795295369
207,NS01,30,47,F,likert,3,7,NA,NA,4617,6.6,480,450.9,5,3.23343647446018
208,NS01,30,47,F,likert,3,8,NA,NA,4613,5.34,480,810,1,3.06691303150728
209,NS01,30,47,F,likert,3,9,NA,NA,5510,5.15,480,629.1,3,1.71687760617351
210,NS01,30,47,F,likert,3,10,NA,NA,2235,5.64,480,450.9,5,3.48349942278583
211,NS01,30,47,F,likert,3,11,NA,NA,5740,5.21,480,361.8,6,2.56693136016838
212,NS01,30,47,F,likert,3,12,NA,NA,5750,6.6,480,450.9,5,2.16688370576594
213,NS01,30,47,F,likert,3,13,NA,NA,7033,5.4,480,540,4,2.43349680869142
214,NS01,30,47,F,likert,3,14,NA,NA,8021,6.79,480,540,4,1.11679275362985
215,NS01,30,47,F,likert,3,15,NA,NA,8117,6.02,480,629.1,3,2.25012244126992
216,NS01,30,47,F,likert,3,16,NA,NA,2511,6.21,480,540,4,1.85010633611819
217,NS01,30,47,F,likert,3,17,NA,NA,5950,5.99,480,450.9,5,3.7167778503499
218,NS01,30,47,F,likert,3,18,NA,NA,7096,5.54,480,629.1,3,2.26686159119708
219,NS01,30,47,F,likert,3,19,NA,NA,1900,6.65,480,540,4,2.51683469914133
220,NS01,30,47,F,likert,3,20,NA,NA,7238,6.43,480,629.1,3,2.00010606565047
221,NS01,30,47,F,likert,3,21,NA,NA,2018,5.56,480,540,4,2.61692315735854
222,NS01,30,47,F,likert,3,22,NA,NA,2036,5.8,480,629.1,3,4.33355918613961
223,NS01,30,47,F,likert,3,23,NA,NA,2305,5.41,480,540,4,1.80025425722124
224,NS01,30,47,F,likert,3,24,NA,NA,7512,5.38,480,540,4,2.56684782967204
225,NS01,30,47,F,likert,3,25,NA,NA,7495,5.9,480,629.1,3,2.11680597433588
226,NS01,30,47,F,likert,3,26,NA,NA,5731,5.39,480,361.8,6,2.31688974518329
227,NS01,30,47,F,likert,3,27,NA,NA,6250,6.32,480,629.1,3,3.31683836487355
228,NS01,30,47,F,likert,3,28,NA,NA,7240,6.02,480,718.2,2,4.0500786328339
229,NS01,30,47,F,likert,3,29,NA,NA,7547,5.21,480,629.1,3,2.31688223342644
230,NS01,30,47,F,likert,3,30,NA,NA,2445,5.39,480,629.1,3,2.45018698211061
231,NS01,30,47,F,likert,3,31,NA,NA,7279,6.22,480,540,4,1.43344272422837
232,NS01,30,47,F,likert,3,32,NA,NA,2593,5.8,480,450.9,5,3.20011441875249
233,NS01,30,47,F,likert,3,33,NA,NA,7354,5.51,480,540,4,2.23357198614394
234,NS01,30,47,F,likert,3,34,NA,NA,5455,5.79,480,540,4,2.65021576709114
235,NS01,30,47,F,likert,3,35,NA,NA,7248,5.22,480,629.1,3,2.50007872300921
236,NS01,30,47,F,likert,3,36,NA,NA,7188,5.5,480,540,4,2.3501234628493
237,NS01,30,47,F,likert,3,37,NA,NA,7390,6.84,480,629.1,3,2.50013340840815
238,NS01,30,47,F,likert,3,38,NA,NA,2488,5.73,480,540,4,1.88347857026383
239,NS01,30,47,F,likert,3,39,NA,NA,8206,6.43,480,540,4,5.30012896150583
240,NS01,30,47,F,likert,3,40,NA,NA,2575,5.46,480,540,4,7.08360020024702
241,NS01,30,47,F,likert,3,41,NA,NA,7510,6.05,480,629.1,3,2.83360545843607
242,NS01,30,47,F,likert,3,42,NA,NA,8467,6.35,480,540,4,1.48348530073417
243,NS01,30,47,F,likert,3,43,NA,NA,5720,6.31,480,450.9,5,2.36676225595875
244,NS01,30,47,F,likert,3,44,NA,NA,7017,5.18,480,718.2,2,2.71693169069476
245,NS01,30,47,F,likert,3,45,NA,NA,2579,5.53,480,629.1,3,3.56674446823308
246,NS01,30,47,F,likert,3,46,NA,NA,7493,5.35,480,540,4,1.33346934581641
247,NS01,30,47,F,likert,3,47,NA,NA,5622,6.33,480,629.1,3,3.73365551664028
248,NS01,30,47,F,likert,3,48,NA,NA,7440,6.32,480,540,4,2.48348199558677
249,NS01,30,47,F,likert,3,49,NA,NA,7900,6.5,480,629.1,3,2.93339014204685
250,NS01,30,47,F,likert,3,50,NA,NA,8179,6.48,480,540,4,2.11683241563151
251,NS01,30,47,F,likert,3,1,NA,NA,7061,5.4,480,540,4,2.35027730319416
252,NS01,30,47,F,likert,3,2,NA,NA,7286,6.36,480,450.9,5,3.31685999868205
253,NS01,30,47,F,likert,3,3,NA,NA,8040,6.64,480,540,4,3.03353088191943
254,NS01,30,47,F,likert,3,4,NA,NA,7039,5.93,480,450.9,5,2.06680516304914
255,NS01,30,47,F,likert,3,5,NA,NA,2489,5.66,480,540,4,2.71670724009164
256,NS01,30,47,F,likert,3,6,NA,NA,5250,6.08,480,450.9,5,2.03346027166117
257,NS01,30,47,F,likert,3,7,NA,NA,2384,5.92,480,540,4,1.45014010887826
258,NS01,30,47,F,likert,3,8,NA,NA,5530,5.38,480,450.9,5,2.4168706353521
259,NS01,30,47,F,likert,3,9,NA,NA,1903,5.5,480,540,4,2.7502435304923
260,NS01,30,47,F,likert,3,10,NA,NA,2351,5.49,480,540,4,1.53347439371282
261,NS01,30,47,F,likert,3,11,NA,NA,2377,5.19,480,450.9,5,2.75012634735322
262,NS01,30,47,F,likert,3,12,NA,NA,7140,5.5,480,540,4,2.18347742845071
263,NS01,30,47,F,likert,3,13,NA,NA,5533,5.31,480,540,4,2.25010050699348
264,NS01,30,47,F,likert,3,14,NA,NA,5500,5.42,480,540,4,1.6168212982011
265,NS01,30,47,F,likert,3,15,NA,NA,7042,5.55,480,629.1,3,1.8667914015241
266,NS01,30,47,F,likert,3,16,NA,NA,7165,6.09,480,629.1,3,2.65016348543577
267,NS01,30,47,F,likert,3,17,NA,NA,8251,6.16,480,540,4,3.13358718989184
268,NS01,30,47,F,likert,3,18,NA,NA,1333,6.11,480,450.9,5,2.20018653140869
269,NS01,30,47,F,likert,3,19,NA,NA,7472,6.25,480,361.8,6,1.56679975456791
270,NS01,30,47,F,likert,3,20,NA,NA,7001,5.32,480,540,4,1.73342986410717
271,NS01,30,47,F,likert,3,21,NA,NA,1640,6.27,480,450.9,5,1.48339576082071
272,NS01,30,47,F,likert,3,22,NA,NA,4598,6.33,480,450.9,5,2.40015311923344
273,NS01,30,47,F,likert,3,23,NA,NA,1560,5.97,480,540,4,1.51679143158253
274,NS01,30,47,F,likert,3,24,NA,NA,8465,5.96,480,540,4,2.53352246881695
275,NS01,30,47,F,likert,3,25,NA,NA,2217,6.24,480,450.9,5,3.33344651013613
276,NS01,30,47,F,likert,3,26,NA,NA,4619,6.46,480,629.1,3,3.80029452010058
277,NS01,30,47,F,likert,3,27,NA,NA,4100,6.11,480,629.1,3,2.35027910606004
278,NS01,30,47,F,likert,3,28,NA,NA,2515,6.09,480,540,4,1.25027057272382
279,NS01,30,47,F,likert,3,29,NA,NA,2411,5.07,480,629.1,3,2.13347000686917
280,NS01,30,47,F,likert,3,30,NA,NA,7451,6.68,480,718.2,2,1.91684569633799
281,NS01,30,47,F,likert,3,31,NA,NA,7205,5.56,480,540,4,2.03347198991105
282,NS01,30,47,F,likert,3,32,NA,NA,1810,6.52,480,540,4,1.35011384781683
283,NS01,30,47,F,likert,3,33,NA,NA,2900,6.62,480,629.1,3,3.41690759302583
284,NS01,30,47,F,likert,3,34,NA,NA,7291,6.35,480,540,4,1.53344645001926
285,NS01,30,47,F,likert,3,35,NA,NA,2302,6.43,480,540,4,1.30011093331268
286,NS01,30,47,F,likert,3,36,NA,NA,5410,6.11,480,540,4,1.86695545783732
287,NS01,30,47,F,likert,3,37,NA,NA,7632,5.22,480,540,4,2.28351600875612
288,NS01,30,47,F,likert,3,38,NA,NA,2010,6.25,480,540,4,1.35012015770189
289,NS01,30,47,F,likert,3,39,NA,NA,7620,5.78,480,450.9,5,1.83352943969658
290,NS01,30,47,F,likert,3,40,NA,NA,7460,6.81,480,629.1,3,2.70022559241625
291,NS01,30,47,F,likert,3,41,NA,NA,2880,5.18,480,540,4,1.85005796054611
292,NS01,30,47,F,likert,3,42,NA,NA,2435,5.84,480,540,4,2.33356549602468
293,NS01,30,47,F,likert,3,43,NA,NA,7019,5.2,480,718.2,2,2.46681255457224
294,NS01,30,47,F,likert,3,44,NA,NA,8161,6.71,480,629.1,3,2.60013052390423
295,NS01,30,47,F,likert,3,45,NA,NA,2025,5.78,480,540,4,1.41675916116219
296,NS01,30,47,F,likert,3,46,NA,NA,8620,6.04,480,540,4,1.91677658841945
297,NS01,30,47,F,likert,3,47,NA,NA,7100,5.24,480,718.2,2,2.73354734765599
298,NS01,30,47,F,likert,3,48,NA,NA,7183,5.58,480,718.2,2,3.41686522687087
299,NS01,30,47,F,likert,3,49,NA,NA,4645,6.73,480,629.1,3,1.75007676996756
300,NS01,30,47,F,likert,3,50,NA,NA,2594,6.05,480,450.9,5,2.6001755943289
