participantNo,block,task,blockTrial,response,trialStage,trialStartTime,trialFinishTime,rt,trial,eye,fixStart,fixEnd,fixLength,fixPosX,fixPosY,dilation,aoi
46,1,binary,1,2,fixationCross,17464332.0,17472865.0,8533.0,1,R,17463072,17463308,238,984.2,836.6,4238,likertHorizontal
46,1,binary,1,2,fixationCross,17464332.0,17472865.0,8533.0,1,R,17463334,17463458,126,1147.8,843.9,4344,likertHorizontal
46,1,binary,1,2,fixationCross,17464332.0,17472865.0,8533.0,1,R,17463510,17463642,134,895.7,420.9,4416,NA
46,1,binary,1,2,fixationCross,17464332.0,17472865.0,8533.0,1,R,17463814,17463902,90,256.6,108.0,4382,NA
46,1,binary,1,2,fixationCross,17464332.0,17472865.0,8533.0,1,R,17463950,17464084,136,668.7,196.7,4423,NA
46,1,binary,1,2,fixationCross,17464332.0,17472865.0,8533.0,1,R,17464148,17464288,142,951.0,454.6,4386,NA
46,1,binary,1,2,trial,17464332.0,17472865.0,8533.0,1,R,17464510,17464622,114,908.6,575.1,4075,NA
46,1,binary,1,2,trial,17464332.0,17472865.0,8533.0,1,R,17464688,17464790,104,500.5,468.7,4126,left
46,1,binary,1,2,trial,17464332.0,17472865.0,8533.0,1,R,17464814,17464974,162,351.8,415.7,4161,left
46,1,binary,1,2,trial,17464332.0,17472865.0,8533.0,1,R,17465046,17465224,180,455.4,1007.8,3958,NA
46,1,binary,1,2,trial,17464332.0,17472865.0,8533.0,1,R,17465290,17465478,190,381.9,461.3,3697,left
46,1,binary,1,2,trial,17464332.0,17472865.0,8533.0,1,R,17465504,17465686,184,526.8,502.4,3654,left
46,1,binary,1,2,trial,17464332.0,17472865.0,8533.0,1,R,17465756,17465974,220,1535.0,408.5,3463,right
46,1,binary,1,2,trial,17464332.0,17472865.0,8533.0,1,R,17466010,17466302,294,1451.1,482.1,3610,right
46,1,binary,1,2,trial,17464332.0,17472865.0,8533.0,1,R,17466370,17466446,78,1091.3,950.3,4015,likertHorizontal
46,1,binary,1,2,trial,17464332.0,17472865.0,8533.0,1,R,17466480,17466530,52,982.5,949.5,4149,likertHorizontal
46,1,binary,1,2,trial,17464332.0,17472865.0,8533.0,1,R,17466596,17466748,154,1484.1,1007.3,4109,NA
46,1,binary,1,2,trial,17464332.0,17472865.0,8533.0,1,R,17466766,17466926,162,1433.1,994.4,4210,NA
46,1,binary,1,2,trial,17464332.0,17472865.0,8533.0,1,R,17466992,17467186,196,1467.6,461.8,4162,right
46,1,binary,1,2,trial,17464332.0,17472865.0,8533.0,1,R,17467222,17467598,378,1390.0,490.0,4124,right
46,1,binary,1,2,trial,17464332.0,17472865.0,8533.0,1,R,17467662,17467800,140,1456.6,857.8,4217,NA
46,1,binary,1,2,trial,17464332.0,17472865.0,8533.0,1,R,17467852,17468366,516,1439.7,957.8,4387,NA
46,1,binary,1,2,trial,17464332.0,17472865.0,8533.0,1,R,17468456,17468652,198,418.1,891.5,4451,NA
46,1,binary,1,2,trial,17464332.0,17472865.0,8533.0,1,R,17468732,17468948,218,1477.0,873.6,4331,NA
46,1,binary,1,2,trial,17464332.0,17472865.0,8533.0,1,R,17469010,17469294,286,1530.5,527.1,4303,right
46,1,binary,1,2,trial,17464332.0,17472865.0,8533.0,1,R,17469316,17469650,336,1512.6,481.6,4168,right
46,1,binary,1,2,trial,17464332.0,17472865.0,8533.0,1,R,17469672,17469902,232,1558.5,418.0,3830,right
46,1,binary,1,2,trial,17464332.0,17472865.0,8533.0,1,R,17469942,17470112,172,1531.5,567.6,3728,right
46,1,binary,1,2,trial,17464332.0,17472865.0,8533.0,1,R,17470132,17470414,284,1535.8,528.1,3765,right
46,1,binary,1,2,trial,17464332.0,17472865.0,8533.0,1,R,17470498,17470686,190,413.3,474.0,3991,left
46,1,binary,1,2,trial,17464332.0,17472865.0,8533.0,1,R,17470718,17470970,254,345.3,416.7,3940,left
46,1,binary,1,2,trial,17464332.0,17472865.0,8533.0,1,R,17471028,17471336,310,554.6,561.7,3712,left
46,1,binary,1,2,trial,17464332.0,17472865.0,8533.0,1,R,17471472,17471692,222,1505.3,424.2,3594,right
46,1,binary,1,2,trial,17464332.0,17472865.0,8533.0,1,R,17471722,17472088,368,1570.4,414.3,3782,right
46,1,binary,1,2,trial,17464332.0,17472865.0,8533.0,1,R,17472120,17472490,372,1505.5,418.3,3757,right
46,1,binary,1,2,trial,17464332.0,17472865.0,8533.0,1,R,17472518,17472794,278,1245.9,382.2,4039,right
46,1,binary,1,2,postResponse,17464332.0,17472865.0,8533.0,1,R,17472826,17473198,374,1325.7,382.7,4295,right
46,1,binary,2,2,fixationCross,17474048.0,17477899.0,3851.0,2,R,17473332,17473410,80,994.7,346.5,4274,NA
46,1,binary,2,2,fixationCross,17474048.0,17477899.0,3851.0,2,R,17473492,17473608,118,159.7,90.4,4210,NA
46,1,binary,2,2,fixationCross,17474048.0,17477899.0,3851.0,2,R,17473658,17473710,54,39.7,-2.6,4211,NA
46,1,binary,2,2,trial,17474048.0,17477899.0,3851.0,2,R,17473794,17474106,314,959.3,505.9,4261,NA
46,1,binary,2,2,trial,17474048.0,17477899.0,3851.0,2,R,17474130,17474244,116,960.1,542.1,4142,NA
46,1,binary,2,2,trial,17474048.0,17477899.0,3851.0,2,R,17474312,17474728,418,523.5,465.4,4082,left
46,1,binary,2,2,trial,17474048.0,17477899.0,3851.0,2,R,17474814,17475168,356,1431.3,516.2,3789,right
46,1,binary,2,2,trial,17474048.0,17477899.0,3851.0,2,R,17475208,17475440,234,1614.8,515.8,3841,right
46,1,binary,2,2,trial,17474048.0,17477899.0,3851.0,2,R,17475488,17475600,114,1464.1,956.2,4056,NA
46,1,binary,2,2,trial,17474048.0,17477899.0,3851.0,2,R,17475634,17475726,94,1421.7,1005.6,4168,NA
46,1,binary,2,2,trial,17474048.0,17477899.0,3851.0,2,R,17475810,17475928,120,465.4,999.5,4390,NA
46,1,binary,2,2,trial,17474048.0,17477899.0,3851.0,2,R,17476002,17476198,198,514.6,435.1,4264,left
46,1,binary,2,2,trial,17474048.0,17477899.0,3851.0,2,R,17476238,17476500,264,583.3,474.2,4046,left
46,1,binary,2,2,trial,17474048.0,17477899.0,3851.0,2,R,17476526,17476948,424,659.7,390.4,3781,left
46,1,binary,2,2,trial,17474048.0,17477899.0,3851.0,2,R,17477032,17477914,884,1509.3,533.4,3911,right
46,1,binary,2,2,trial,17474048.0,17477899.0,3851.0,2,R,17477944,17478136,194,1416.2,519.2,4281,right
46,1,binary,3,2,fixationCross,17478999.0,17483632.0,4633.0,3,R,17478348,17478666,320,726.1,372.1,4449,left
46,1,binary,3,2,fixationCross,17478999.0,17483632.0,4633.0,3,R,17478710,17478836,128,955.3,449.1,4534,NA
46,1,binary,3,2,trial,17478999.0,17483632.0,4633.0,3,R,17478872,17479012,142,940.6,507.4,4468,NA
46,1,binary,3,2,trial,17478999.0,17483632.0,4633.0,3,R,17479032,17479138,108,973.5,521.2,4439,NA
46,1,binary,3,2,trial,17478999.0,17483632.0,4633.0,3,R,17479194,17479418,226,497.6,444.6,4322,left
46,1,binary,3,2,trial,17478999.0,17483632.0,4633.0,3,R,17479448,17479650,204,451.4,505.2,3823,left
46,1,binary,3,2,trial,17478999.0,17483632.0,4633.0,3,R,17479684,17479826,144,346.1,560.7,3578,left
46,1,binary,3,2,trial,17478999.0,17483632.0,4633.0,3,R,17479842,17480040,200,301.4,577.7,3498,left
46,1,binary,3,2,trial,17478999.0,17483632.0,4633.0,3,R,17480104,17480220,118,473.5,954.0,3507,NA
46,1,binary,3,2,trial,17478999.0,17483632.0,4633.0,3,R,17480240,17480280,42,558.1,951.8,3480,NA
46,1,binary,3,2,trial,17478999.0,17483632.0,4633.0,3,R,17480328,17480482,156,565.7,509.1,3479,left
46,1,binary,3,2,trial,17478999.0,17483632.0,4633.0,3,R,17480558,17480758,202,1407.4,518.3,3509,right
46,1,binary,3,2,trial,17478999.0,17483632.0,4633.0,3,R,17480792,17481228,438,1293.3,513.4,3548,right
46,1,binary,3,2,trial,17478999.0,17483632.0,4633.0,3,R,17481418,17481730,314,1379.7,515.3,3761,right
46,1,binary,3,2,trial,17478999.0,17483632.0,4633.0,3,R,17481764,17482024,262,1518.4,503.4,3960,right
46,1,binary,3,2,trial,17478999.0,17483632.0,4633.0,3,R,17482048,17482330,284,1320.0,523.3,3803,right
46,1,binary,3,2,trial,17478999.0,17483632.0,4633.0,3,R,17482368,17482600,234,1472.5,630.6,3689,right
46,1,binary,3,2,trial,17478999.0,17483632.0,4633.0,3,R,17482618,17482846,230,1415.5,582.5,3825,right
46,1,binary,3,2,trial,17478999.0,17483632.0,4633.0,3,R,17482872,17483048,178,1262.7,522.2,3860,right
46,1,binary,3,2,trial,17478999.0,17483632.0,4633.0,3,R,17483088,17483332,246,1430.8,618.7,3789,right
46,1,binary,3,2,trial,17478999.0,17483632.0,4633.0,3,R,17483394,17483512,120,1473.1,916.1,3994,NA
46,1,binary,3,2,trial,17478999.0,17483632.0,4633.0,3,R,17483576,17483844,270,1387.6,473.0,4162,right
46,1,binary,3,2,postResponse,17478999.0,17483632.0,4633.0,3,R,17483874,17483970,98,1297.7,456.8,4101,right
46,1,binary,4,1,fixationCross,17485282.0,17488848.0,3566.0,4,R,17484070,17484270,202,750.9,403.7,4093,NA
46,1,binary,4,1,fixationCross,17485282.0,17488848.0,3566.0,4,R,17484318,17484472,156,521.6,324.3,4247,NA
46,1,binary,4,1,fixationCross,17485282.0,17488848.0,3566.0,4,R,17484508,17484750,244,803.9,358.4,4335,NA
46,1,binary,4,1,fixationCross,17485282.0,17488848.0,3566.0,4,R,17484772,17484972,202,847.3,381.0,4298,NA
46,1,binary,4,1,fixationCross,17485282.0,17488848.0,3566.0,4,R,17485000,17485252,254,957.6,481.5,4345,NA
46,1,binary,4,1,trial,17485282.0,17488848.0,3566.0,4,R,17485276,17485422,148,948.3,521.9,4424,NA
46,1,binary,4,1,trial,17485282.0,17488848.0,3566.0,4,R,17485456,17485826,372,576.7,504.0,4319,left
46,1,binary,4,1,trial,17485282.0,17488848.0,3566.0,4,R,17485902,17486218,318,1449.2,560.6,3633,right
46,1,binary,4,1,trial,17485282.0,17488848.0,3566.0,4,R,17486242,17486496,256,1587.1,547.7,3552,right
46,1,binary,4,1,trial,17485282.0,17488848.0,3566.0,4,R,17486522,17486612,92,1426.6,554.8,3630,right
46,1,binary,4,1,trial,17485282.0,17488848.0,3566.0,4,R,17486694,17487384,692,455.5,511.3,3797,left
46,1,binary,4,1,trial,17485282.0,17488848.0,3566.0,4,R,17487448,17487728,282,490.5,938.9,3808,NA
46,1,binary,4,1,trial,17485282.0,17488848.0,3566.0,4,R,17487786,17488360,576,454.5,481.4,3873,left
46,1,binary,4,1,trial,17485282.0,17488848.0,3566.0,4,R,17488380,17489046,668,379.1,469.2,3719,left
46,1,binary,5,2,fixationCross,17490149.0,17495416.0,5267.0,5,R,17489280,17489458,180,1486.5,506.3,3567,right
46,1,binary,5,2,fixationCross,17490149.0,17495416.0,5267.0,5,R,17489682,17489822,142,1228.1,411.3,3980,right
46,1,binary,5,2,fixationCross,17490149.0,17495416.0,5267.0,5,R,17489854,17490084,232,969.4,474.8,4223,NA
46,1,binary,5,2,trial,17490149.0,17495416.0,5267.0,5,R,17490114,17490296,184,941.8,511.4,4303,NA
46,1,binary,5,2,trial,17490149.0,17495416.0,5267.0,5,R,17490362,17490682,322,566.7,475.8,4037,left
46,1,binary,5,2,trial,17490149.0,17495416.0,5267.0,5,R,17490718,17490890,174,638.1,508.3,3739,left
46,1,binary,5,2,trial,17490149.0,17495416.0,5267.0,5,R,17490910,17491080,172,607.3,493.7,3665,left
46,1,binary,5,2,trial,17490149.0,17495416.0,5267.0,5,R,17491100,17491304,206,651.6,489.5,3717,left
46,1,binary,5,2,trial,17490149.0,17495416.0,5267.0,5,R,17491326,17491546,222,529.3,512.0,3907,left
46,1,binary,5,2,trial,17490149.0,17495416.0,5267.0,5,R,17491598,17491720,124,471.1,916.4,4053,NA
46,1,binary,5,2,trial,17490149.0,17495416.0,5267.0,5,R,17491752,17491838,88,513.6,970.7,4033,NA
46,1,binary,5,2,trial,17490149.0,17495416.0,5267.0,5,R,17491902,17492372,472,1453.8,526.5,3793,right
46,1,binary,5,2,trial,17490149.0,17495416.0,5267.0,5,R,17492396,17492514,120,1346.7,529.4,3794,right
46,1,binary,5,2,trial,17490149.0,17495416.0,5267.0,5,R,17492588,17492894,308,454.2,497.6,3964,left
46,1,binary,5,2,trial,17490149.0,17495416.0,5267.0,5,R,17492938,17493164,228,613.2,526.3,3881,left
46,1,binary,5,2,trial,17490149.0,17495416.0,5267.0,5,R,17493190,17493358,170,632.5,479.8,3800,left
46,1,binary,5,2,trial,17490149.0,17495416.0,5267.0,5,R,17493436,17493960,526,1453.7,524.3,3663,right
46,1,binary,5,2,trial,17490149.0,17495416.0,5267.0,5,R,17494126,17494170,46,472.8,476.7,3793,left
46,1,binary,5,2,trial,17490149.0,17495416.0,5267.0,5,R,17494178,17494496,320,484.9,497.4,3833,left
46,1,binary,5,2,trial,17490149.0,17495416.0,5267.0,5,R,17494538,17494832,296,667.7,566.4,3943,left
46,1,binary,5,2,trial,17490149.0,17495416.0,5267.0,5,R,17494898,17495090,194,1518.3,395.9,3725,right
46,1,binary,5,2,trial,17490149.0,17495416.0,5267.0,5,R,17495116,17495612,498,1479.6,490.7,3867,right
46,1,binary,5,2,postResponse,17490149.0,17495416.0,5267.0,5,R,17495640,17495754,116,1434.5,491.9,4046,right
46,1,binary,6,1,fixationCross,17496815.0,17499615.0,2800.0,6,R,17495902,17496040,140,920.5,332.9,4224,NA
46,1,binary,6,1,fixationCross,17496815.0,17499615.0,2800.0,6,R,17496096,17496272,178,189.6,115.4,4286,NA
46,1,binary,6,1,fixationCross,17496815.0,17499615.0,2800.0,6,R,17496312,17496486,176,18.5,48.5,4240,NA
46,1,binary,6,1,trial,17496815.0,17499615.0,2800.0,6,R,17496562,17496940,380,960.5,497.8,3888,NA
46,1,binary,6,1,trial,17496815.0,17499615.0,2800.0,6,R,17496974,17497152,180,561.7,475.4,3860,left
46,1,binary,6,1,trial,17496815.0,17499615.0,2800.0,6,R,17497192,17497332,142,433.1,573.4,3880,left
46,1,binary,6,1,trial,17496815.0,17499615.0,2800.0,6,R,17497368,17497524,158,638.2,553.1,3813,left
46,1,binary,6,1,trial,17496815.0,17499615.0,2800.0,6,R,17497710,17497766,58,531.4,783.3,3745,NA
46,1,binary,6,1,trial,17496815.0,17499615.0,2800.0,6,R,17497820,17497858,40,446.5,1013.3,3770,NA
46,1,binary,6,1,trial,17496815.0,17499615.0,2800.0,6,R,17498074,17498502,430,1455.6,507.6,4046,right
46,1,binary,6,1,trial,17496815.0,17499615.0,2800.0,6,R,17498516,17498764,250,1434.9,493.0,3917,right
46,1,binary,6,1,trial,17496815.0,17499615.0,2800.0,6,R,17498838,17499488,652,504.5,563.5,3811,left
46,1,binary,6,1,postResponse,17496815.0,17499615.0,2800.0,6,R,17499508,17499948,442,443.9,556.2,3914,left
46,1,binary,7,1,fixationCross,17501449.0,17505299.0,3850.0,7,R,17500048,17500282,236,944.8,357.9,3903,NA
46,1,binary,7,1,fixationCross,17501449.0,17505299.0,3850.0,7,R,17500322,17500758,438,728.0,294.9,4109,NA
46,1,binary,7,1,fixationCross,17501449.0,17505299.0,3850.0,7,R,17500786,17500996,212,874.6,377.2,4361,NA
46,1,binary,7,1,fixationCross,17501449.0,17505299.0,3850.0,7,R,17501010,17501140,132,872.5,419.1,4418,NA
46,1,binary,7,1,fixationCross,17501449.0,17505299.0,3850.0,7,R,17501172,17501364,194,953.9,473.9,4452,NA
46,1,binary,7,1,trial,17501449.0,17505299.0,3850.0,7,R,17501388,17501594,208,934.9,510.4,4538,NA
46,1,binary,7,1,trial,17501449.0,17505299.0,3850.0,7,R,17501648,17501998,352,536.3,497.8,4382,left
46,1,binary,7,1,trial,17501449.0,17505299.0,3850.0,7,R,17502014,17502386,374,470.9,471.1,3833,left
46,1,binary,7,1,trial,17501449.0,17505299.0,3850.0,7,R,17502442,17502544,104,499.5,937.1,3811,NA
46,1,binary,7,1,trial,17501449.0,17505299.0,3850.0,7,R,17502582,17502632,52,632.5,974.8,3866,NA
46,1,binary,7,1,trial,17501449.0,17505299.0,3850.0,7,R,17502712,17502922,212,1454.5,512.8,3833,right
46,1,binary,7,1,trial,17501449.0,17505299.0,3850.0,7,R,17502946,17503112,168,1554.5,466.8,3976,right
46,1,binary,7,1,trial,17501449.0,17505299.0,3850.0,7,R,17503136,17503462,328,1596.6,437.5,3943,right
46,1,binary,7,1,trial,17501449.0,17505299.0,3850.0,7,R,17503490,17503774,286,1394.5,423.7,4026,right
46,1,binary,7,1,trial,17501449.0,17505299.0,3850.0,7,R,17503806,17503898,94,1424.8,512.2,4126,right
46,1,binary,7,1,trial,17501449.0,17505299.0,3850.0,7,R,17503976,17504246,272,506.4,502.0,4365,left
46,1,binary,7,1,trial,17501449.0,17505299.0,3850.0,7,R,17504328,17504582,256,1466.2,482.3,4080,right
46,1,binary,7,1,trial,17501449.0,17505299.0,3850.0,7,R,17504676,17504814,140,541.2,842.6,4212,NA
46,1,binary,7,1,trial,17501449.0,17505299.0,3850.0,7,R,17504856,17504960,106,480.6,886.9,4286,NA
46,1,binary,7,1,trial,17501449.0,17505299.0,3850.0,7,R,17505002,17505486,486,564.1,437.9,4297,left
46,1,binary,7,1,postResponse,17501449.0,17505299.0,3850.0,7,R,17505500,17505634,136,518.9,418.6,4017,left
46,1,binary,8,2,fixationCross,17506399.0,17509916.0,3517.0,8,R,17505734,17506042,310,1499.0,297.8,3809,NA
46,1,binary,8,2,fixationCross,17506399.0,17509916.0,3517.0,8,R,17506102,17506340,240,992.3,448.0,4284,NA
46,1,binary,8,2,trial,17506399.0,17509916.0,3517.0,8,R,17506366,17506544,180,914.6,464.1,4420,NA
46,1,binary,8,2,trial,17506399.0,17509916.0,3517.0,8,R,17506608,17506848,242,526.1,488.3,4462,left
46,1,binary,8,2,trial,17506399.0,17509916.0,3517.0,8,R,17506872,17507050,180,560.7,449.8,4144,left
46,1,binary,8,2,trial,17506399.0,17509916.0,3517.0,8,R,17507074,17507216,144,401.1,435.3,3920,left
46,1,binary,8,2,trial,17506399.0,17509916.0,3517.0,8,R,17507234,17507554,322,438.1,426.3,3824,left
46,1,binary,8,2,trial,17506399.0,17509916.0,3517.0,8,R,17507638,17507848,212,1527.1,468.1,3606,right
46,1,binary,8,2,trial,17506399.0,17509916.0,3517.0,8,R,17507882,17508014,134,1448.3,544.0,3639,right
46,1,binary,8,2,trial,17506399.0,17509916.0,3517.0,8,R,17508054,17508208,156,1487.4,656.6,3701,right
46,1,binary,8,2,trial,17506399.0,17509916.0,3517.0,8,R,17508230,17508304,76,1450.4,665.3,3773,right
46,1,binary,8,2,trial,17506399.0,17509916.0,3517.0,8,R,17508394,17508582,190,470.9,476.6,4004,left
46,1,binary,8,2,trial,17506399.0,17509916.0,3517.0,8,R,17508604,17508932,330,556.8,455.4,3885,left
46,1,binary,8,2,trial,17506399.0,17509916.0,3517.0,8,R,17509012,17509410,400,1488.8,501.2,3597,right
46,1,binary,8,2,trial,17506399.0,17509916.0,3517.0,8,R,17509450,17509626,178,1487.6,917.9,3811,NA
46,1,binary,8,2,trial,17506399.0,17509916.0,3517.0,8,R,17509674,17510140,468,1456.7,517.9,4027,right
46,1,binary,8,2,postResponse,17506399.0,17509916.0,3517.0,8,R,17510176,17510252,78,1222.1,484.4,3997,right
46,1,binary,9,1,fixationCross,17512165.0,17515266.0,3101.0,9,R,17510358,17510858,502,583.5,367.5,4100,left
46,1,binary,9,1,fixationCross,17512165.0,17515266.0,3101.0,9,R,17510912,17511132,222,865.8,424.5,4102,NA
46,1,binary,9,1,fixationCross,17512165.0,17515266.0,3101.0,9,R,17511154,17511334,182,917.5,448.1,4120,NA
46,1,binary,9,1,fixationCross,17512165.0,17515266.0,3101.0,9,R,17511382,17511712,332,629.7,424.5,4281,left
46,1,binary,9,1,fixationCross,17512165.0,17515266.0,3101.0,9,R,17511758,17511970,214,855.7,414.2,4119,NA
46,1,binary,9,1,fixationCross,17512165.0,17515266.0,3101.0,9,R,17512022,17512146,126,1029.6,503.3,3981,NA
46,1,binary,9,1,trial,17512165.0,17515266.0,3101.0,9,R,17512182,17512312,132,945.3,513.8,4050,NA
46,1,binary,9,1,trial,17512165.0,17515266.0,3101.0,9,R,17512344,17512480,138,548.2,487.8,4137,left
46,1,binary,9,1,trial,17512165.0,17515266.0,3101.0,9,R,17512692,17512720,30,547.0,617.1,3788,left
46,1,binary,9,1,trial,17512165.0,17515266.0,3101.0,9,R,17512730,17512998,270,569.2,611.3,3794,left
46,1,binary,9,1,trial,17512165.0,17515266.0,3101.0,9,R,17513022,17513176,156,513.2,593.7,3959,left
46,1,binary,9,1,trial,17512165.0,17515266.0,3101.0,9,R,17513320,17513384,66,-563.8,524.0,3644,NA
46,1,binary,9,1,trial,17512165.0,17515266.0,3101.0,9,R,17513446,17513672,228,461.4,590.6,3608,left
46,1,binary,9,1,trial,17512165.0,17515266.0,3101.0,9,R,17513700,17513788,90,510.0,585.2,3433,left
46,1,binary,9,1,trial,17512165.0,17515266.0,3101.0,9,R,17513862,17514230,370,1447.7,481.9,3377,right
46,1,binary,9,1,trial,17512165.0,17515266.0,3101.0,9,R,17514320,17514670,352,371.5,552.7,3629,left
46,1,binary,9,1,trial,17512165.0,17515266.0,3101.0,9,R,17514716,17514872,158,582.3,615.3,3756,left
46,1,binary,9,1,trial,17512165.0,17515266.0,3101.0,9,R,17514934,17515024,92,449.9,960.1,3897,NA
46,1,binary,9,1,trial,17512165.0,17515266.0,3101.0,9,R,17515072,17515518,448,508.7,470.9,3906,left
46,1,binary,10,1,fixationCross,17516549.0,17521666.0,5117.0,10,R,17515674,17515994,322,1490.9,386.4,3908,right
46,1,binary,10,1,fixationCross,17516549.0,17521666.0,5117.0,10,R,17516056,17516296,242,1026.7,458.9,4300,NA
46,1,binary,10,1,trial,17516549.0,17521666.0,5117.0,10,R,17516330,17516610,282,968.1,474.8,4444,NA
46,1,binary,10,1,trial,17516549.0,17521666.0,5117.0,10,R,17516622,17516764,144,985.9,438.9,4503,NA
46,1,binary,10,1,trial,17516549.0,17521666.0,5117.0,10,R,17516834,17516986,154,509.9,502.8,4388,left
46,1,binary,10,1,trial,17516549.0,17521666.0,5117.0,10,R,17517010,17517172,164,431.0,558.4,4086,left
46,1,binary,10,1,trial,17516549.0,17521666.0,5117.0,10,R,17517198,17517336,140,530.4,482.3,3867,left
46,1,binary,10,1,trial,17516549.0,17521666.0,5117.0,10,R,17517400,17517616,218,1507.3,469.7,3482,right
46,1,binary,10,1,trial,17516549.0,17521666.0,5117.0,10,R,17517642,17517986,346,1466.9,524.0,3545,right
46,1,binary,10,1,trial,17516549.0,17521666.0,5117.0,10,R,17518020,17518160,142,1359.5,571.4,3833,right
46,1,binary,10,1,trial,17516549.0,17521666.0,5117.0,10,R,17518356,17518510,156,1345.1,572.8,3846,right
46,1,binary,10,1,trial,17516549.0,17521666.0,5117.0,10,R,17518540,17518864,326,1322.8,626.0,3999,right
46,1,binary,10,1,trial,17516549.0,17521666.0,5117.0,10,R,17518884,17519272,390,1338.7,621.0,4070,right
46,1,binary,10,1,trial,17516549.0,17521666.0,5117.0,10,R,17519310,17519536,228,1473.2,497.3,3975,right
46,1,binary,10,1,trial,17516549.0,17521666.0,5117.0,10,R,17519632,17519864,234,463.4,532.2,4154,left
46,1,binary,10,1,trial,17516549.0,17521666.0,5117.0,10,R,17519890,17520170,282,543.4,488.9,3828,left
46,1,binary,10,1,trial,17516549.0,17521666.0,5117.0,10,R,17520238,17520710,474,1464.2,488.5,3500,right
46,1,binary,10,1,trial,17516549.0,17521666.0,5117.0,10,R,17520786,17521026,242,514.7,712.3,4151,left
46,1,binary,10,1,trial,17516549.0,17521666.0,5117.0,10,R,17521084,17521576,494,485.4,580.2,3921,left
46,1,binary,10,1,postResponse,17516549.0,17521666.0,5117.0,10,R,17521600,17522002,404,517.5,520.4,3638,left
46,1,binary,11,2,fixationCross,17522949.0,17526948.0,3999.0,11,R,17522102,17522596,496,1160.5,391.9,3681,NA
46,1,binary,11,2,fixationCross,17522949.0,17526948.0,3999.0,11,R,17522636,17522716,82,1007.3,463.8,4091,NA
46,1,binary,11,2,trial,17522949.0,17526948.0,3999.0,11,R,17522878,17523092,216,977.4,491.4,4200,NA
46,1,binary,11,2,trial,17522949.0,17526948.0,3999.0,11,R,17523144,17523348,206,553.2,468.0,4303,left
46,1,binary,11,2,trial,17522949.0,17526948.0,3999.0,11,R,17523382,17523524,144,581.3,504.8,3974,left
46,1,binary,11,2,trial,17522949.0,17526948.0,3999.0,11,R,17523560,17523732,174,480.4,641.1,3777,left
46,1,binary,11,2,trial,17522949.0,17526948.0,3999.0,11,R,17523756,17523868,114,440.5,641.3,3746,left
46,1,binary,11,2,trial,17522949.0,17526948.0,3999.0,11,R,17523894,17524030,138,432.0,492.0,3679,left
46,1,binary,11,2,trial,17522949.0,17526948.0,3999.0,11,R,17524102,17524300,200,1514.4,462.9,3506,right
46,1,binary,11,2,trial,17522949.0,17526948.0,3999.0,11,R,17524338,17524720,384,1370.2,511.7,3717,right
46,1,binary,11,2,trial,17522949.0,17526948.0,3999.0,11,R,17524754,17525148,396,1492.4,457.9,3855,right
46,1,binary,11,2,trial,17522949.0,17526948.0,3999.0,11,R,17525174,17525366,194,1479.7,525.5,3866,right
46,1,binary,11,2,trial,17522949.0,17526948.0,3999.0,11,R,17525460,17525590,132,476.8,516.5,3995,left
46,1,binary,11,2,trial,17522949.0,17526948.0,3999.0,11,R,17525612,17526050,440,571.5,494.4,3920,left
46,1,binary,11,2,trial,17522949.0,17526948.0,3999.0,11,R,17526074,17526296,224,420.1,491.5,3928,left
46,1,binary,11,2,trial,17522949.0,17526948.0,3999.0,11,R,17526314,17526390,78,436.0,468.0,3958,left
46,1,binary,11,2,trial,17522949.0,17526948.0,3999.0,11,R,17526414,17526584,172,438.2,473.7,3937,left
46,1,binary,11,2,trial,17522949.0,17526948.0,3999.0,11,R,17526672,17527182,512,1515.2,461.5,3791,right
46,1,binary,11,2,postResponse,17522949.0,17526948.0,3999.0,11,R,17527224,17527284,62,1345.3,463.0,3908,right
46,1,binary,12,2,fixationCross,17528633.0,17530682.0,2049.0,12,R,17527428,17527784,358,802.3,383.1,4093,NA
46,1,binary,12,2,fixationCross,17528633.0,17530682.0,2049.0,12,R,17527810,17528040,232,887.6,420.6,4257,NA
46,1,binary,12,2,fixationCross,17528633.0,17530682.0,2049.0,12,R,17528058,17528324,268,905.0,437.1,4275,NA
46,1,binary,12,2,fixationCross,17528633.0,17530682.0,2049.0,12,R,17528344,17528546,204,893.4,470.3,4323,NA
46,1,binary,12,2,trial,17528633.0,17530682.0,2049.0,12,R,17528570,17528770,202,935.1,477.9,4339,NA
46,1,binary,12,2,trial,17528633.0,17530682.0,2049.0,12,R,17528836,17529026,192,476.8,493.6,4405,left
46,1,binary,12,2,trial,17528633.0,17530682.0,2049.0,12,R,17529060,17529230,172,506.7,546.5,4070,left
46,1,binary,12,2,trial,17528633.0,17530682.0,2049.0,12,R,17529252,17529350,100,483.1,530.2,3833,left
46,1,binary,12,2,trial,17528633.0,17530682.0,2049.0,12,R,17529432,17529620,190,1510.8,486.3,3521,right
46,1,binary,12,2,trial,17528633.0,17530682.0,2049.0,12,R,17529646,17530024,380,1494.6,549.1,3542,right
46,1,binary,12,2,trial,17528633.0,17530682.0,2049.0,12,R,17530042,17530906,866,1514.9,537.7,3706,right
46,1,binary,12,2,postResponse,17528633.0,17530682.0,2049.0,12,R,17530994,17531030,38,693.5,464.9,3943,left
46,1,binary,13,1,fixationCross,17532065.0,17534549.0,2484.0,13,R,17531132,17531538,408,684.1,444.7,4159,left
46,1,binary,13,1,fixationCross,17532065.0,17534549.0,2484.0,13,R,17531576,17531792,218,848.8,452.3,4124,NA
46,1,binary,13,1,fixationCross,17532065.0,17534549.0,2484.0,13,R,17531818,17532008,192,925.0,464.2,4123,NA
46,1,binary,13,1,trial,17532065.0,17534549.0,2484.0,13,R,17532048,17532192,146,774.4,456.1,4286,NA
46,1,binary,13,1,trial,17532065.0,17534549.0,2484.0,13,R,17532260,17532378,120,625.2,478.7,4482,left
46,1,binary,13,1,trial,17532065.0,17534549.0,2484.0,13,R,17532420,17532678,260,380.0,556.2,4097,left
46,1,binary,13,1,trial,17532065.0,17534549.0,2484.0,13,R,17532710,17532920,212,397.4,598.6,3865,left
46,1,binary,13,1,trial,17532065.0,17534549.0,2484.0,13,R,17532942,17533156,216,381.0,603.5,3869,left
46,1,binary,13,1,trial,17532065.0,17534549.0,2484.0,13,R,17533216,17533558,344,1438.7,455.6,3691,right
46,1,binary,13,1,trial,17532065.0,17534549.0,2484.0,13,R,17533582,17533818,238,1326.6,497.7,3531,right
46,1,binary,13,1,trial,17532065.0,17534549.0,2484.0,13,R,17533900,17534576,678,393.0,596.2,3667,left
46,1,binary,13,1,trial,17532065.0,17534549.0,2484.0,13,R,17534594,17534782,190,374.5,581.4,3780,left
46,1,binary,13,1,postResponse,17532065.0,17534549.0,2484.0,13,R,17534798,17534900,104,325.1,577.4,3747,left
46,1,binary,14,2,fixationCross,17536032.0,17538799.0,2767.0,14,R,17534994,17534994,2,1371.9,325.5,3602,NA
46,1,binary,14,2,fixationCross,17536032.0,17538799.0,2767.0,14,R,17535018,17535482,466,1497.1,303.4,3857,NA
46,1,binary,14,2,fixationCross,17536032.0,17538799.0,2767.0,14,R,17535528,17535664,138,1132.6,413.4,4294,NA
46,1,binary,14,2,fixationCross,17536032.0,17538799.0,2767.0,14,R,17535716,17535912,198,913.2,450.8,4401,NA
46,1,binary,14,2,trial,17536032.0,17538799.0,2767.0,14,R,17535948,17536086,140,1033.3,423.3,4376,NA
46,1,binary,14,2,trial,17536032.0,17538799.0,2767.0,14,R,17536118,17536264,148,1330.7,429.2,4368,right
46,1,binary,14,2,trial,17536032.0,17538799.0,2767.0,14,R,17536306,17536426,122,1483.4,520.1,4285,right
46,1,binary,14,2,trial,17536032.0,17538799.0,2767.0,14,R,17536450,17536606,158,1426.3,508.5,4057,right
46,1,binary,14,2,trial,17536032.0,17538799.0,2767.0,14,R,17536626,17536718,94,1420.3,491.5,3910,right
46,1,binary,14,2,trial,17536032.0,17538799.0,2767.0,14,R,17536778,17536952,176,451.2,532.7,3884,left
46,1,binary,14,2,trial,17536032.0,17538799.0,2767.0,14,R,17536972,17537228,258,491.6,526.6,3802,left
46,1,binary,14,2,trial,17536032.0,17538799.0,2767.0,14,R,17537250,17537670,422,473.8,533.3,3606,left
46,1,binary,14,2,trial,17536032.0,17538799.0,2767.0,14,R,17537686,17537778,94,532.8,522.8,3593,left
46,1,binary,14,2,trial,17536032.0,17538799.0,2767.0,14,R,17537868,17538018,152,1483.0,467.8,3531,right
46,1,binary,14,2,trial,17536032.0,17538799.0,2767.0,14,R,17538050,17538316,268,1418.9,496.9,3668,right
46,1,binary,14,2,trial,17536032.0,17538799.0,2767.0,14,R,17538362,17538514,154,1572.1,525.7,3748,right
46,1,binary,14,2,trial,17536032.0,17538799.0,2767.0,14,R,17538534,17539044,512,1548.4,519.0,3799,right
46,1,binary,14,2,postResponse,17536032.0,17538799.0,2767.0,14,R,17539102,17539134,34,1190.8,452.9,4075,right
46,1,binary,15,1,fixationCross,17539949.0,17546166.0,6217.0,15,R,17539210,17539380,172,1189.8,462.1,4112,right
46,1,binary,15,1,fixationCross,17539949.0,17546166.0,6217.0,15,R,17539470,17539622,154,521.8,345.8,4349,NA
46,1,binary,15,1,fixationCross,17539949.0,17546166.0,6217.0,15,R,17539672,17539874,204,950.3,454.0,4523,NA
46,1,binary,15,1,trial,17539949.0,17546166.0,6217.0,15,R,17539898,17540090,194,941.8,508.3,4413,NA
46,1,binary,15,1,trial,17539949.0,17546166.0,6217.0,15,R,17540156,17540270,116,512.4,511.0,4352,left
46,1,binary,15,1,trial,17539949.0,17546166.0,6217.0,15,R,17540300,17540490,192,621.9,477.0,4094,left
46,1,binary,15,1,trial,17539949.0,17546166.0,6217.0,15,R,17540570,17540960,392,1538.9,453.8,3554,right
46,1,binary,15,1,trial,17539949.0,17546166.0,6217.0,15,R,17541148,17541314,168,1495.4,522.3,3352,right
46,1,binary,15,1,trial,17539949.0,17546166.0,6217.0,15,R,17541336,17541516,182,1554.1,519.0,3495,right
46,1,binary,15,1,trial,17539949.0,17546166.0,6217.0,15,R,17541554,17541732,180,1299.5,582.3,3550,right
46,1,binary,15,1,trial,17539949.0,17546166.0,6217.0,15,R,17541810,17541974,166,576.3,465.1,3464,left
46,1,binary,15,1,trial,17539949.0,17546166.0,6217.0,15,R,17541996,17542322,328,621.6,460.6,3439,left
46,1,binary,15,1,trial,17539949.0,17546166.0,6217.0,15,R,17542332,17542844,514,629.7,485.7,3520,left
46,1,binary,15,1,trial,17539949.0,17546166.0,6217.0,15,R,17542916,17543186,272,1555.4,492.3,3550,right
46,1,binary,15,1,trial,17539949.0,17546166.0,6217.0,15,R,17543210,17543478,270,1513.1,520.3,3442,right
46,1,binary,15,1,trial,17539949.0,17546166.0,6217.0,15,R,17543512,17543708,198,1276.1,605.1,3406,right
46,1,binary,15,1,trial,17539949.0,17546166.0,6217.0,15,R,17543728,17544006,280,1342.9,614.7,3378,right
46,1,binary,15,1,trial,17539949.0,17546166.0,6217.0,15,R,17544050,17544196,148,1559.7,494.2,3308,right
46,1,binary,15,1,trial,17539949.0,17546166.0,6217.0,15,R,17544298,17544470,174,518.1,480.2,3477,left
46,1,binary,15,1,trial,17539949.0,17546166.0,6217.0,15,R,17544494,17544864,372,611.8,481.1,3612,left
46,1,binary,15,1,trial,17539949.0,17546166.0,6217.0,15,R,17544884,17544992,110,617.8,497.0,3729,left
46,1,binary,15,1,trial,17539949.0,17546166.0,6217.0,15,R,17545072,17545506,436,1525.6,486.7,3674,right
46,1,binary,15,1,trial,17539949.0,17546166.0,6217.0,15,R,17545558,17545760,204,1282.6,589.1,3535,right
46,1,binary,15,1,trial,17539949.0,17546166.0,6217.0,15,R,17545852,17546228,378,506.0,568.5,3684,left
46,1,binary,15,1,trial,17539949.0,17546166.0,6217.0,15,R,17546260,17546442,184,522.5,530.3,3888,left
46,1,binary,15,1,postResponse,17539949.0,17546166.0,6217.0,15,R,17546454,17546500,48,514.8,510.1,3979,left
46,1,binary,16,1,fixationCross,17547232.0,17551849.0,4617.0,16,R,17546614,17546614,2,1191.8,334.3,3958,NA
46,1,binary,16,1,fixationCross,17547232.0,17551849.0,4617.0,16,R,17546636,17546908,274,1314.4,347.9,4018,NA
46,1,binary,16,1,fixationCross,17547232.0,17551849.0,4617.0,16,R,17546970,17547142,174,953.5,459.1,4290,NA
46,1,binary,16,1,trial,17547232.0,17551849.0,4617.0,16,R,17547176,17547382,208,952.9,513.6,4396,NA
46,1,binary,16,1,trial,17547232.0,17551849.0,4617.0,16,R,17547450,17547632,184,538.0,526.5,4376,left
46,1,binary,16,1,trial,17547232.0,17551849.0,4617.0,16,R,17547660,17547810,152,591.2,483.5,3976,left
46,1,binary,16,1,trial,17547232.0,17551849.0,4617.0,16,R,17547840,17548026,188,354.7,473.0,3621,left
46,1,binary,16,1,trial,17547232.0,17551849.0,4617.0,16,R,17548036,17548294,260,378.7,462.2,3448,left
46,1,binary,16,1,trial,17547232.0,17551849.0,4617.0,16,R,17548334,17548512,180,577.3,694.2,3412,left
46,1,binary,16,1,trial,17547232.0,17551849.0,4617.0,16,R,17548532,17548654,124,542.3,698.1,3481,left
46,1,binary,16,1,trial,17547232.0,17551849.0,4617.0,16,R,17548718,17548958,242,1382.7,523.5,3462,right
46,1,binary,16,1,trial,17547232.0,17551849.0,4617.0,16,R,17548982,17549272,292,1444.7,503.7,3417,right
46,1,binary,16,1,trial,17547232.0,17551849.0,4617.0,16,R,17549304,17549516,214,1575.2,548.5,3421,right
46,1,binary,16,1,trial,17547232.0,17551849.0,4617.0,16,R,17549534,17549808,276,1509.3,537.8,3536,right
46,1,binary,16,1,trial,17547232.0,17551849.0,4617.0,16,R,17549896,17550062,168,448.9,478.4,3743,left
46,1,binary,16,1,trial,17547232.0,17551849.0,4617.0,16,R,17550096,17550388,294,370.0,469.9,3708,left
46,1,binary,16,1,trial,17547232.0,17551849.0,4617.0,16,R,17550430,17550646,218,597.6,572.9,3566,left
46,1,binary,16,1,trial,17547232.0,17551849.0,4617.0,16,R,17550690,17550810,122,560.5,728.1,3548,left
46,1,binary,16,1,trial,17547232.0,17551849.0,4617.0,16,R,17550830,17551150,322,559.0,694.9,3538,left
46,1,binary,16,1,trial,17547232.0,17551849.0,4617.0,16,R,17551172,17551584,414,554.7,710.2,3493,left
46,1,binary,16,1,trial,17547232.0,17551849.0,4617.0,16,R,17551660,17552070,412,1400.7,526.8,3436,right
46,1,binary,17,2,fixationCross,17553166.0,17555316.0,2150.0,17,R,17552284,17552542,260,1001.6,405.6,3865,NA
46,1,binary,17,2,fixationCross,17553166.0,17555316.0,2150.0,17,R,17552594,17552854,262,817.1,405.1,4201,NA
46,1,binary,17,2,fixationCross,17553166.0,17555316.0,2150.0,17,R,17552890,17553128,240,969.6,450.4,4284,NA
46,1,binary,17,2,trial,17553166.0,17555316.0,2150.0,17,R,17553162,17553304,144,948.2,489.9,4301,NA
46,1,binary,17,2,trial,17553166.0,17555316.0,2150.0,17,R,17553350,17553524,176,583.4,522.4,4324,left
46,1,binary,17,2,trial,17553166.0,17555316.0,2150.0,17,R,17553560,17553700,142,474.2,545.3,4036,left
46,1,binary,17,2,trial,17553166.0,17555316.0,2150.0,17,R,17553760,17553918,160,1516.8,428.6,3602,right
46,1,binary,17,2,trial,17553166.0,17555316.0,2150.0,17,R,17553940,17554350,412,1586.3,402.6,3417,right
46,1,binary,17,2,trial,17553166.0,17555316.0,2150.0,17,R,17554382,17554628,248,1428.5,553.4,3620,right
46,1,binary,17,2,trial,17553166.0,17555316.0,2150.0,17,R,17554714,17554934,222,449.7,530.2,3792,left
46,1,binary,17,2,trial,17553166.0,17555316.0,2150.0,17,R,17555024,17555176,154,1543.8,434.0,3553,right
46,1,binary,17,2,trial,17553166.0,17555316.0,2150.0,17,R,17555204,17555518,316,1594.0,396.6,3529,right
46,1,binary,17,2,postResponse,17553166.0,17555316.0,2150.0,17,R,17555538,17555664,128,1551.0,399.9,3654,right
46,1,binary,18,2,fixationCross,17556615.0,17561549.0,4934.0,18,R,17555798,17555804,8,851.9,404.5,4001,NA
46,1,binary,18,2,fixationCross,17556615.0,17561549.0,4934.0,18,R,17555810,17556136,328,848.2,401.3,4152,NA
46,1,binary,18,2,fixationCross,17556615.0,17561549.0,4934.0,18,R,17556152,17556308,158,846.3,420.7,4313,NA
46,1,binary,18,2,fixationCross,17556615.0,17561549.0,4934.0,18,R,17556344,17556544,202,975.8,460.4,4244,NA
46,1,binary,18,2,trial,17556615.0,17561549.0,4934.0,18,R,17556554,17556702,150,982.2,483.1,4226,NA
46,1,binary,18,2,trial,17556615.0,17561549.0,4934.0,18,R,17556722,17556824,104,1029.0,479.1,4258,NA
46,1,binary,18,2,trial,17556615.0,17561549.0,4934.0,18,R,17556896,17557032,138,465.5,483.9,4240,left
46,1,binary,18,2,trial,17556615.0,17561549.0,4934.0,18,R,17557050,17557442,394,510.0,453.8,3839,left
46,1,binary,18,2,trial,17556615.0,17561549.0,4934.0,18,R,17557586,17557662,78,669.6,501.7,3720,left
46,1,binary,18,2,trial,17556615.0,17561549.0,4934.0,18,R,17557738,17557988,252,1416.6,559.9,3746,right
46,1,binary,18,2,trial,17556615.0,17561549.0,4934.0,18,R,17558024,17558472,450,1469.9,643.3,3883,right
46,1,binary,18,2,trial,17556615.0,17561549.0,4934.0,18,R,17558508,17558686,180,1237.9,608.3,3756,right
46,1,binary,18,2,trial,17556615.0,17561549.0,4934.0,18,R,17558708,17558932,226,1307.4,604.6,3724,right
46,1,binary,18,2,trial,17556615.0,17561549.0,4934.0,18,R,17558978,17559294,318,1486.4,641.7,3873,right
46,1,binary,18,2,trial,17556615.0,17561549.0,4934.0,18,R,17559328,17559440,114,1349.9,593.8,3858,right
46,1,binary,18,2,trial,17556615.0,17561549.0,4934.0,18,R,17559508,17560058,552,454.6,517.4,3711,left
46,1,binary,18,2,trial,17556615.0,17561549.0,4934.0,18,R,17560072,17560268,198,482.5,481.8,3581,left
46,1,binary,18,2,trial,17556615.0,17561549.0,4934.0,18,R,17560288,17560636,350,505.7,426.1,3486,left
46,1,binary,18,2,trial,17556615.0,17561549.0,4934.0,18,R,17560674,17561074,402,474.1,603.3,3662,left
46,1,binary,18,2,trial,17556615.0,17561549.0,4934.0,18,R,17561148,17561722,576,1392.0,546.4,3571,right
46,1,binary,18,2,postResponse,17556615.0,17561549.0,4934.0,18,R,17561740,17561884,146,1331.3,518.2,3590,right
46,1,binary,19,1,fixationCross,17564066.0,17567116.0,3050.0,19,R,17561984,17562206,224,686.8,370.0,3860,left
46,1,binary,19,1,fixationCross,17564066.0,17567116.0,3050.0,19,R,17562246,17562408,164,479.5,305.9,4038,NA
46,1,binary,19,1,fixationCross,17564066.0,17567116.0,3050.0,19,R,17562472,17562684,214,926.5,434.2,4121,NA
46,1,binary,19,1,fixationCross,17564066.0,17567116.0,3050.0,19,R,17562732,17562892,162,785.0,456.8,4164,NA
46,1,binary,19,1,fixationCross,17564066.0,17567116.0,3050.0,19,R,17562928,17563086,160,664.1,462.1,4237,left
46,1,binary,19,1,fixationCross,17564066.0,17567116.0,3050.0,19,R,17563116,17563324,210,782.5,446.6,4183,NA
46,1,binary,19,1,fixationCross,17564066.0,17567116.0,3050.0,19,R,17563358,17563542,186,709.8,432.3,4125,left
46,1,binary,19,1,fixationCross,17564066.0,17567116.0,3050.0,19,R,17563562,17563744,184,573.2,402.4,4113,left
46,1,binary,19,1,fixationCross,17564066.0,17567116.0,3050.0,19,R,17563806,17563930,126,990.3,494.5,4126,NA
46,1,binary,19,1,trial,17564066.0,17567116.0,3050.0,19,R,17563964,17564104,142,929.0,527.9,4125,NA
46,1,binary,19,1,trial,17564066.0,17567116.0,3050.0,19,R,17564124,17564224,102,961.0,536.4,4131,NA
46,1,binary,19,1,trial,17564066.0,17567116.0,3050.0,19,R,17564294,17564408,116,463.9,474.0,4191,left
46,1,binary,19,1,trial,17564066.0,17567116.0,3050.0,19,R,17564432,17564874,444,543.1,419.4,3761,left
46,1,binary,19,1,trial,17564066.0,17567116.0,3050.0,19,R,17564948,17565258,312,1476.5,468.7,3410,right
46,1,binary,19,1,trial,17564066.0,17567116.0,3050.0,19,R,17565282,17565600,320,1402.3,490.0,3336,right
46,1,binary,19,1,trial,17564066.0,17567116.0,3050.0,19,R,17565624,17565880,258,1559.9,480.0,3265,right
46,1,binary,19,1,trial,17564066.0,17567116.0,3050.0,19,R,17565996,17566238,244,1499.1,474.0,3347,right
46,1,binary,19,1,trial,17564066.0,17567116.0,3050.0,19,R,17566306,17566442,138,478.0,497.4,3696,left
46,1,binary,19,1,trial,17564066.0,17567116.0,3050.0,19,R,17566478,17566860,384,554.1,430.7,3607,left
46,1,binary,19,1,trial,17564066.0,17567116.0,3050.0,19,R,17566898,17567130,234,528.9,530.4,3654,left
46,1,binary,19,1,postResponse,17564066.0,17567116.0,3050.0,19,R,17567152,17567452,302,504.2,540.9,3843,left
46,1,binary,20,2,fixationCross,17568399.0,17575666.0,7267.0,20,R,17567554,17567918,366,1047.8,361.6,3926,NA
46,1,binary,20,2,fixationCross,17568399.0,17575666.0,7267.0,20,R,17567942,17568098,158,929.9,428.3,4205,NA
46,1,binary,20,2,fixationCross,17568399.0,17575666.0,7267.0,20,R,17568140,17568392,254,981.5,512.0,4339,NA
46,1,binary,20,2,trial,17568399.0,17575666.0,7267.0,20,R,17568412,17568558,148,923.8,502.4,4446,NA
46,1,binary,20,2,trial,17568399.0,17575666.0,7267.0,20,R,17568626,17568916,292,533.0,495.9,4156,left
46,1,binary,20,2,trial,17568399.0,17575666.0,7267.0,20,R,17569022,17569154,134,1562.0,479.0,3520,right
46,1,binary,20,2,trial,17568399.0,17575666.0,7267.0,20,R,17569176,17569548,374,1633.9,429.1,3487,right
46,1,binary,20,2,trial,17568399.0,17575666.0,7267.0,20,R,17569764,17569852,90,1064.1,510.0,3874,NA
46,1,binary,20,2,trial,17568399.0,17575666.0,7267.0,20,R,17569930,17570044,116,182.3,108.3,3946,NA
46,1,binary,20,2,trial,17568399.0,17575666.0,7267.0,20,R,17570150,17570228,80,833.2,1065.6,4309,likertHorizontal
46,1,binary,20,2,trial,17568399.0,17575666.0,7267.0,20,R,17570266,17570436,172,975.6,974.2,4175,likertHorizontal
46,1,binary,20,2,trial,17568399.0,17575666.0,7267.0,20,R,17570500,17570672,174,1472.4,996.3,3884,NA
46,1,binary,20,2,trial,17568399.0,17575666.0,7267.0,20,R,17570694,17570794,102,1424.3,1004.0,3950,NA
46,1,binary,20,2,trial,17568399.0,17575666.0,7267.0,20,R,17570864,17571048,186,1551.0,432.7,3916,right
46,1,binary,20,2,trial,17568399.0,17575666.0,7267.0,20,R,17571082,17571282,202,1660.0,433.8,3825,right
46,1,binary,20,2,trial,17568399.0,17575666.0,7267.0,20,R,17571300,17571586,288,1643.3,425.7,3639,right
46,1,binary,20,2,trial,17568399.0,17575666.0,7267.0,20,R,17571644,17571806,164,1297.0,457.6,3763,right
46,1,binary,20,2,trial,17568399.0,17575666.0,7267.0,20,R,17571844,17572144,302,1223.6,518.4,3889,right
46,1,binary,20,2,trial,17568399.0,17575666.0,7267.0,20,R,17572224,17572508,286,479.1,493.0,3937,left
46,1,binary,20,2,trial,17568399.0,17575666.0,7267.0,20,R,17572532,17572826,296,380.4,511.0,3674,left
46,1,binary,20,2,trial,17568399.0,17575666.0,7267.0,20,R,17572860,17572990,132,597.3,555.0,3459,left
46,1,binary,20,2,trial,17568399.0,17575666.0,7267.0,20,R,17573032,17573158,128,454.1,1037.1,3445,NA
46,1,binary,20,2,trial,17568399.0,17575666.0,7267.0,20,R,17573178,17573320,144,465.7,1013.8,3445,NA
46,1,binary,20,2,trial,17568399.0,17575666.0,7267.0,20,R,17573392,17573648,258,497.7,550.7,3478,left
46,1,binary,20,2,trial,17568399.0,17575666.0,7267.0,20,R,17573674,17574044,372,561.2,479.5,3509,left
46,1,binary,20,2,trial,17568399.0,17575666.0,7267.0,20,R,17574058,17574234,178,515.0,486.1,3499,left
46,1,binary,20,2,trial,17568399.0,17575666.0,7267.0,20,R,17574300,17574428,130,1560.2,479.9,3434,right
46,1,binary,20,2,trial,17568399.0,17575666.0,7267.0,20,R,17574454,17574702,250,1646.6,426.8,3388,right
46,1,binary,20,2,trial,17568399.0,17575666.0,7267.0,20,R,17574742,17575096,356,1223.9,498.4,3539,right
46,1,binary,20,2,trial,17568399.0,17575666.0,7267.0,20,R,17575154,17575366,214,1615.1,428.1,3739,right
46,1,binary,20,2,trial,17568399.0,17575666.0,7267.0,20,R,17575392,17575856,466,1648.8,411.1,3765,right
46,1,binary,21,2,fixationCross,17576833.0,17581066.0,4233.0,21,R,17576100,17576338,240,689.1,371.2,4036,left
46,1,binary,21,2,fixationCross,17576833.0,17581066.0,4233.0,21,R,17576352,17576520,170,645.6,335.9,4243,NA
46,1,binary,21,2,fixationCross,17576833.0,17581066.0,4233.0,21,R,17576574,17576822,250,950.1,525.7,4184,NA
46,1,binary,21,2,trial,17576833.0,17581066.0,4233.0,21,R,17576848,17576976,130,905.0,477.6,4104,NA
46,1,binary,21,2,trial,17576833.0,17581066.0,4233.0,21,R,17577042,17577412,372,528.8,484.8,4070,left
46,1,binary,21,2,trial,17576833.0,17581066.0,4233.0,21,R,17577496,17577916,422,1483.4,459.3,3568,right
46,1,binary,21,2,trial,17576833.0,17581066.0,4233.0,21,R,17577938,17578132,196,1511.5,394.5,3679,right
46,1,binary,21,2,trial,17576833.0,17581066.0,4233.0,21,R,17578158,17578338,182,1480.7,470.9,3799,right
46,1,binary,21,2,trial,17576833.0,17581066.0,4233.0,21,R,17578392,17578556,166,1534.8,680.7,3886,right
46,1,binary,21,2,trial,17576833.0,17581066.0,4233.0,21,R,17578590,17578710,122,1468.3,701.2,3933,right
46,1,binary,21,2,trial,17576833.0,17581066.0,4233.0,21,R,17578776,17579008,234,452.0,456.6,3966,left
46,1,binary,21,2,trial,17576833.0,17581066.0,4233.0,21,R,17579046,17579170,126,584.5,500.3,3850,left
46,1,binary,21,2,trial,17576833.0,17581066.0,4233.0,21,R,17579222,17579392,172,350.2,484.4,3549,left
46,1,binary,21,2,trial,17576833.0,17581066.0,4233.0,21,R,17579460,17579812,354,1472.0,496.0,3351,right
46,1,binary,21,2,trial,17576833.0,17581066.0,4233.0,21,R,17579846,17580290,446,1375.1,538.0,3767,right
46,1,binary,21,2,trial,17576833.0,17581066.0,4233.0,21,R,17580324,17580674,352,1498.9,556.8,3888,right
46,1,binary,21,2,trial,17576833.0,17581066.0,4233.0,21,R,17580692,17581268,578,1498.7,488.6,3813,right
46,1,binary,22,2,fixationCross,17582517.0,17585950.0,3433.0,22,R,17581476,17581758,284,1250.4,408.9,4025,right
46,1,binary,22,2,fixationCross,17582517.0,17585950.0,3433.0,22,R,17581808,17582046,240,986.2,392.3,4346,NA
46,1,binary,22,2,fixationCross,17582517.0,17585950.0,3433.0,22,R,17582076,17582240,166,898.5,440.8,4436,NA
46,1,binary,22,2,fixationCross,17582517.0,17585950.0,3433.0,22,R,17582282,17582422,142,917.9,450.1,4412,NA
46,1,binary,22,2,trial,17582517.0,17585950.0,3433.0,22,R,17582452,17582588,138,873.9,430.7,4389,NA
46,1,binary,22,2,trial,17582517.0,17585950.0,3433.0,22,R,17582660,17582870,212,588.7,465.8,4423,left
46,1,binary,22,2,trial,17582517.0,17585950.0,3433.0,22,R,17582902,17583210,310,481.4,486.7,3855,left
46,1,binary,22,2,trial,17582517.0,17585950.0,3433.0,22,R,17583278,17583476,200,1517.6,488.9,3448,right
46,1,binary,22,2,trial,17582517.0,17585950.0,3433.0,22,R,17583500,17583828,330,1653.4,484.8,3487,right
46,1,binary,22,2,trial,17582517.0,17585950.0,3433.0,22,R,17583852,17584104,254,1515.2,482.7,3808,right
46,1,binary,22,2,trial,17582517.0,17585950.0,3433.0,22,R,17584134,17584370,238,1238.1,448.7,4008,right
46,1,binary,22,2,trial,17582517.0,17585950.0,3433.0,22,R,17584416,17584696,282,1558.9,476.5,3885,right
46,1,binary,22,2,trial,17582517.0,17585950.0,3433.0,22,R,17584770,17585014,246,426.5,513.1,4082,left
46,1,binary,22,2,trial,17582517.0,17585950.0,3433.0,22,R,17585042,17585278,238,528.1,471.4,3952,left
46,1,binary,22,2,trial,17582517.0,17585950.0,3433.0,22,R,17585306,17585516,212,473.2,486.5,3709,left
46,1,binary,22,2,trial,17582517.0,17585950.0,3433.0,22,R,17585600,17585810,212,1258.9,665.5,3740,right
46,1,binary,22,2,trial,17582517.0,17585950.0,3433.0,22,R,17585856,17586140,286,1502.9,441.3,3797,right
46,1,binary,23,2,fixationCross,17588416.0,17594500.0,6084.0,23,R,17586360,17586750,392,789.1,360.7,4206,NA
46,1,binary,23,2,fixationCross,17588416.0,17594500.0,6084.0,23,R,17586782,17586984,204,926.4,355.7,4410,NA
46,1,binary,23,2,fixationCross,17588416.0,17594500.0,6084.0,23,R,17587026,17587198,174,775.5,358.0,4384,NA
46,1,binary,23,2,fixationCross,17588416.0,17594500.0,6084.0,23,R,17587236,17587382,148,698.0,415.8,4370,left
46,1,binary,23,2,fixationCross,17588416.0,17594500.0,6084.0,23,R,17587406,17587596,192,837.2,454.5,4372,NA
46,1,binary,23,2,fixationCross,17588416.0,17594500.0,6084.0,23,R,17587638,17587862,226,674.9,440.6,4348,left
46,1,binary,23,2,fixationCross,17588416.0,17594500.0,6084.0,23,R,17587886,17588088,204,780.4,456.8,4299,NA
46,1,binary,23,2,fixationCross,17588416.0,17594500.0,6084.0,23,R,17588126,17588384,260,907.4,456.5,4259,NA
46,1,binary,23,2,trial,17588416.0,17594500.0,6084.0,23,R,17588408,17588548,142,804.2,489.5,4309,NA
46,1,binary,23,2,trial,17588416.0,17594500.0,6084.0,23,R,17588608,17588752,146,632.1,467.2,4458,left
46,1,binary,23,2,trial,17588416.0,17594500.0,6084.0,23,R,17588804,17588998,196,445.7,608.8,4066,left
46,1,binary,23,2,trial,17588416.0,17594500.0,6084.0,23,R,17589208,17589408,202,522.9,671.9,3677,left
46,1,binary,23,2,trial,17588416.0,17594500.0,6084.0,23,R,17589434,17589630,198,370.8,688.0,3764,left
46,1,binary,23,2,trial,17588416.0,17594500.0,6084.0,23,R,17589690,17589928,240,1454.1,454.7,3570,right
46,1,binary,23,2,trial,17588416.0,17594500.0,6084.0,23,R,17589962,17590212,252,1296.6,481.0,3545,right
46,1,binary,23,2,trial,17588416.0,17594500.0,6084.0,23,R,17590256,17590394,140,1559.9,573.8,3597,right
46,1,binary,23,2,trial,17588416.0,17594500.0,6084.0,23,R,17590420,17590790,372,1626.3,594.4,3762,right
46,1,binary,23,2,trial,17588416.0,17594500.0,6084.0,23,R,17590822,17591048,228,1391.3,466.8,3824,right
46,1,binary,23,2,trial,17588416.0,17594500.0,6084.0,23,R,17591072,17591380,310,1462.3,463.3,3766,right
46,1,binary,23,2,trial,17588416.0,17594500.0,6084.0,23,R,17591416,17591688,274,1303.9,525.3,3954,right
46,1,binary,23,2,trial,17588416.0,17594500.0,6084.0,23,R,17591710,17591940,232,1290.9,482.5,4007,right
46,1,binary,23,2,trial,17588416.0,17594500.0,6084.0,23,R,17592020,17592322,304,401.9,496.2,4010,left
46,1,binary,23,2,trial,17588416.0,17594500.0,6084.0,23,R,17592352,17592702,352,467.6,615.0,3727,left
46,1,binary,23,2,trial,17588416.0,17594500.0,6084.0,23,R,17592724,17593100,378,469.8,671.3,3651,left
46,1,binary,23,2,trial,17588416.0,17594500.0,6084.0,23,R,17593124,17593326,204,554.1,671.5,3624,left
46,1,binary,23,2,trial,17588416.0,17594500.0,6084.0,23,R,17593396,17593622,228,1436.5,506.6,3518,right
46,1,binary,23,2,trial,17588416.0,17594500.0,6084.0,23,R,17593654,17593800,148,1294.4,497.8,3593,right
46,1,binary,23,2,trial,17588416.0,17594500.0,6084.0,23,R,17593860,17594148,290,1636.6,607.6,3689,right
46,1,binary,23,2,trial,17588416.0,17594500.0,6084.0,23,R,17594168,17594308,142,1622.6,568.5,3783,right
46,1,binary,23,2,trial,17588416.0,17594500.0,6084.0,23,R,17594356,17594738,384,1431.0,456.9,3675,right
46,1,binary,23,2,postResponse,17588416.0,17594500.0,6084.0,23,R,17594784,17594834,52,1062.2,437.5,3828,NA
46,1,binary,24,2,fixationCross,17596250.0,17601766.0,5516.0,24,R,17594934,17594988,56,1062.2,434.4,3897,NA
46,1,binary,24,2,fixationCross,17596250.0,17601766.0,5516.0,24,R,17595030,17595308,280,775.9,368.7,4048,NA
46,1,binary,24,2,fixationCross,17596250.0,17601766.0,5516.0,24,R,17595322,17595526,206,730.7,376.4,4216,left
46,1,binary,24,2,fixationCross,17596250.0,17601766.0,5516.0,24,R,17595578,17595788,212,957.2,432.8,4228,NA
46,1,binary,24,2,fixationCross,17596250.0,17601766.0,5516.0,24,R,17595804,17596058,256,901.4,453.9,4243,NA
46,1,binary,24,2,trial,17596250.0,17601766.0,5516.0,24,R,17596074,17596314,242,945.0,459.3,4328,NA
46,1,binary,24,2,trial,17596250.0,17601766.0,5516.0,24,R,17596328,17596446,120,975.3,464.4,4352,NA
46,1,binary,24,2,trial,17596250.0,17601766.0,5516.0,24,R,17596516,17596692,178,433.1,473.3,4296,left
46,1,binary,24,2,trial,17596250.0,17601766.0,5516.0,24,R,17596714,17596788,76,349.3,450.5,4101,left
46,1,binary,24,2,trial,17596250.0,17601766.0,5516.0,24,R,17596858,17597308,452,1444.0,486.4,3642,right
46,1,binary,24,2,trial,17596250.0,17601766.0,5516.0,24,R,17597346,17597552,208,1577.1,527.2,3711,right
46,1,binary,24,2,trial,17596250.0,17601766.0,5516.0,24,R,17597574,17597750,178,1608.0,432.4,3871,right
46,1,binary,24,2,trial,17596250.0,17601766.0,5516.0,24,R,17597806,17597882,78,1376.3,544.1,4005,right
46,1,binary,24,2,trial,17596250.0,17601766.0,5516.0,24,R,17597922,17598078,158,1641.5,648.8,3933,right
46,1,binary,24,2,trial,17596250.0,17601766.0,5516.0,24,R,17598100,17598552,454,1579.9,640.8,3911,right
46,1,binary,24,2,trial,17596250.0,17601766.0,5516.0,24,R,17598596,17598758,164,1304.8,578.3,3964,right
46,1,binary,24,2,trial,17596250.0,17601766.0,5516.0,24,R,17598818,17599030,214,390.5,515.5,4116,left
46,1,binary,24,2,trial,17596250.0,17601766.0,5516.0,24,R,17599058,17599500,444,371.0,434.3,3824,left
46,1,binary,24,2,trial,17596250.0,17601766.0,5516.0,24,R,17599530,17599922,394,513.2,683.6,3613,left
46,1,binary,24,2,trial,17596250.0,17601766.0,5516.0,24,R,17599944,17600266,324,548.8,595.8,3659,left
46,1,binary,24,2,trial,17596250.0,17601766.0,5516.0,24,R,17600304,17600498,196,363.8,469.8,3582,left
46,1,binary,24,2,trial,17596250.0,17601766.0,5516.0,24,R,17600516,17600742,228,381.7,437.3,3503,left
46,1,binary,24,2,trial,17596250.0,17601766.0,5516.0,24,R,17600810,17601156,348,1483.1,426.4,3346,right
46,1,binary,24,2,trial,17596250.0,17601766.0,5516.0,24,R,17601192,17601438,248,1414.4,504.6,3608,right
46,1,binary,24,2,trial,17596250.0,17601766.0,5516.0,24,R,17601454,17601588,136,1423.7,484.5,3875,right
46,1,binary,24,2,trial,17596250.0,17601766.0,5516.0,24,R,17601612,17602014,404,1353.7,375.8,3879,right
46,1,binary,24,2,postResponse,17596250.0,17601766.0,5516.0,24,R,17602052,17602116,66,1249.8,395.2,3950,right
46,1,binary,25,1,fixationCross,17603000.0,17606166.0,3166.0,25,R,17602190,17602314,126,1256.6,391.4,3907,right
46,1,binary,25,1,fixationCross,17603000.0,17606166.0,3166.0,25,R,17602384,17602692,310,738.3,384.4,4206,NA
46,1,binary,25,1,trial,17603000.0,17606166.0,3166.0,25,R,17602748,17603038,292,973.1,502.3,4277,NA
46,1,binary,25,1,trial,17603000.0,17606166.0,3166.0,25,R,17603066,17603178,114,945.3,525.2,4187,NA
46,1,binary,25,1,trial,17603000.0,17606166.0,3166.0,25,R,17603244,17603374,132,551.6,547.5,4199,left
46,1,binary,25,1,trial,17603000.0,17606166.0,3166.0,25,R,17603450,17603762,314,1496.0,582.0,3798,right
46,1,binary,25,1,trial,17603000.0,17606166.0,3166.0,25,R,17603854,17604134,282,582.9,566.3,3795,left
46,1,binary,25,1,trial,17603000.0,17606166.0,3166.0,25,R,17604156,17604518,364,611.9,494.8,3864,left
46,1,binary,25,1,trial,17603000.0,17606166.0,3166.0,25,R,17604584,17604836,254,1578.6,550.0,3849,right
46,1,binary,25,1,trial,17603000.0,17606166.0,3166.0,25,R,17604868,17605108,242,1344.7,564.5,3892,right
46,1,binary,25,1,trial,17603000.0,17606166.0,3166.0,25,R,17605128,17605338,212,1270.6,570.4,3781,right
46,1,binary,25,1,trial,17603000.0,17606166.0,3166.0,25,R,17605394,17605722,330,485.9,593.6,3799,left
46,1,binary,25,1,trial,17603000.0,17606166.0,3166.0,25,R,17605754,17605968,216,442.1,639.6,3811,left
46,1,binary,25,1,trial,17603000.0,17606166.0,3166.0,25,R,17605994,17606174,182,346.8,573.0,3743,left
46,1,binary,25,1,trial,17603000.0,17606166.0,3166.0,25,R,17606196,17606376,182,369.8,538.7,3752,left
46,1,binary,26,1,fixationCross,17630567.0,17633750.0,3183.0,26,R,17629688,17629942,256,145.7,21.3,3591,NA
46,1,binary,26,1,fixationCross,17630567.0,17633750.0,3183.0,26,R,17630176,17630262,88,1122.5,492.9,3632,NA
46,1,binary,26,1,fixationCross,17630567.0,17633750.0,3183.0,26,R,17630296,17630410,116,1002.0,515.5,3782,NA
46,1,binary,26,1,trial,17630567.0,17633750.0,3183.0,26,R,17630442,17630722,282,964.3,536.1,4129,NA
46,1,binary,26,1,trial,17630567.0,17633750.0,3183.0,26,R,17630792,17630968,178,456.1,430.0,4292,left
46,1,binary,26,1,trial,17630567.0,17633750.0,3183.0,26,R,17631040,17631174,136,478.0,957.7,4005,NA
46,1,binary,26,1,trial,17630567.0,17633750.0,3183.0,26,R,17631204,17631304,102,502.9,993.5,3925,NA
46,1,binary,26,1,trial,17630567.0,17633750.0,3183.0,26,R,17631360,17631496,138,438.2,458.8,3777,left
46,1,binary,26,1,trial,17630567.0,17633750.0,3183.0,26,R,17631520,17631734,216,487.1,402.3,3725,left
46,1,binary,26,1,trial,17630567.0,17633750.0,3183.0,26,R,17631786,17632064,280,478.8,572.5,3795,left
46,1,binary,26,1,trial,17630567.0,17633750.0,3183.0,26,R,17632088,17632278,192,527.6,523.7,3798,left
46,1,binary,26,1,trial,17630567.0,17633750.0,3183.0,26,R,17632354,17632550,198,1462.1,468.8,3658,right
46,1,binary,26,1,trial,17630567.0,17633750.0,3183.0,26,R,17632584,17632906,324,1363.1,467.2,3607,right
46,1,binary,26,1,trial,17630567.0,17633750.0,3183.0,26,R,17632978,17633396,420,467.2,495.3,3805,left
46,1,binary,26,1,trial,17630567.0,17633750.0,3183.0,26,R,17633458,17633552,96,452.8,855.4,4181,NA
46,1,binary,26,1,trial,17630567.0,17633750.0,3183.0,26,R,17633588,17633672,86,529.4,924.8,4212,NA
46,1,binary,26,1,trial,17630567.0,17633750.0,3183.0,26,R,17633740,17633976,238,473.3,450.6,4014,left
46,1,binary,27,1,fixationCross,17635183.0,17637667.0,2484.0,27,R,17634154,17634248,96,1516.6,476.1,3890,right
46,1,binary,27,1,fixationCross,17635183.0,17637667.0,2484.0,27,R,17634492,17634698,208,938.6,366.6,4306,NA
46,1,binary,27,1,fixationCross,17635183.0,17637667.0,2484.0,27,R,17634862,17634894,34,985.3,478.5,4469,NA
46,1,binary,27,1,trial,17635183.0,17637667.0,2484.0,27,R,17635084,17635258,176,947.7,501.6,4127,NA
46,1,binary,27,1,trial,17635183.0,17637667.0,2484.0,27,R,17635276,17635320,46,980.3,509.7,4152,NA
46,1,binary,27,1,trial,17635183.0,17637667.0,2484.0,27,R,17635374,17635560,188,533.1,442.8,4187,left
46,1,binary,27,1,trial,17635183.0,17637667.0,2484.0,27,R,17635592,17635790,200,449.9,498.0,3799,left
46,1,binary,27,1,trial,17635183.0,17637667.0,2484.0,27,R,17635822,17636062,242,528.7,478.9,3431,left
46,1,binary,27,1,trial,17635183.0,17637667.0,2484.0,27,R,17636074,17636182,110,484.9,484.8,3302,left
46,1,binary,27,1,trial,17635183.0,17637667.0,2484.0,27,R,17636258,17636530,274,1511.5,492.1,3244,right
46,1,binary,27,1,trial,17635183.0,17637667.0,2484.0,27,R,17636564,17636792,230,1407.3,509.7,3458,right
46,1,binary,27,1,trial,17635183.0,17637667.0,2484.0,27,R,17636866,17637244,380,447.1,582.3,3853,left
46,1,binary,27,1,postResponse,17635183.0,17637667.0,2484.0,27,R,17637272,17638010,740,412.3,523.6,3679,left
46,1,binary,28,1,fixationCross,17639584.0,17643250.0,3666.0,28,R,17638084,17638188,106,410.2,515.1,3611,left
46,1,binary,28,1,fixationCross,17639584.0,17643250.0,3666.0,28,R,17638236,17638430,196,704.1,421.4,3715,left
46,1,binary,28,1,fixationCross,17639584.0,17643250.0,3666.0,28,R,17638456,17638488,34,867.9,384.8,3786,NA
46,1,binary,28,1,fixationCross,17639584.0,17643250.0,3666.0,28,R,17638684,17639144,462,905.1,372.4,4189,NA
46,1,binary,28,1,fixationCross,17639584.0,17643250.0,3666.0,28,R,17639172,17639362,192,948.8,431.7,4350,NA
46,1,binary,28,1,fixationCross,17639584.0,17643250.0,3666.0,28,R,17639396,17639560,166,896.0,468.5,4260,NA
46,1,binary,28,1,trial,17639584.0,17643250.0,3666.0,28,R,17639592,17639724,134,940.0,451.8,4209,NA
46,1,binary,28,1,trial,17639584.0,17643250.0,3666.0,28,R,17639766,17639946,182,564.2,461.6,4225,left
46,1,binary,28,1,trial,17639584.0,17643250.0,3666.0,28,R,17639978,17640176,200,501.4,499.3,3937,left
46,1,binary,28,1,trial,17639584.0,17643250.0,3666.0,28,R,17640240,17640394,156,1476.2,433.8,3641,right
46,1,binary,28,1,trial,17639584.0,17643250.0,3666.0,28,R,17640416,17640690,276,1535.1,425.8,3562,right
46,1,binary,28,1,trial,17639584.0,17643250.0,3666.0,28,R,17640716,17641404,690,1470.5,476.5,3801,right
46,1,binary,28,1,trial,17639584.0,17643250.0,3666.0,28,R,17641426,17641586,162,1519.6,455.7,3899,right
46,1,binary,28,1,trial,17639584.0,17643250.0,3666.0,28,R,17641662,17641838,178,558.2,513.6,3971,left
46,1,binary,28,1,trial,17639584.0,17643250.0,3666.0,28,R,17641874,17642392,520,477.2,523.3,3868,left
46,1,binary,28,1,trial,17639584.0,17643250.0,3666.0,28,R,17642402,17642598,198,465.6,502.3,3757,left
46,1,binary,28,1,trial,17639584.0,17643250.0,3666.0,28,R,17642638,17643150,514,683.8,460.5,3760,left
46,1,binary,28,1,trial,17639584.0,17643250.0,3666.0,28,R,17643188,17643474,288,468.9,462.1,3679,left
46,1,binary,29,2,fixationCross,17644583.0,17646884.0,2301.0,29,R,17643698,17644088,392,1064.8,348.1,3802,NA
46,1,binary,29,2,fixationCross,17644583.0,17646884.0,2301.0,29,R,17644112,17644290,180,959.8,398.9,4177,NA
46,1,binary,29,2,fixationCross,17644583.0,17646884.0,2301.0,29,R,17644328,17644500,174,941.2,485.2,4315,NA
46,1,binary,29,2,trial,17644583.0,17646884.0,2301.0,29,R,17644526,17644712,188,926.3,518.0,4362,NA
46,1,binary,29,2,trial,17644583.0,17646884.0,2301.0,29,R,17644770,17644964,196,490.4,520.2,4290,left
46,1,binary,29,2,trial,17644583.0,17646884.0,2301.0,29,R,17645030,17645272,244,1454.9,472.0,3751,right
46,1,binary,29,2,trial,17644583.0,17646884.0,2301.0,29,R,17645310,17645422,114,1555.7,517.7,3504,right
46,1,binary,29,2,trial,17644583.0,17646884.0,2301.0,29,R,17645456,17645730,276,1452.6,573.0,3528,right
46,1,binary,29,2,trial,17644583.0,17646884.0,2301.0,29,R,17645750,17646098,350,1479.4,604.1,3742,right
46,1,binary,29,2,trial,17644583.0,17646884.0,2301.0,29,R,17646120,17646312,194,1524.3,506.6,3876,right
46,1,binary,29,2,trial,17644583.0,17646884.0,2301.0,29,R,17646332,17646684,354,1552.6,487.7,3878,right
46,1,binary,29,2,postResponse,17644583.0,17646884.0,2301.0,29,R,17646726,17647220,496,1238.5,494.4,4114,right
46,1,binary,30,1,fixationCross,17648268.0,17650850.0,2582.0,30,R,17647326,17647508,184,978.8,445.9,4306,NA
46,1,binary,30,1,fixationCross,17648268.0,17650850.0,2582.0,30,R,17647784,17647994,212,839.4,459.1,4536,NA
46,1,binary,30,1,fixationCross,17648268.0,17650850.0,2582.0,30,R,17648030,17648250,222,968.7,455.4,4565,NA
46,1,binary,30,1,trial,17648268.0,17650850.0,2582.0,30,R,17648276,17648424,150,760.1,385.9,4227,NA
46,1,binary,30,1,trial,17648268.0,17650850.0,2582.0,30,R,17648470,17648696,228,521.0,606.7,3920,left
46,1,binary,30,1,trial,17648268.0,17650850.0,2582.0,30,R,17648720,17648934,216,451.0,631.4,3568,left
46,1,binary,30,1,trial,17648268.0,17650850.0,2582.0,30,R,17649004,17649448,446,1490.5,494.9,3239,right
46,1,binary,30,1,trial,17648268.0,17650850.0,2582.0,30,R,17649466,17649646,182,1462.7,521.9,3215,right
46,1,binary,30,1,trial,17648268.0,17650850.0,2582.0,30,R,17649828,17650154,328,462.4,585.4,3434,left
46,1,binary,30,1,trial,17648268.0,17650850.0,2582.0,30,R,17650180,17650600,422,406.9,603.5,3565,left
46,1,binary,30,1,trial,17648268.0,17650850.0,2582.0,30,R,17650644,17651082,440,605.3,555.7,3358,left
46,1,binary,30,1,postResponse,17648268.0,17650850.0,2582.0,30,R,17651098,17651180,84,631.2,508.7,3255,left
46,1,binary,31,2,fixationCross,17652200.0,17656484.0,4284.0,31,R,17651254,17651274,22,633.2,509.9,3256,left
46,1,binary,31,2,fixationCross,17652200.0,17656484.0,4284.0,31,R,17651332,17651788,458,988.3,286.9,3518,NA
46,1,binary,31,2,fixationCross,17652200.0,17656484.0,4284.0,31,R,17651830,17651958,130,942.9,432.2,4060,NA
46,1,binary,31,2,trial,17652200.0,17656484.0,4284.0,31,R,17652000,17652224,226,966.3,528.4,4223,NA
46,1,binary,31,2,trial,17652200.0,17656484.0,4284.0,31,R,17652244,17652348,106,875.3,492.1,4234,NA
46,1,binary,31,2,trial,17652200.0,17656484.0,4284.0,31,R,17652406,17652792,388,554.0,522.8,4003,left
46,1,binary,31,2,trial,17652200.0,17656484.0,4284.0,31,R,17652856,17653198,344,1578.8,503.7,3397,right
46,1,binary,31,2,trial,17652200.0,17656484.0,4284.0,31,R,17653222,17653590,370,1451.7,533.5,3488,right
46,1,binary,31,2,trial,17652200.0,17656484.0,4284.0,31,R,17653616,17653836,222,1605.3,478.9,3594,right
46,1,binary,31,2,trial,17652200.0,17656484.0,4284.0,31,R,17653858,17653990,134,1550.5,464.3,3674,right
46,1,binary,31,2,trial,17652200.0,17656484.0,4284.0,31,R,17654072,17654456,386,471.0,504.9,4015,left
46,1,binary,31,2,trial,17652200.0,17656484.0,4284.0,31,R,17654486,17655004,520,610.4,468.5,3607,left
46,1,binary,31,2,trial,17652200.0,17656484.0,4284.0,31,R,17655036,17655414,380,480.7,658.2,3719,left
46,1,binary,31,2,trial,17652200.0,17656484.0,4284.0,31,R,17655438,17655538,102,531.4,623.8,3645,left
46,1,binary,31,2,trial,17652200.0,17656484.0,4284.0,31,R,17655624,17655934,312,1470.8,530.7,3444,right
46,1,binary,31,2,trial,17652200.0,17656484.0,4284.0,31,R,17655964,17656726,764,1564.6,472.1,3656,right
46,1,binary,31,2,postResponse,17652200.0,17656484.0,4284.0,31,R,17656776,17656828,54,1272.8,430.7,3857,right
46,1,binary,32,1,fixationCross,17659834.0,17664183.0,4349.0,32,R,17656902,17657012,112,1267.2,424.8,3824,right
46,1,binary,32,1,fixationCross,17659834.0,17664183.0,4349.0,32,R,17657058,17657448,392,997.7,404.7,4187,NA
46,1,binary,32,1,fixationCross,17659834.0,17664183.0,4349.0,32,R,17657474,17657700,228,931.4,417.3,4432,NA
46,1,binary,32,1,fixationCross,17659834.0,17664183.0,4349.0,32,R,17657722,17657892,172,880.4,429.7,4489,NA
46,1,binary,32,1,fixationCross,17659834.0,17664183.0,4349.0,32,R,17657926,17658060,136,828.0,432.2,4385,NA
46,1,binary,32,1,fixationCross,17659834.0,17664183.0,4349.0,32,R,17658076,17658232,158,870.8,435.6,4225,NA
46,1,binary,32,1,fixationCross,17659834.0,17664183.0,4349.0,32,R,17658270,17658438,170,774.8,431.5,4086,NA
46,1,binary,32,1,fixationCross,17659834.0,17664183.0,4349.0,32,R,17658462,17658668,208,833.6,420.7,4003,NA
46,1,binary,32,1,fixationCross,17659834.0,17664183.0,4349.0,32,R,17658702,17658946,246,969.9,416.2,4006,NA
46,1,binary,32,1,fixationCross,17659834.0,17664183.0,4349.0,32,R,17658976,17659190,216,919.6,443.3,4193,NA
46,1,binary,32,1,fixationCross,17659834.0,17664183.0,4349.0,32,R,17659236,17659408,174,810.4,465.1,4313,NA
46,1,binary,32,1,fixationCross,17659834.0,17664183.0,4349.0,32,R,17659440,17659626,188,738.9,449.4,4289,NA
46,1,binary,32,1,trial,17659834.0,17664183.0,4349.0,32,R,17659656,17659874,220,969.8,490.3,4189,NA
46,1,binary,32,1,trial,17659834.0,17664183.0,4349.0,32,R,17659900,17660014,116,898.1,500.0,4189,NA
46,1,binary,32,1,trial,17659834.0,17664183.0,4349.0,32,R,17660068,17660274,208,575.5,511.3,4203,left
46,1,binary,32,1,trial,17659834.0,17664183.0,4349.0,32,R,17660348,17660568,222,1475.2,507.3,3718,right
46,1,binary,32,1,trial,17659834.0,17664183.0,4349.0,32,R,17660600,17660750,152,1331.5,557.6,3583,right
46,1,binary,32,1,trial,17659834.0,17664183.0,4349.0,32,R,17660834,17661018,186,490.5,480.7,3668,left
46,1,binary,32,1,trial,17659834.0,17664183.0,4349.0,32,R,17661042,17661356,316,579.5,438.5,3734,left
46,1,binary,32,1,trial,17659834.0,17664183.0,4349.0,32,R,17661396,17661644,250,454.2,551.2,3696,left
46,1,binary,32,1,trial,17659834.0,17664183.0,4349.0,32,R,17661664,17661958,296,486.7,528.0,3628,left
46,1,binary,32,1,trial,17659834.0,17664183.0,4349.0,32,R,17662160,17662376,218,394.0,533.5,3571,left
46,1,binary,32,1,trial,17659834.0,17664183.0,4349.0,32,R,17662400,17662486,88,325.0,486.4,3665,left
46,1,binary,32,1,trial,17659834.0,17664183.0,4349.0,32,R,17662552,17662758,208,1510.3,488.3,3645,right
46,1,binary,32,1,trial,17659834.0,17664183.0,4349.0,32,R,17662794,17662960,168,1352.4,539.2,3571,right
46,1,binary,32,1,trial,17659834.0,17664183.0,4349.0,32,R,17662992,17663056,66,1287.0,574.4,3581,right
46,1,binary,32,1,trial,17659834.0,17664183.0,4349.0,32,R,17663222,17663584,364,431.0,521.1,3777,left
46,1,binary,32,1,trial,17659834.0,17664183.0,4349.0,32,R,17663612,17664412,802,589.6,429.3,3656,left
46,1,binary,32,1,postResponse,17659834.0,17664183.0,4349.0,32,R,17664502,17664534,34,1397.6,518.2,3692,right
46,1,binary,33,2,fixationCross,17665651.0,17668484.0,2833.0,33,R,17664634,17664686,54,1403.0,514.4,3809,right
46,1,binary,33,2,fixationCross,17665651.0,17668484.0,2833.0,33,R,17664740,17664958,220,1725.7,590.7,3967,NA
46,1,binary,33,2,fixationCross,17665651.0,17668484.0,2833.0,33,R,17665028,17665208,182,1088.4,552.9,4304,NA
46,1,binary,33,2,fixationCross,17665651.0,17668484.0,2833.0,33,R,17665442,17665586,146,918.5,520.1,4269,NA
46,1,binary,33,2,trial,17665651.0,17668484.0,2833.0,33,R,17665620,17665746,128,991.4,543.8,4323,NA
46,1,binary,33,2,trial,17665651.0,17668484.0,2833.0,33,R,17665772,17665870,100,965.4,536.0,4428,NA
46,1,binary,33,2,trial,17665651.0,17668484.0,2833.0,33,R,17665938,17666098,162,1443.2,458.7,4181,right
46,1,binary,33,2,trial,17665651.0,17668484.0,2833.0,33,R,17666120,17666628,510,1417.2,446.3,3619,right
46,1,binary,33,2,trial,17665651.0,17668484.0,2833.0,33,R,17666692,17666970,280,408.1,536.5,3589,left
46,1,binary,33,2,trial,17665651.0,17668484.0,2833.0,33,R,17666992,17667316,326,420.7,559.3,3624,left
46,1,binary,33,2,trial,17665651.0,17668484.0,2833.0,33,R,17667402,17667510,110,1432.6,912.6,3581,NA
46,1,binary,33,2,trial,17665651.0,17668484.0,2833.0,33,R,17667536,17667628,94,1500.9,967.2,3568,NA
46,1,binary,33,2,trial,17665651.0,17668484.0,2833.0,33,R,17667682,17667886,206,1524.6,464.3,3562,right
46,1,binary,33,2,trial,17665651.0,17668484.0,2833.0,33,R,17667912,17668034,124,1440.8,467.6,3721,right
46,1,binary,33,2,trial,17665651.0,17668484.0,2833.0,33,R,17668076,17668678,604,1567.7,554.4,3696,right
46,1,binary,34,2,fixationCross,17669784.0,17674967.0,5183.0,34,R,17668924,17669258,336,649.3,442.3,4026,left
46,1,binary,34,2,fixationCross,17669784.0,17674967.0,5183.0,34,R,17669300,17669492,194,855.0,473.8,4180,NA
46,1,binary,34,2,fixationCross,17669784.0,17674967.0,5183.0,34,R,17669534,17669728,196,938.7,510.8,3995,NA
46,1,binary,34,2,trial,17669784.0,17674967.0,5183.0,34,R,17669750,17669916,168,965.6,532.1,4038,NA
46,1,binary,34,2,trial,17669784.0,17674967.0,5183.0,34,R,17669970,17670240,272,572.1,489.0,4163,left
46,1,binary,34,2,trial,17669784.0,17674967.0,5183.0,34,R,17670266,17670574,310,426.5,521.5,3891,left
46,1,binary,34,2,trial,17669784.0,17674967.0,5183.0,34,R,17670608,17670884,278,521.0,511.9,3772,left
46,1,binary,34,2,trial,17669784.0,17674967.0,5183.0,34,R,17670966,17671126,162,1451.5,481.0,3628,right
46,1,binary,34,2,trial,17669784.0,17674967.0,5183.0,34,R,17671160,17671336,178,1517.9,467.7,3671,right
46,1,binary,34,2,trial,17669784.0,17674967.0,5183.0,34,R,17671358,17671518,162,1469.3,457.5,3755,right
46,1,binary,34,2,trial,17669784.0,17674967.0,5183.0,34,R,17671614,17671896,284,500.5,490.5,4081,left
46,1,binary,34,2,trial,17669784.0,17674967.0,5183.0,34,R,17671980,17672144,166,1297.1,453.9,3873,right
46,1,binary,34,2,trial,17669784.0,17674967.0,5183.0,34,R,17672168,17672324,158,1258.9,471.2,3789,right
46,1,binary,34,2,trial,17669784.0,17674967.0,5183.0,34,R,17672404,17672718,316,464.7,492.7,4038,left
46,1,binary,34,2,trial,17669784.0,17674967.0,5183.0,34,R,17672752,17673072,322,540.4,503.6,3882,left
46,1,binary,34,2,trial,17669784.0,17674967.0,5183.0,34,R,17673146,17673324,180,1514.2,522.7,3579,right
46,1,binary,34,2,trial,17669784.0,17674967.0,5183.0,34,R,17673348,17673782,436,1493.6,445.9,3538,right
46,1,binary,34,2,trial,17669784.0,17674967.0,5183.0,34,R,17673848,17674192,346,494.0,490.0,3834,left
46,1,binary,34,2,trial,17669784.0,17674967.0,5183.0,34,R,17674218,17674430,214,606.3,508.9,3858,left
46,1,binary,34,2,trial,17669784.0,17674967.0,5183.0,34,R,17674544,17674806,264,1482.1,527.3,3701,right
46,1,binary,34,2,trial,17669784.0,17674967.0,5183.0,34,R,17674834,17675154,322,1491.2,432.8,3919,right
46,1,binary,35,1,fixationCross,17676101.0,17679484.0,3383.0,35,R,17675380,17675786,408,489.5,416.0,4182,left
46,1,binary,35,1,fixationCross,17676101.0,17679484.0,3383.0,35,R,17675848,17676058,212,986.9,503.5,4064,NA
46,1,binary,35,1,trial,17676101.0,17679484.0,3383.0,35,R,17676090,17676234,146,919.0,516.7,3935,NA
46,1,binary,35,1,trial,17676101.0,17679484.0,3383.0,35,R,17676284,17676384,102,595.9,522.5,4061,left
46,1,binary,35,1,trial,17676101.0,17679484.0,3383.0,35,R,17676412,17676576,166,359.2,479.6,3974,left
46,1,binary,35,1,trial,17676101.0,17679484.0,3383.0,35,R,17676598,17676712,116,341.3,437.3,3793,left
46,1,binary,35,1,trial,17676101.0,17679484.0,3383.0,35,R,17676774,17676906,134,741.3,626.2,3648,NA
46,1,binary,35,1,trial,17676101.0,17679484.0,3383.0,35,R,17676960,17677334,376,1436.9,459.9,3467,right
46,1,binary,35,1,trial,17676101.0,17679484.0,3383.0,35,R,17677348,17677962,616,1370.4,462.2,3805,right
46,1,binary,35,1,trial,17676101.0,17679484.0,3383.0,35,R,17678030,17678688,660,568.3,498.9,3875,left
46,1,binary,35,1,trial,17676101.0,17679484.0,3383.0,35,R,17678726,17678906,182,339.8,469.0,3791,left
46,1,binary,35,1,trial,17676101.0,17679484.0,3383.0,35,R,17678930,17679208,280,339.4,434.3,3824,left
46,1,binary,35,1,trial,17676101.0,17679484.0,3383.0,35,R,17679226,17679402,178,409.7,435.7,3730,left
46,1,binary,35,1,trial,17676101.0,17679484.0,3383.0,35,R,17679426,17679714,290,344.3,432.2,3617,left
46,1,binary,36,2,fixationCross,17680701.0,17684050.0,3349.0,36,R,17679918,17680080,164,1622.4,520.4,3476,right
46,1,binary,36,2,fixationCross,17680701.0,17684050.0,3349.0,36,R,17680442,17680648,208,980.3,543.4,4137,NA
46,1,binary,36,2,trial,17680701.0,17684050.0,3349.0,36,R,17680670,17680844,176,958.3,534.3,4216,NA
46,1,binary,36,2,trial,17680701.0,17684050.0,3349.0,36,R,17680890,17681108,220,640.5,490.4,4110,left
46,1,binary,36,2,trial,17680701.0,17684050.0,3349.0,36,R,17681156,17681330,176,425.2,506.9,3621,left
46,1,binary,36,2,trial,17680701.0,17684050.0,3349.0,36,R,17681412,17681548,138,1403.7,524.3,3322,right
46,1,binary,36,2,trial,17680701.0,17684050.0,3349.0,36,R,17681574,17681704,132,1315.0,494.8,3256,right
46,1,binary,36,2,trial,17680701.0,17684050.0,3349.0,36,R,17681746,17681916,172,1546.7,466.2,3208,right
46,1,binary,36,2,trial,17680701.0,17684050.0,3349.0,36,R,17681936,17682426,492,1487.3,454.6,3296,right
46,1,binary,36,2,trial,17680701.0,17684050.0,3349.0,36,R,17682452,17682530,80,1528.4,529.1,3360,right
46,1,binary,36,2,trial,17680701.0,17684050.0,3349.0,36,R,17682608,17682790,184,477.2,506.3,3560,left
46,1,binary,36,2,trial,17680701.0,17684050.0,3349.0,36,R,17682824,17683106,284,644.6,488.6,3654,left
46,1,binary,36,2,trial,17680701.0,17684050.0,3349.0,36,R,17683144,17683270,128,481.8,530.2,3566,left
46,1,binary,36,2,trial,17680701.0,17684050.0,3349.0,36,R,17683352,17683840,490,1436.9,484.2,3477,right
46,1,binary,36,2,trial,17680701.0,17684050.0,3349.0,36,R,17683866,17684046,182,1492.2,462.4,3624,right
46,1,binary,36,2,trial,17680701.0,17684050.0,3349.0,36,R,17684068,17684350,284,1453.9,451.2,3693,right
46,1,binary,37,1,fixationCross,17685183.0,17687601.0,2418.0,37,R,17684460,17684870,412,966.5,380.2,3798,NA
46,1,binary,37,1,fixationCross,17685183.0,17687601.0,2418.0,37,R,17684910,17685100,192,951.7,493.5,4126,NA
46,1,binary,37,1,trial,17685183.0,17687601.0,2418.0,37,R,17685138,17685316,180,962.0,553.3,4282,NA
46,1,binary,37,1,trial,17685183.0,17687601.0,2418.0,37,R,17685372,17685428,58,540.1,560.5,4343,left
46,1,binary,37,1,trial,17685183.0,17687601.0,2418.0,37,R,17685622,17685742,122,537.2,603.2,3818,left
46,1,binary,37,1,trial,17685183.0,17687601.0,2418.0,37,R,17685822,17686026,206,1545.7,534.9,3501,right
46,1,binary,37,1,trial,17685183.0,17687601.0,2418.0,37,R,17686056,17686352,298,1441.6,522.9,3361,right
46,1,binary,37,1,trial,17685183.0,17687601.0,2418.0,37,R,17686428,17686816,390,436.0,586.3,3366,left
46,1,binary,37,1,trial,17685183.0,17687601.0,2418.0,37,R,17686846,17687302,458,523.1,536.4,3407,left
46,1,binary,37,1,trial,17685183.0,17687601.0,2418.0,37,R,17687326,17687808,484,465.8,536.6,3492,left
46,1,binary,38,1,fixationCross,17688900.0,17692751.0,3851.0,38,R,17688012,17688436,426,1304.4,437.2,3707,right
46,1,binary,38,1,fixationCross,17688900.0,17692751.0,3851.0,38,R,17688456,17688586,132,1147.0,480.3,4126,NA
46,1,binary,38,1,fixationCross,17688900.0,17692751.0,3851.0,38,R,17688612,17688796,186,979.6,532.3,4293,NA
46,1,binary,38,1,trial,17688900.0,17692751.0,3851.0,38,R,17688826,17688964,140,937.8,536.6,4333,NA
46,1,binary,38,1,trial,17688900.0,17692751.0,3851.0,38,R,17688986,17689066,82,981.8,543.1,4359,NA
46,1,binary,38,1,trial,17688900.0,17692751.0,3851.0,38,R,17689136,17689458,324,486.4,530.2,4112,left
46,1,binary,38,1,trial,17688900.0,17692751.0,3851.0,38,R,17689486,17689686,202,597.1,603.8,3700,left
46,1,binary,38,1,trial,17688900.0,17692751.0,3851.0,38,R,17689748,17689958,212,1361.2,517.0,3525,right
46,1,binary,38,1,trial,17688900.0,17692751.0,3851.0,38,R,17689998,17690324,328,1500.8,637.3,3512,right
46,1,binary,38,1,trial,17688900.0,17692751.0,3851.0,38,R,17690378,17690530,154,1651.9,355.2,3488,right
46,1,binary,38,1,trial,17688900.0,17692751.0,3851.0,38,R,17690618,17690880,264,451.6,542.5,3619,left
46,1,binary,38,1,trial,17688900.0,17692751.0,3851.0,38,R,17690922,17691208,288,622.6,591.1,3522,left
46,1,binary,38,1,trial,17688900.0,17692751.0,3851.0,38,R,17691236,17691496,262,416.0,514.8,3606,left
46,1,binary,38,1,trial,17688900.0,17692751.0,3851.0,38,R,17691542,17691810,270,658.2,549.0,3662,left
46,1,binary,38,1,trial,17688900.0,17692751.0,3851.0,38,R,17691870,17692126,258,1399.6,518.1,3672,right
46,1,binary,38,1,trial,17688900.0,17692751.0,3851.0,38,R,17692174,17692260,88,1316.2,638.1,3754,right
46,1,binary,38,1,trial,17688900.0,17692751.0,3851.0,38,R,17692330,17692686,358,410.9,567.4,3743,left
46,1,binary,38,1,trial,17688900.0,17692751.0,3851.0,38,R,17692708,17693048,342,537.2,502.9,3694,left
46,1,binary,39,2,fixationCross,17694051.0,17696284.0,2233.0,39,R,17693172,17693248,78,543.9,459.9,3729,left
46,1,binary,39,2,fixationCross,17694051.0,17696284.0,2233.0,39,R,17693338,17693564,228,1325.1,340.2,3807,NA
46,1,binary,39,2,fixationCross,17694051.0,17696284.0,2233.0,39,R,17693608,17693750,144,1022.1,438.1,4149,NA
46,1,binary,39,2,fixationCross,17694051.0,17696284.0,2233.0,39,R,17693788,17693930,144,947.4,530.8,4247,NA
46,1,binary,39,2,trial,17694051.0,17696284.0,2233.0,39,R,17693952,17694082,132,983.6,536.2,4275,NA
46,1,binary,39,2,trial,17694051.0,17696284.0,2233.0,39,R,17694104,17694224,122,963.3,533.9,4286,NA
46,1,binary,39,2,trial,17694051.0,17696284.0,2233.0,39,R,17694292,17694510,220,517.9,519.2,4195,left
46,1,binary,39,2,trial,17694051.0,17696284.0,2233.0,39,R,17694530,17694704,176,455.5,537.9,3909,left
46,1,binary,39,2,trial,17694051.0,17696284.0,2233.0,39,R,17694728,17694902,176,526.9,479.3,3787,left
46,1,binary,39,2,trial,17694051.0,17696284.0,2233.0,39,R,17694972,17695298,328,1484.8,451.4,3639,right
46,1,binary,39,2,trial,17694051.0,17696284.0,2233.0,39,R,17695326,17695858,534,1574.3,570.3,3775,right
46,1,binary,39,2,trial,17694051.0,17696284.0,2233.0,39,R,17695880,17696470,592,1405.9,526.8,3912,right
46,1,binary,40,1,fixationCross,17697368.0,17702118.0,4750.0,40,R,17696712,17696908,198,713.0,422.8,4115,left
46,1,binary,40,1,fixationCross,17697368.0,17702118.0,4750.0,40,R,17696970,17697096,128,1279.9,487.5,4114,right
46,1,binary,40,1,fixationCross,17697368.0,17702118.0,4750.0,40,R,17697138,17697268,132,994.0,486.3,4362,NA
46,1,binary,40,1,trial,17697368.0,17702118.0,4750.0,40,R,17697306,17697508,204,953.2,536.8,4367,NA
46,1,binary,40,1,trial,17697368.0,17702118.0,4750.0,40,R,17697570,17697690,122,598.4,491.5,4322,left
46,1,binary,40,1,trial,17697368.0,17702118.0,4750.0,40,R,17697764,17697920,158,1379.4,444.8,3876,right
46,1,binary,40,1,trial,17697368.0,17702118.0,4750.0,40,R,17697940,17698194,256,1370.8,424.9,3680,right
46,1,binary,40,1,trial,17697368.0,17702118.0,4750.0,40,R,17698256,17698452,198,582.0,498.4,3719,left
46,1,binary,40,1,trial,17697368.0,17702118.0,4750.0,40,R,17698486,17698828,344,653.3,468.1,3778,left
46,1,binary,40,1,trial,17697368.0,17702118.0,4750.0,40,R,17698894,17699026,134,1399.4,447.6,3574,right
46,1,binary,40,1,trial,17697368.0,17702118.0,4750.0,40,R,17699048,17700248,1202,1374.5,422.1,3749,right
46,1,binary,40,1,trial,17697368.0,17702118.0,4750.0,40,R,17700340,17700492,154,570.1,473.2,4184,left
46,1,binary,40,1,trial,17697368.0,17702118.0,4750.0,40,R,17700524,17700722,200,634.9,466.8,4118,left
46,1,binary,40,1,trial,17697368.0,17702118.0,4750.0,40,R,17700744,17700898,156,662.0,477.7,3824,left
46,1,binary,40,1,trial,17697368.0,17702118.0,4750.0,40,R,17700928,17701192,266,608.8,479.5,3661,left
46,1,binary,40,1,trial,17697368.0,17702118.0,4750.0,40,R,17701214,17701552,340,654.1,490.5,3755,left
46,1,binary,40,1,trial,17697368.0,17702118.0,4750.0,40,R,17701576,17702298,724,638.8,490.1,3776,left
46,1,binary,40,1,postResponse,17697368.0,17702118.0,4750.0,40,R,17702394,17702454,62,1048.3,372.3,3819,NA
46,1,binary,41,2,fixationCross,17703284.0,17709351.0,6067.0,41,R,17702554,17702582,30,1048.1,374.5,3903,NA
46,1,binary,41,2,fixationCross,17703284.0,17709351.0,6067.0,41,R,17702606,17702850,246,989.1,390.0,4020,NA
46,1,binary,41,2,fixationCross,17703284.0,17709351.0,6067.0,41,R,17702874,17702992,120,903.0,417.4,4180,NA
46,1,binary,41,2,fixationCross,17703284.0,17709351.0,6067.0,41,R,17703048,17703150,104,972.7,548.4,4292,NA
46,1,binary,41,2,trial,17703284.0,17709351.0,6067.0,41,R,17703170,17703418,250,951.1,545.7,4324,NA
46,1,binary,41,2,trial,17703284.0,17709351.0,6067.0,41,R,17703486,17703752,268,474.7,530.9,4185,left
46,1,binary,41,2,trial,17703284.0,17709351.0,6067.0,41,R,17703772,17703968,198,377.9,508.3,3674,left
46,1,binary,41,2,trial,17703284.0,17709351.0,6067.0,41,R,17704044,17704344,302,1443.5,498.8,3423,right
46,1,binary,41,2,trial,17703284.0,17709351.0,6067.0,41,R,17704374,17704500,128,1531.9,501.1,3546,right
46,1,binary,41,2,trial,17703284.0,17709351.0,6067.0,41,R,17704568,17704842,276,460.8,543.7,3798,left
46,1,binary,41,2,trial,17703284.0,17709351.0,6067.0,41,R,17704868,17705310,444,360.5,507.6,3538,left
46,1,binary,41,2,trial,17703284.0,17709351.0,6067.0,41,R,17705334,17706074,742,471.3,539.6,3638,left
46,1,binary,41,2,trial,17703284.0,17709351.0,6067.0,41,R,17706100,17706552,454,408.6,573.2,4040,left
46,1,binary,41,2,trial,17703284.0,17709351.0,6067.0,41,R,17706564,17706760,198,437.1,550.2,4052,left
46,1,binary,41,2,trial,17703284.0,17709351.0,6067.0,41,R,17706778,17707008,232,332.3,522.5,3982,left
46,1,binary,41,2,trial,17703284.0,17709351.0,6067.0,41,R,17707042,17707354,314,424.0,512.3,3912,left
46,1,binary,41,2,trial,17703284.0,17709351.0,6067.0,41,R,17707374,17707636,264,384.4,530.2,3828,left
46,1,binary,41,2,trial,17703284.0,17709351.0,6067.0,41,R,17707660,17707798,140,530.1,586.4,3724,left
46,1,binary,41,2,trial,17703284.0,17709351.0,6067.0,41,R,17707870,17708076,208,1395.9,507.6,3611,right
46,1,binary,41,2,trial,17703284.0,17709351.0,6067.0,41,R,17708108,17708706,600,1493.9,516.1,3599,right
46,1,binary,41,2,trial,17703284.0,17709351.0,6067.0,41,R,17708730,17708926,198,1591.3,514.1,3494,right
46,1,binary,41,2,trial,17703284.0,17709351.0,6067.0,41,R,17708946,17709280,336,1475.3,498.6,3581,right
46,1,binary,41,2,trial,17703284.0,17709351.0,6067.0,41,R,17709304,17709510,208,1347.2,479.9,3826,right
46,1,binary,42,2,fixationCross,17710667.0,17715051.0,4384.0,42,R,17709764,17709876,114,471.1,502.5,4057,left
46,1,binary,42,2,fixationCross,17710667.0,17715051.0,4384.0,42,R,17710086,17710322,238,497.5,426.5,4160,left
46,1,binary,42,2,fixationCross,17710667.0,17715051.0,4384.0,42,R,17710364,17710580,218,908.9,499.8,4168,NA
46,1,binary,42,2,trial,17710667.0,17715051.0,4384.0,42,R,17710610,17710750,142,972.8,517.5,3963,NA
46,1,binary,42,2,trial,17710667.0,17715051.0,4384.0,42,R,17710810,17710968,160,559.9,463.1,3926,left
46,1,binary,42,2,trial,17710667.0,17715051.0,4384.0,42,R,17711008,17711164,158,509.1,589.7,3834,left
46,1,binary,42,2,trial,17710667.0,17715051.0,4384.0,42,R,17711232,17711436,206,1403.2,515.0,3540,right
46,1,binary,42,2,trial,17710667.0,17715051.0,4384.0,42,R,17711470,17711694,226,1302.7,553.5,3586,right
46,1,binary,42,2,trial,17710667.0,17715051.0,4384.0,42,R,17711716,17711994,280,1426.6,557.0,3885,right
46,1,binary,42,2,trial,17710667.0,17715051.0,4384.0,42,R,17712020,17712146,128,1265.5,557.4,4129,right
46,1,binary,42,2,trial,17710667.0,17715051.0,4384.0,42,R,17712316,17712520,206,417.9,550.7,4152,left
46,1,binary,42,2,trial,17710667.0,17715051.0,4384.0,42,R,17712552,17712730,180,597.7,553.3,4159,left
46,1,binary,42,2,trial,17710667.0,17715051.0,4384.0,42,R,17712808,17713012,206,1401.4,570.5,3770,right
46,1,binary,42,2,trial,17710667.0,17715051.0,4384.0,42,R,17713036,17713238,204,1305.0,559.7,3756,right
46,1,binary,42,2,trial,17710667.0,17715051.0,4384.0,42,R,17713316,17713554,240,511.2,537.7,4050,left
46,1,binary,42,2,trial,17710667.0,17715051.0,4384.0,42,R,17713596,17713790,196,636.1,587.0,3919,left
46,1,binary,42,2,trial,17710667.0,17715051.0,4384.0,42,R,17713866,17714020,156,1430.9,547.0,3605,right
46,1,binary,42,2,trial,17710667.0,17715051.0,4384.0,42,R,17714046,17714228,184,1283.0,554.4,3693,right
46,1,binary,42,2,trial,17710667.0,17715051.0,4384.0,42,R,17714294,17714602,310,494.9,538.5,4044,left
46,1,binary,42,2,trial,17710667.0,17715051.0,4384.0,42,R,17714680,17715036,358,1499.3,542.2,3687,right
46,1,binary,42,2,trial,17710667.0,17715051.0,4384.0,42,R,17715062,17715258,198,1363.4,535.8,3803,right
46,1,binary,43,2,fixationCross,17716084.0,17719068.0,2984.0,43,R,17715462,17715774,314,574.4,360.2,4238,left
46,1,binary,43,2,fixationCross,17716084.0,17719068.0,2984.0,43,R,17715814,17716016,204,941.8,459.2,4371,NA
46,1,binary,43,2,trial,17716084.0,17719068.0,2984.0,43,R,17716054,17716242,190,957.2,543.3,4345,NA
46,1,binary,43,2,trial,17716084.0,17719068.0,2984.0,43,R,17716312,17716486,176,478.7,549.8,4313,left
46,1,binary,43,2,trial,17716084.0,17719068.0,2984.0,43,R,17716522,17716646,126,602.4,520.4,4013,left
46,1,binary,43,2,trial,17716084.0,17719068.0,2984.0,43,R,17716728,17717032,306,1395.7,545.1,3599,right
46,1,binary,43,2,trial,17716084.0,17719068.0,2984.0,43,R,17717070,17717328,260,1547.0,611.5,3502,right
46,1,binary,43,2,trial,17716084.0,17719068.0,2984.0,43,R,17717348,17717690,344,1488.6,569.2,3665,right
46,1,binary,43,2,trial,17716084.0,17719068.0,2984.0,43,R,17717704,17718004,302,1504.4,549.5,3809,right
46,1,binary,43,2,trial,17716084.0,17719068.0,2984.0,43,R,17718084,17718346,264,533.5,584.6,3885,left
46,1,binary,43,2,trial,17716084.0,17719068.0,2984.0,43,R,17718374,17718592,220,614.0,541.8,3690,left
46,1,binary,43,2,trial,17716084.0,17719068.0,2984.0,43,R,17718668,17719250,584,1498.1,550.1,3484,right
46,1,binary,44,2,fixationCross,17720185.0,17723185.0,3000.0,44,R,17719534,17719876,344,752.7,528.0,3829,NA
46,1,binary,44,2,trial,17720185.0,17723185.0,3000.0,44,R,17719912,17720250,340,917.5,489.2,3978,NA
46,1,binary,44,2,trial,17720185.0,17723185.0,3000.0,44,R,17720266,17720358,94,905.7,496.7,3884,NA
46,1,binary,44,2,trial,17720185.0,17723185.0,3000.0,44,R,17720404,17720702,300,527.9,496.9,3909,left
46,1,binary,44,2,trial,17720185.0,17723185.0,3000.0,44,R,17720724,17720966,244,537.4,526.6,3706,left
46,1,binary,44,2,trial,17720185.0,17723185.0,3000.0,44,R,17720988,17721376,390,499.4,554.4,3538,left
46,1,binary,44,2,trial,17720185.0,17723185.0,3000.0,44,R,17721396,17721682,288,409.5,603.9,3567,left
46,1,binary,44,2,trial,17720185.0,17723185.0,3000.0,44,R,17721708,17721880,174,524.3,495.5,3509,left
46,1,binary,44,2,trial,17720185.0,17723185.0,3000.0,44,R,17721948,17722182,236,1441.9,480.1,3421,right
46,1,binary,44,2,trial,17720185.0,17723185.0,3000.0,44,R,17722206,17722382,178,1572.4,511.8,3513,right
46,1,binary,44,2,trial,17720185.0,17723185.0,3000.0,44,R,17722402,17722992,592,1622.8,477.0,3783,right
46,1,binary,44,2,trial,17720185.0,17723185.0,3000.0,44,R,17723020,17723374,356,1434.0,514.5,4029,right
46,1,binary,45,1,fixationCross,17724485.0,17728785.0,4300.0,45,R,17723620,17723844,226,1075.9,380.3,4241,NA
46,1,binary,45,1,fixationCross,17724485.0,17728785.0,4300.0,45,R,17723904,17724166,264,682.0,391.2,4478,left
46,1,binary,45,1,fixationCross,17724485.0,17728785.0,4300.0,45,R,17724220,17724480,262,925.4,500.8,4324,NA
46,1,binary,45,1,trial,17724485.0,17728785.0,4300.0,45,R,17724514,17724632,120,824.6,478.1,4163,NA
46,1,binary,45,1,trial,17724485.0,17728785.0,4300.0,45,R,17724690,17724842,154,554.8,443.4,4282,left
46,1,binary,45,1,trial,17724485.0,17728785.0,4300.0,45,R,17724868,17725060,194,396.0,479.1,3975,left
46,1,binary,45,1,trial,17724485.0,17728785.0,4300.0,45,R,17725096,17725256,162,602.9,436.9,3993,left
46,1,binary,45,1,trial,17724485.0,17728785.0,4300.0,45,R,17725288,17725428,142,513.2,449.5,3915,left
46,1,binary,45,1,trial,17724485.0,17728785.0,4300.0,45,R,17725452,17725672,222,353.2,473.7,3998,left
46,1,binary,45,1,trial,17724485.0,17728785.0,4300.0,45,R,17725726,17725960,236,507.4,979.1,4279,NA
46,1,binary,45,1,trial,17724485.0,17728785.0,4300.0,45,R,17726020,17726222,204,1443.1,475.1,4051,right
46,1,binary,45,1,trial,17724485.0,17728785.0,4300.0,45,R,17726242,17726418,178,1382.5,459.0,3950,right
46,1,binary,45,1,trial,17724485.0,17728785.0,4300.0,45,R,17726456,17726798,344,1474.5,536.2,3828,right
46,1,binary,45,1,trial,17724485.0,17728785.0,4300.0,45,R,17726818,17727052,236,1445.8,533.5,4007,right
46,1,binary,45,1,trial,17724485.0,17728785.0,4300.0,45,R,17727086,17727276,192,1536.5,541.5,4068,right
46,1,binary,45,1,trial,17724485.0,17728785.0,4300.0,45,R,17727358,17727920,564,469.0,493.7,4011,left
46,1,binary,45,1,trial,17724485.0,17728785.0,4300.0,45,R,17727958,17728290,334,623.8,463.4,4010,left
46,1,binary,45,1,trial,17724485.0,17728785.0,4300.0,45,R,17728318,17728662,346,369.8,474.2,4060,left
46,1,binary,45,1,trial,17724485.0,17728785.0,4300.0,45,R,17728684,17728826,144,353.9,468.4,4093,left
46,1,binary,45,1,trial,17724485.0,17728785.0,4300.0,45,R,17728872,17729062,192,602.0,493.7,4127,left
46,1,binary,46,1,fixationCross,17730085.0,17735418.0,5333.0,46,R,17729194,17729314,122,625.3,380.7,4127,left
46,1,binary,46,1,fixationCross,17730085.0,17735418.0,5333.0,46,R,17729400,17729610,212,1369.4,321.7,4177,NA
46,1,binary,46,1,fixationCross,17730085.0,17735418.0,5333.0,46,R,17729638,17729762,126,1129.8,383.0,4446,NA
46,1,binary,46,1,fixationCross,17730085.0,17735418.0,5333.0,46,R,17729806,17729902,98,994.9,477.4,4609,NA
46,1,binary,46,1,trial,17730085.0,17735418.0,5333.0,46,R,17729928,17730216,290,947.8,528.2,4628,NA
46,1,binary,46,1,trial,17730085.0,17735418.0,5333.0,46,R,17730272,17730492,222,528.6,517.8,4491,left
46,1,binary,46,1,trial,17730085.0,17735418.0,5333.0,46,R,17730574,17730754,182,1436.9,463.0,3700,right
46,1,binary,46,1,trial,17730085.0,17735418.0,5333.0,46,R,17730778,17730960,184,1543.0,509.1,3520,right
46,1,binary,46,1,trial,17730085.0,17735418.0,5333.0,46,R,17730996,17731690,696,1420.6,556.8,3705,right
46,1,binary,46,1,trial,17730085.0,17735418.0,5333.0,46,R,17731776,17732032,258,410.5,566.6,4028,left
46,1,binary,46,1,trial,17730085.0,17735418.0,5333.0,46,R,17732064,17732478,416,521.2,553.9,3782,left
46,1,binary,46,1,trial,17730085.0,17735418.0,5333.0,46,R,17732554,17732848,296,1468.9,548.0,3411,right
46,1,binary,46,1,trial,17730085.0,17735418.0,5333.0,46,R,17732872,17733082,212,1417.5,565.1,3531,right
46,1,binary,46,1,trial,17730085.0,17735418.0,5333.0,46,R,17733096,17733332,238,1449.2,562.5,3675,right
46,1,binary,46,1,trial,17730085.0,17735418.0,5333.0,46,R,17733414,17733818,406,422.7,567.0,3916,left
46,1,binary,46,1,trial,17730085.0,17735418.0,5333.0,46,R,17733850,17734054,206,510.4,539.0,3764,left
46,1,binary,46,1,trial,17730085.0,17735418.0,5333.0,46,R,17734086,17734322,238,422.9,539.1,3682,left
46,1,binary,46,1,trial,17730085.0,17735418.0,5333.0,46,R,17734360,17734510,152,539.2,578.6,3767,left
46,1,binary,46,1,trial,17730085.0,17735418.0,5333.0,46,R,17734536,17734848,314,397.3,578.0,3671,left
46,1,binary,46,1,trial,17730085.0,17735418.0,5333.0,46,R,17734928,17735162,236,1480.8,535.0,3374,right
46,1,binary,46,1,trial,17730085.0,17735418.0,5333.0,46,R,17735192,17735372,182,1412.9,557.1,3436,right
46,1,binary,46,1,trial,17730085.0,17735418.0,5333.0,46,R,17735468,17735690,224,379.8,583.3,3838,left
46,1,binary,47,2,fixationCross,17736951.0,17740452.0,3501.0,47,R,17735882,17736060,180,753.0,326.2,3721,NA
46,1,binary,47,2,fixationCross,17736951.0,17740452.0,3501.0,47,R,17736340,17736452,114,784.6,462.0,4194,NA
46,1,binary,47,2,fixationCross,17736951.0,17740452.0,3501.0,47,R,17736484,17736656,174,867.3,452.4,4334,NA
46,1,binary,47,2,fixationCross,17736951.0,17740452.0,3501.0,47,R,17736690,17736886,198,986.9,470.2,4389,NA
46,1,binary,47,2,trial,17736951.0,17740452.0,3501.0,47,R,17736918,17737090,174,903.1,471.4,4266,NA
46,1,binary,47,2,trial,17736951.0,17740452.0,3501.0,47,R,17737148,17737362,216,566.7,496.1,4170,left
46,1,binary,47,2,trial,17736951.0,17740452.0,3501.0,47,R,17737408,17737472,66,516.5,555.7,3957,left
46,1,binary,47,2,trial,17736951.0,17740452.0,3501.0,47,R,17737530,17737686,158,1490.0,429.6,3635,right
46,1,binary,47,2,trial,17736951.0,17740452.0,3501.0,47,R,17737710,17737972,264,1477.7,394.5,3589,right
46,1,binary,47,2,trial,17736951.0,17740452.0,3501.0,47,R,17738008,17738170,164,1496.2,491.8,3656,right
46,1,binary,47,2,trial,17736951.0,17740452.0,3501.0,47,R,17738192,17738348,158,1464.1,479.7,3784,right
46,1,binary,47,2,trial,17736951.0,17740452.0,3501.0,47,R,17738368,17738624,258,1475.7,448.9,3743,right
46,1,binary,47,2,trial,17736951.0,17740452.0,3501.0,47,R,17738644,17739280,638,1462.2,395.9,3881,right
46,1,binary,47,2,trial,17736951.0,17740452.0,3501.0,47,R,17739360,17739714,356,515.9,511.7,4061,left
46,1,binary,47,2,trial,17736951.0,17740452.0,3501.0,47,R,17739796,17740072,278,1520.9,507.5,3786,right
46,1,binary,47,2,trial,17736951.0,17740452.0,3501.0,47,R,17740090,17740340,252,1453.6,495.8,3693,right
46,1,binary,47,2,trial,17736951.0,17740452.0,3501.0,47,R,17740356,17740732,378,1470.0,459.7,3594,right
46,1,binary,48,1,fixationCross,17741552.0,17745968.0,4416.0,48,R,17740994,17741252,260,717.9,507.4,3970,left
46,1,binary,48,1,trial,17741552.0,17745968.0,4416.0,48,R,17741294,17741680,388,963.1,511.1,4276,NA
46,1,binary,48,1,trial,17741552.0,17745968.0,4416.0,48,R,17741748,17741874,128,496.3,477.8,4245,left
46,1,binary,48,1,trial,17741552.0,17745968.0,4416.0,48,R,17741906,17742310,406,414.8,462.3,3769,left
46,1,binary,48,1,trial,17741552.0,17745968.0,4416.0,48,R,17742340,17742532,194,479.1,454.7,3552,left
46,1,binary,48,1,trial,17741552.0,17745968.0,4416.0,48,R,17742616,17742768,154,1491.5,474.7,3522,right
46,1,binary,48,1,trial,17741552.0,17745968.0,4416.0,48,R,17742792,17743038,248,1389.5,442.3,3648,right
46,1,binary,48,1,trial,17741552.0,17745968.0,4416.0,48,R,17743052,17743314,264,1436.4,420.2,3621,right
46,1,binary,48,1,trial,17741552.0,17745968.0,4416.0,48,R,17743346,17743470,126,1517.9,548.6,3632,right
46,1,binary,48,1,trial,17741552.0,17745968.0,4416.0,48,R,17743494,17743810,318,1475.8,515.0,3707,right
46,1,binary,48,1,trial,17741552.0,17745968.0,4416.0,48,R,17743896,17744164,270,408.8,477.2,3700,left
46,1,binary,48,1,trial,17741552.0,17745968.0,4416.0,48,R,17744186,17744526,342,456.8,458.4,3621,left
46,1,binary,48,1,trial,17741552.0,17745968.0,4416.0,48,R,17744548,17744942,396,438.8,479.0,3637,left
46,1,binary,48,1,trial,17741552.0,17745968.0,4416.0,48,R,17745002,17745202,202,1463.0,445.3,3493,right
46,1,binary,48,1,trial,17741552.0,17745968.0,4416.0,48,R,17745234,17745524,292,1389.2,430.5,3508,right
46,1,binary,48,1,trial,17741552.0,17745968.0,4416.0,48,R,17745550,17745716,168,1494.8,508.7,3503,right
46,1,binary,48,1,trial,17741552.0,17745968.0,4416.0,48,R,17745804,17745990,188,447.6,521.4,3917,left
46,1,binary,48,1,postResponse,17741552.0,17745968.0,4416.0,48,R,17746016,17746298,284,430.0,468.8,3839,left
46,1,binary,49,1,fixationCross,17747252.0,17749952.0,2700.0,49,R,17746386,17746642,258,420.9,375.2,3824,left
46,1,binary,49,1,fixationCross,17747252.0,17749952.0,2700.0,49,R,17746708,17746950,244,964.5,405.5,4043,NA
46,1,binary,49,1,trial,17747252.0,17749952.0,2700.0,49,R,17746976,17747394,420,915.7,474.8,4198,NA
46,1,binary,49,1,trial,17747252.0,17749952.0,2700.0,49,R,17747458,17747614,158,528.8,508.8,4386,left
46,1,binary,49,1,trial,17747252.0,17749952.0,2700.0,49,R,17747652,17747866,216,415.2,543.2,4019,left
46,1,binary,49,1,trial,17747252.0,17749952.0,2700.0,49,R,17747896,17748566,672,417.8,575.0,4079,left
46,1,binary,49,1,trial,17747252.0,17749952.0,2700.0,49,R,17748644,17749016,374,1424.1,504.7,4052,right
46,1,binary,49,1,trial,17747252.0,17749952.0,2700.0,49,R,17749036,17749298,264,1353.5,516.2,3937,right
46,1,binary,49,1,trial,17747252.0,17749952.0,2700.0,49,R,17749380,17749508,130,447.1,618.7,4170,left
46,1,binary,49,1,trial,17747252.0,17749952.0,2700.0,49,R,17749538,17749770,234,543.7,579.0,4219,left
46,1,binary,49,1,trial,17747252.0,17749952.0,2700.0,49,R,17749790,17750258,470,524.2,520.9,4454,left
46,1,binary,50,2,fixationCross,17751268.0,17755835.0,4567.0,50,R,17750540,17750954,416,910.9,437.8,4474,NA
46,1,binary,50,2,fixationCross,17751268.0,17755835.0,4567.0,50,R,17750986,17751164,180,981.8,452.5,4708,NA
46,1,binary,50,2,trial,17751268.0,17755835.0,4567.0,50,R,17751196,17751400,206,925.6,479.0,4675,NA
46,1,binary,50,2,trial,17751268.0,17755835.0,4567.0,50,R,17751450,17751592,144,594.4,479.4,4641,left
46,1,binary,50,2,trial,17751268.0,17755835.0,4567.0,50,R,17751626,17751826,202,476.3,520.1,4137,left
46,1,binary,50,2,trial,17751268.0,17755835.0,4567.0,50,R,17751884,17752164,282,1359.0,489.7,3485,right
46,1,binary,50,2,trial,17751268.0,17755835.0,4567.0,50,R,17752190,17752600,412,1532.4,529.2,3357,right
46,1,binary,50,2,trial,17751268.0,17755835.0,4567.0,50,R,17752630,17752942,314,1317.5,550.5,3696,right
46,1,binary,50,2,trial,17751268.0,17755835.0,4567.0,50,R,17752968,17753332,366,1442.2,511.5,3831,right
46,1,binary,50,2,trial,17751268.0,17755835.0,4567.0,50,R,17753374,17753564,192,1577.4,570.9,3759,right
46,1,binary,50,2,trial,17751268.0,17755835.0,4567.0,50,R,17753604,17753890,288,1415.7,528.2,3789,right
46,1,binary,50,2,trial,17751268.0,17755835.0,4567.0,50,R,17753912,17754106,196,1303.6,481.5,3702,right
46,1,binary,50,2,trial,17751268.0,17755835.0,4567.0,50,R,17754168,17754316,150,561.9,530.9,3764,left
46,1,binary,50,2,trial,17751268.0,17755835.0,4567.0,50,R,17754350,17754924,576,462.1,532.3,3599,left
46,1,binary,50,2,trial,17751268.0,17755835.0,4567.0,50,R,17754982,17755334,354,1447.1,446.6,3230,right
46,1,binary,50,2,trial,17751268.0,17755835.0,4567.0,50,R,17755358,17755820,464,1557.2,522.6,3380,right
46,1,binary,50,2,trial,17751268.0,17755835.0,4567.0,50,R,17755842,17756074,234,1316.6,512.8,3660,right
46,2,continuous,1,62,fixationCross,17856369.0,17861370.0,5001.0,51,R,17855282,17855384,104,923.9,834.6,4472,likertHorizontal
46,2,continuous,1,62,fixationCross,17856369.0,17861370.0,5001.0,51,R,17855410,17855676,268,845.3,827.0,4522,likertHorizontal
46,2,continuous,1,62,fixationCross,17856369.0,17861370.0,5001.0,51,R,17855958,17856104,148,892.0,300.2,4250,NA
46,2,continuous,1,62,fixationCross,17856369.0,17861370.0,5001.0,51,R,17856160,17856308,150,959.6,460.4,4330,NA
46,2,continuous,1,62,trial,17856369.0,17861370.0,5001.0,51,R,17856340,17856434,96,959.1,500.3,4374,NA
46,2,continuous,1,62,trial,17856369.0,17861370.0,5001.0,51,R,17856598,17856946,350,515.6,465.7,3928,left
46,2,continuous,1,62,trial,17856369.0,17861370.0,5001.0,51,R,17857012,17857100,90,818.4,874.8,3731,likertHorizontal
46,2,continuous,1,62,trial,17856369.0,17861370.0,5001.0,51,R,17857134,17857222,90,969.8,925.6,3564,likertHorizontal
46,2,continuous,1,62,trial,17856369.0,17861370.0,5001.0,51,R,17857278,17857484,208,479.0,507.6,3515,left
46,2,continuous,1,62,trial,17856369.0,17861370.0,5001.0,51,R,17857508,17857608,102,516.7,506.7,3554,left
46,2,continuous,1,62,trial,17856369.0,17861370.0,5001.0,51,R,17857670,17858326,658,1517.0,484.4,3645,right
46,2,continuous,1,62,trial,17856369.0,17861370.0,5001.0,51,R,17858344,17858640,298,1601.9,467.9,3858,right
46,2,continuous,1,62,trial,17856369.0,17861370.0,5001.0,51,R,17858694,17858956,264,1598.7,648.1,4056,right
46,2,continuous,1,62,trial,17856369.0,17861370.0,5001.0,51,R,17858978,17859160,184,1667.4,636.3,4080,right
46,2,continuous,1,62,trial,17856369.0,17861370.0,5001.0,51,R,17859230,17859404,176,972.6,940.2,4279,likertHorizontal
46,2,continuous,1,62,trial,17856369.0,17861370.0,5001.0,51,R,17859474,17859628,156,525.5,471.6,4165,left
46,2,continuous,1,62,trial,17856369.0,17861370.0,5001.0,51,R,17859682,17859806,126,1027.8,931.3,3927,likertHorizontal
46,2,continuous,1,62,trial,17856369.0,17861370.0,5001.0,51,R,17859836,17860024,190,988.7,951.3,3926,likertHorizontal
46,2,continuous,1,62,trial,17856369.0,17861370.0,5001.0,51,R,17860062,17860202,142,1283.2,952.8,3935,NA
46,2,continuous,1,62,trial,17856369.0,17861370.0,5001.0,51,R,17860238,17860388,152,1461.5,965.7,3992,NA
46,2,continuous,1,62,trial,17856369.0,17861370.0,5001.0,51,R,17860452,17861082,632,1050.9,924.9,4252,likertHorizontal
46,2,continuous,1,62,trial,17856369.0,17861370.0,5001.0,51,R,17861106,17861602,498,1085.0,949.0,4473,likertHorizontal
46,2,continuous,2,77,fixationCross,17864002.0,17868069.0,4067.0,52,R,17861804,17862420,618,928.6,334.1,4506,NA
46,2,continuous,2,77,fixationCross,17864002.0,17868069.0,4067.0,52,R,17862460,17862778,320,728.6,293.5,4314,NA
46,2,continuous,2,77,fixationCross,17864002.0,17868069.0,4067.0,52,R,17862822,17863026,206,905.8,348.0,4202,NA
46,2,continuous,2,77,fixationCross,17864002.0,17868069.0,4067.0,52,R,17863080,17863304,226,630.8,290.3,4226,NA
46,2,continuous,2,77,fixationCross,17864002.0,17868069.0,4067.0,52,R,17863348,17863560,214,915.4,316.8,4183,NA
46,2,continuous,2,77,fixationCross,17864002.0,17868069.0,4067.0,52,R,17863584,17863700,118,878.0,388.9,4209,NA
46,2,continuous,2,77,fixationCross,17864002.0,17868069.0,4067.0,52,R,17863746,17863900,156,975.2,502.9,4278,NA
46,2,continuous,2,77,trial,17864002.0,17868069.0,4067.0,52,R,17863922,17864044,124,945.6,505.8,4358,NA
46,2,continuous,2,77,trial,17864002.0,17868069.0,4067.0,52,R,17864062,17864148,88,972.1,510.7,4386,NA
46,2,continuous,2,77,trial,17864002.0,17868069.0,4067.0,52,R,17864192,17864534,344,496.4,480.7,4229,left
46,2,continuous,2,77,trial,17864002.0,17868069.0,4067.0,52,R,17864570,17864698,130,478.0,539.4,3785,left
46,2,continuous,2,77,trial,17864002.0,17868069.0,4067.0,52,R,17864760,17864922,164,1565.5,436.4,3541,right
46,2,continuous,2,77,trial,17864002.0,17868069.0,4067.0,52,R,17864946,17865514,570,1470.6,474.1,3523,right
46,2,continuous,2,77,trial,17864002.0,17868069.0,4067.0,52,R,17865600,17865694,96,497.8,536.1,3781,left
46,2,continuous,2,77,trial,17864002.0,17868069.0,4067.0,52,R,17865770,17865868,100,1067.6,980.2,3828,likertHorizontal
46,2,continuous,2,77,trial,17864002.0,17868069.0,4067.0,52,R,17865894,17866396,504,1014.0,956.9,3870,likertHorizontal
46,2,continuous,2,77,trial,17864002.0,17868069.0,4067.0,52,R,17866456,17866894,440,527.0,563.7,4243,left
46,2,continuous,2,77,trial,17864002.0,17868069.0,4067.0,52,R,17866926,17867252,328,440.9,460.9,4053,left
46,2,continuous,2,77,trial,17864002.0,17868069.0,4067.0,52,R,17867338,17867572,236,1556.9,510.8,3775,right
