participantNo,block,task,blockTrial,response,trialStage,trialStartTime,trialFinishTime,rt,trial,eye,fixStart,fixEnd,fixLength,fixPosX,fixPosY,dilation,aoi
5,1,continuous,1,16,fixationCross,5806382.0,5815432.0,9050.0,1,R,5805666,5805908,244,919.8,549.8,4163,NA
5,1,continuous,1,16,fixationCross,5806382.0,5815432.0,9050.0,1,R,5805942,5806148,208,887.3,445.8,3927,NA
5,1,continuous,1,16,fixationCross,5806382.0,5815432.0,9050.0,1,R,5806172,5806326,156,925.2,552.1,3943,NA
5,1,continuous,1,16,trial,5806382.0,5815432.0,9050.0,1,R,5806646,5806682,38,976.3,678.2,3983,NA
5,1,continuous,1,16,trial,5806382.0,5815432.0,9050.0,1,R,5806690,5806810,122,952.6,619.4,4217,NA
5,1,continuous,1,16,trial,5806382.0,5815432.0,9050.0,1,R,5806876,5807166,292,1389.5,530.3,3847,right
5,1,continuous,1,16,trial,5806382.0,5815432.0,9050.0,1,R,5807198,5807394,198,1537.7,599.9,3289,right
5,1,continuous,1,16,trial,5806382.0,5815432.0,9050.0,1,R,5807414,5807614,202,1636.1,604.9,3136,right
5,1,continuous,1,16,trial,5806382.0,5815432.0,9050.0,1,R,5807682,5807962,282,521.0,618.9,3236,left
5,1,continuous,1,16,trial,5806382.0,5815432.0,9050.0,1,R,5807984,5808386,404,360.3,637.5,3349,left
5,1,continuous,1,16,trial,5806382.0,5815432.0,9050.0,1,R,5808418,5808590,174,576.1,649.5,3406,left
5,1,continuous,1,16,trial,5806382.0,5815432.0,9050.0,1,R,5808646,5808666,22,819.2,1022.1,3492,likertHorizontal
5,1,continuous,1,16,trial,5806382.0,5815432.0,9050.0,1,R,5808754,5808788,36,818.9,1011.4,3605,likertHorizontal
5,1,continuous,1,16,trial,5806382.0,5815432.0,9050.0,1,R,5808896,5808936,42,433.5,1084.5,3624,NA
5,1,continuous,1,16,trial,5806382.0,5815432.0,9050.0,1,R,5809368,5809562,196,1383.4,1031.4,3736,NA
5,1,continuous,1,16,trial,5806382.0,5815432.0,9050.0,1,R,5809664,5809888,226,1347.2,549.9,3622,right
5,1,continuous,1,16,trial,5806382.0,5815432.0,9050.0,1,R,5809936,5810250,316,1612.3,601.7,3794,right
5,1,continuous,1,16,trial,5806382.0,5815432.0,9050.0,1,R,5810276,5810680,406,1369.8,526.0,3504,right
5,1,continuous,1,16,trial,5806382.0,5815432.0,9050.0,1,R,5810742,5811006,266,459.3,612.2,3547,left
5,1,continuous,1,16,trial,5806382.0,5815432.0,9050.0,1,R,5811024,5811300,278,376.2,564.4,3422,left
5,1,continuous,1,16,trial,5806382.0,5815432.0,9050.0,1,R,5811324,5811526,204,367.9,647.5,3279,left
5,1,continuous,1,16,trial,5806382.0,5815432.0,9050.0,1,R,5811596,5811790,196,944.8,1022.0,3418,likertHorizontal
5,1,continuous,1,16,trial,5806382.0,5815432.0,9050.0,1,R,5811828,5811936,110,830.4,1017.0,3649,likertHorizontal
5,1,continuous,1,16,trial,5806382.0,5815432.0,9050.0,1,R,5811962,5812344,384,618.0,1013.4,3810,NA
5,1,continuous,1,16,trial,5806382.0,5815432.0,9050.0,1,R,5812368,5812408,42,610.9,1014.1,3739,NA
5,1,continuous,1,16,trial,5806382.0,5815432.0,9050.0,1,R,5812434,5812698,266,646.8,1005.7,3692,NA
5,1,continuous,1,16,trial,5806382.0,5815432.0,9050.0,1,R,5812772,5813236,466,801.1,728.0,3794,NA
5,1,continuous,1,16,trial,5806382.0,5815432.0,9050.0,1,R,5813274,5813360,88,806.3,737.8,3967,likertHorizontal
5,1,continuous,1,16,trial,5806382.0,5815432.0,9050.0,1,R,5813408,5813654,248,788.5,983.2,4207,likertHorizontal
5,1,continuous,1,16,trial,5806382.0,5815432.0,9050.0,1,R,5813792,5813920,130,1471.1,548.8,3843,right
5,1,continuous,1,16,trial,5806382.0,5815432.0,9050.0,1,R,5813950,5814222,274,1642.3,601.6,3633,right
5,1,continuous,1,16,trial,5806382.0,5815432.0,9050.0,1,R,5814256,5814466,212,1371.4,502.0,3526,right
5,1,continuous,1,16,trial,5806382.0,5815432.0,9050.0,1,R,5814524,5814898,376,654.3,958.8,3681,NA
5,1,continuous,1,16,trial,5806382.0,5815432.0,9050.0,1,R,5814910,5815202,294,613.8,988.6,3814,NA
5,1,continuous,2,36,fixationCross,5816349.0,5824748.0,8399.0,2,R,5815872,5816264,394,916.8,578.3,4153,NA
5,1,continuous,2,36,fixationCross,5816349.0,5824748.0,8399.0,2,R,5816282,5816334,54,981.6,594.2,4222,NA
5,1,continuous,2,36,trial,5816349.0,5824748.0,8399.0,2,R,5816642,5816728,88,1221.7,524.3,4085,right
5,1,continuous,2,36,trial,5816349.0,5824748.0,8399.0,2,R,5816782,5817150,370,515.3,557.8,4245,left
5,1,continuous,2,36,trial,5816349.0,5824748.0,8399.0,2,R,5817174,5817450,278,458.8,466.4,3682,left
5,1,continuous,2,36,trial,5816349.0,5824748.0,8399.0,2,R,5817472,5817774,304,479.3,554.3,3625,left
5,1,continuous,2,36,trial,5816349.0,5824748.0,8399.0,2,R,5817798,5818048,252,390.4,621.0,3641,left
5,1,continuous,2,36,trial,5816349.0,5824748.0,8399.0,2,R,5818080,5818318,240,591.6,525.5,3537,left
5,1,continuous,2,36,trial,5816349.0,5824748.0,8399.0,2,R,5818342,5818622,282,450.4,533.1,3599,left
5,1,continuous,2,36,trial,5816349.0,5824748.0,8399.0,2,R,5818686,5818966,282,1448.0,514.5,3783,right
5,1,continuous,2,36,trial,5816349.0,5824748.0,8399.0,2,R,5818988,5819294,308,1349.2,532.5,3493,right
5,1,continuous,2,36,trial,5816349.0,5824748.0,8399.0,2,R,5819312,5819508,198,1395.1,535.3,3459,right
5,1,continuous,2,36,trial,5816349.0,5824748.0,8399.0,2,R,5819560,5819678,120,919.0,976.0,3526,likertHorizontal
5,1,continuous,2,36,trial,5816349.0,5824748.0,8399.0,2,R,5821548,5821660,114,507.9,575.1,4130,left
5,1,continuous,2,36,trial,5816349.0,5824748.0,8399.0,2,R,5821736,5821914,180,1464.3,538.7,4055,right
5,1,continuous,2,36,trial,5816349.0,5824748.0,8399.0,2,R,5821938,5822186,250,1381.2,587.4,3909,right
5,1,continuous,2,36,trial,5816349.0,5824748.0,8399.0,2,R,5822210,5822798,590,1305.3,507.4,3436,right
5,1,continuous,2,36,trial,5816349.0,5824748.0,8399.0,2,R,5823024,5823312,290,480.4,554.2,3482,left
5,1,continuous,2,36,trial,5816349.0,5824748.0,8399.0,2,R,5823338,5823626,290,379.4,656.1,3642,left
5,1,continuous,2,36,trial,5816349.0,5824748.0,8399.0,2,R,5823652,5823896,246,503.6,533.3,3766,left
5,1,continuous,2,36,trial,5816349.0,5824748.0,8399.0,2,R,5823914,5824178,266,457.6,492.6,3778,left
5,1,continuous,2,36,trial,5816349.0,5824748.0,8399.0,2,R,5824230,5824286,58,715.6,958.4,3985,NA
5,1,continuous,2,36,trial,5816349.0,5824748.0,8399.0,2,R,5824484,5824940,458,840.8,946.3,3938,likertHorizontal
5,1,continuous,2,36,postResponse,5816349.0,5824748.0,8399.0,2,R,5825004,5825098,96,839.3,489.8,3817,NA
5,1,continuous,3,79,fixationCross,5825848.0,5830465.0,4617.0,3,R,5825198,5825528,332,843.2,493.1,3897,NA
5,1,continuous,3,79,trial,5825848.0,5830465.0,4617.0,3,R,5825552,5825920,370,963.4,556.1,4111,NA
5,1,continuous,3,79,trial,5825848.0,5830465.0,4617.0,3,R,5825932,5826034,104,957.3,589.9,4069,NA
5,1,continuous,3,79,trial,5825848.0,5830465.0,4617.0,3,R,5826080,5826364,286,498.9,604.8,3807,left
5,1,continuous,3,79,trial,5825848.0,5830465.0,4617.0,3,R,5826382,5826768,388,569.2,579.1,3352,left
5,1,continuous,3,79,trial,5825848.0,5830465.0,4617.0,3,R,5826802,5827008,208,345.8,597.8,3295,left
5,1,continuous,3,79,trial,5825848.0,5830465.0,4617.0,3,R,5827080,5828600,1522,1431.6,560.7,3249,right
5,1,continuous,3,79,trial,5825848.0,5830465.0,4617.0,3,R,5829086,5829296,212,1355.1,991.1,3849,NA
5,1,continuous,3,79,trial,5825848.0,5830465.0,4617.0,3,R,5829346,5829566,222,1456.4,552.3,3841,right
5,1,continuous,3,79,trial,5825848.0,5830465.0,4617.0,3,R,5829586,5829738,154,1446.5,610.2,3803,right
5,1,continuous,3,79,trial,5825848.0,5830465.0,4617.0,3,R,5829784,5830154,372,1290.1,1031.4,3675,NA
5,1,continuous,3,79,trial,5825848.0,5830465.0,4617.0,3,R,5830208,5830362,156,1437.6,648.5,3852,right
5,1,continuous,3,79,trial,5825848.0,5830465.0,4617.0,3,R,5830446,5830542,98,1262.9,1076.3,3979,NA
5,1,continuous,3,79,trial,5825848.0,5830465.0,4617.0,3,R,5830554,5830654,102,1269.4,1064.1,4083,NA
5,1,continuous,3,79,postResponse,5825848.0,5830465.0,4617.0,3,R,5830756,5830806,52,1039.3,594.9,4009,NA
5,1,continuous,4,28,fixationCross,5832281.0,5838632.0,6351.0,4,R,5830880,5831068,190,1038.1,586.7,4048,NA
5,1,continuous,4,28,trial,5832281.0,5838632.0,6351.0,4,R,5831632,5832428,798,967.7,656.3,4224,NA
5,1,continuous,4,28,trial,5832281.0,5838632.0,6351.0,4,R,5832806,5832844,40,364.7,576.4,3452,left
5,1,continuous,4,28,trial,5832281.0,5838632.0,6351.0,4,R,5832866,5832904,40,364.6,576.9,3398,left
5,1,continuous,4,28,trial,5832281.0,5838632.0,6351.0,4,R,5832930,5833092,164,382.2,525.8,3347,left
5,1,continuous,4,28,trial,5832281.0,5838632.0,6351.0,4,R,5833118,5833222,106,576.1,578.8,3299,left
5,1,continuous,4,28,trial,5832281.0,5838632.0,6351.0,4,R,5833282,5833614,334,1479.3,586.2,3276,right
5,1,continuous,4,28,trial,5832281.0,5838632.0,6351.0,4,R,5833628,5834086,460,1447.7,559.5,3101,right
5,1,continuous,4,28,trial,5832281.0,5838632.0,6351.0,4,R,5834148,5834342,196,545.1,540.6,3019,left
5,1,continuous,4,28,trial,5832281.0,5838632.0,6351.0,4,R,5834358,5834618,262,557.3,585.1,3093,left
5,1,continuous,4,28,trial,5832281.0,5838632.0,6351.0,4,R,5834644,5835150,508,409.2,500.5,3296,left
5,1,continuous,4,28,trial,5832281.0,5838632.0,6351.0,4,R,5835182,5835570,390,572.1,601.5,3170,left
5,1,continuous,4,28,trial,5832281.0,5838632.0,6351.0,4,R,5835582,5835706,126,535.5,592.3,3240,left
5,1,continuous,4,28,trial,5832281.0,5838632.0,6351.0,4,R,5835732,5836560,830,401.5,503.6,3304,left
5,1,continuous,4,28,trial,5832281.0,5838632.0,6351.0,4,R,5836616,5836672,58,734.2,803.8,3247,NA
5,1,continuous,4,28,trial,5832281.0,5838632.0,6351.0,4,R,5837042,5837334,294,726.4,805.1,3651,NA
5,1,continuous,4,28,trial,5832281.0,5838632.0,6351.0,4,R,5837376,5837816,442,586.9,617.7,3745,left
5,1,continuous,4,28,trial,5832281.0,5838632.0,6351.0,4,R,5837848,5838612,766,748.2,677.9,3782,NA
5,1,continuous,4,28,postResponse,5832281.0,5838632.0,6351.0,4,R,5838628,5838994,368,730.9,601.3,3828,left
5,1,continuous,5,69,trial,5839582.0,5845099.0,5517.0,5,R,5839134,5839766,634,950.9,561.6,4022,NA
5,1,continuous,5,69,trial,5839582.0,5845099.0,5517.0,5,R,5839808,5839980,174,514.0,590.0,3690,left
5,1,continuous,5,69,trial,5839582.0,5845099.0,5517.0,5,R,5840010,5840244,236,318.7,563.7,3352,left
5,1,continuous,5,69,trial,5839582.0,5845099.0,5517.0,5,R,5840274,5840474,202,548.1,617.5,3116,left
5,1,continuous,5,69,trial,5839582.0,5845099.0,5517.0,5,R,5840530,5840808,280,1401.8,528.4,3192,right
5,1,continuous,5,69,trial,5839582.0,5845099.0,5517.0,5,R,5840836,5841170,336,1515.1,519.3,3329,right
5,1,continuous,5,69,trial,5839582.0,5845099.0,5517.0,5,R,5841194,5841532,340,1319.3,499.8,3397,right
5,1,continuous,5,69,trial,5839582.0,5845099.0,5517.0,5,R,5841568,5841816,250,1516.8,511.9,3382,right
5,1,continuous,5,69,trial,5839582.0,5845099.0,5517.0,5,R,5841840,5842082,244,1623.3,517.8,3410,right
5,1,continuous,5,69,trial,5839582.0,5845099.0,5517.0,5,R,5842100,5842392,294,1568.0,544.5,3467,right
5,1,continuous,5,69,trial,5839582.0,5845099.0,5517.0,5,R,5842554,5842848,296,1391.0,629.7,3202,right
5,1,continuous,5,69,trial,5839582.0,5845099.0,5517.0,5,R,5842918,5843070,154,495.8,640.6,3729,left
5,1,continuous,5,69,trial,5839582.0,5845099.0,5517.0,5,R,5843096,5843298,204,308.3,604.7,3625,left
5,1,continuous,5,69,trial,5839582.0,5845099.0,5517.0,5,R,5843446,5843632,188,1372.4,554.3,3098,right
5,1,continuous,5,69,trial,5839582.0,5845099.0,5517.0,5,R,5843656,5844068,414,1505.1,518.9,3619,right
5,1,continuous,5,69,trial,5839582.0,5845099.0,5517.0,5,R,5844126,5844392,268,1275.8,958.0,3984,NA
5,1,continuous,5,69,trial,5839582.0,5845099.0,5517.0,5,R,5844436,5844672,238,1275.8,919.7,4120,NA
5,1,continuous,5,69,trial,5839582.0,5845099.0,5517.0,5,R,5844820,5844870,52,1183.8,992.0,4108,NA
5,1,continuous,5,69,trial,5839582.0,5845099.0,5517.0,5,R,5844998,5845358,362,1318.6,560.1,3974,right
5,1,continuous,5,69,postResponse,5839582.0,5845099.0,5517.0,5,R,5845402,5845434,34,930.2,532.1,4015,NA
5,1,continuous,6,50,fixationCross,5846248.0,5851515.0,5267.0,6,R,5845508,5845782,276,940.6,534.9,4116,NA
5,1,continuous,6,50,fixationCross,5846248.0,5851515.0,5267.0,6,R,5845816,5845960,146,768.6,594.0,4211,NA
5,1,continuous,6,50,trial,5846248.0,5851515.0,5267.0,6,R,5846066,5846408,344,978.8,574.7,4092,NA
5,1,continuous,6,50,trial,5846248.0,5851515.0,5267.0,6,R,5846454,5846762,310,508.5,543.8,3939,left
5,1,continuous,6,50,trial,5846248.0,5851515.0,5267.0,6,R,5846792,5847268,478,367.8,641.3,3349,left
5,1,continuous,6,50,trial,5846248.0,5851515.0,5267.0,6,R,5847330,5847588,260,1395.9,571.9,3495,right
5,1,continuous,6,50,trial,5846248.0,5851515.0,5267.0,6,R,5847608,5847888,282,1492.3,594.2,3744,right
5,1,continuous,6,50,trial,5846248.0,5851515.0,5267.0,6,R,5848016,5848082,68,1468.1,499.3,3619,right
5,1,continuous,6,50,trial,5846248.0,5851515.0,5267.0,6,R,5848470,5848550,82,480.7,568.3,3803,left
5,1,continuous,6,50,trial,5846248.0,5851515.0,5267.0,6,R,5848564,5848726,164,475.1,508.7,3784,left
5,1,continuous,6,50,trial,5846248.0,5851515.0,5267.0,6,R,5848768,5849376,610,962.4,560.4,3702,NA
5,1,continuous,6,50,trial,5846248.0,5851515.0,5267.0,6,R,5849420,5849552,134,518.5,560.0,3963,left
5,1,continuous,6,50,trial,5846248.0,5851515.0,5267.0,6,R,5849620,5849810,192,1470.7,535.0,3921,right
5,1,continuous,6,50,trial,5846248.0,5851515.0,5267.0,6,R,5849862,5850248,388,1011.7,960.9,3899,likertHorizontal
5,1,continuous,6,50,trial,5846248.0,5851515.0,5267.0,6,R,5850414,5850482,70,968.8,535.8,3893,NA
5,1,continuous,6,50,trial,5846248.0,5851515.0,5267.0,6,R,5850538,5850582,46,984.2,578.7,3729,NA
5,1,continuous,6,50,trial,5846248.0,5851515.0,5267.0,6,R,5850700,5850746,48,962.2,534.0,3988,NA
5,1,continuous,6,50,trial,5846248.0,5851515.0,5267.0,6,R,5850826,5851482,658,978.5,944.8,4219,likertHorizontal
5,1,continuous,6,50,trial,5846248.0,5851515.0,5267.0,6,R,5851514,5851782,270,1012.0,789.9,3921,likertHorizontal
5,1,continuous,7,40,trial,5852449.0,5865099.0,12650.0,7,R,5851950,5852604,656,956.3,545.7,4269,NA
5,1,continuous,7,40,trial,5852449.0,5865099.0,12650.0,7,R,5852648,5853016,370,455.6,555.1,3820,left
5,1,continuous,7,40,trial,5852449.0,5865099.0,12650.0,7,R,5853028,5853526,500,499.7,560.0,3688,left
5,1,continuous,7,40,trial,5852449.0,5865099.0,12650.0,7,R,5853544,5853666,124,448.4,539.3,3520,left
5,1,continuous,7,40,trial,5852449.0,5865099.0,12650.0,7,R,5853730,5854008,280,1449.6,567.6,3474,right
5,1,continuous,7,40,trial,5852449.0,5865099.0,12650.0,7,R,5854028,5854218,192,1370.2,617.5,3486,right
5,1,continuous,7,40,trial,5852449.0,5865099.0,12650.0,7,R,5854244,5854534,292,1514.6,569.9,3325,right
5,1,continuous,7,40,trial,5852449.0,5865099.0,12650.0,7,R,5854570,5854926,358,1350.5,482.3,3242,right
5,1,continuous,7,40,trial,5852449.0,5865099.0,12650.0,7,R,5855282,5855558,278,468.8,582.3,3572,left
5,1,continuous,7,40,trial,5852449.0,5865099.0,12650.0,7,R,5855588,5856250,664,413.9,519.7,3349,left
5,1,continuous,7,40,trial,5852449.0,5865099.0,12650.0,7,R,5856290,5856430,142,438.1,709.7,3483,left
5,1,continuous,7,40,trial,5852449.0,5865099.0,12650.0,7,R,5856630,5857206,578,595.9,662.4,3692,left
5,1,continuous,7,40,trial,5852449.0,5865099.0,12650.0,7,R,5857236,5857368,134,522.0,588.6,3659,left
5,1,continuous,7,40,trial,5852449.0,5865099.0,12650.0,7,R,5857428,5857644,218,1394.6,571.9,3614,right
5,1,continuous,7,40,trial,5852449.0,5865099.0,12650.0,7,R,5857704,5858072,370,866.1,926.0,3558,likertHorizontal
5,1,continuous,7,40,trial,5852449.0,5865099.0,12650.0,7,R,5858116,5858270,156,1113.7,975.4,3487,likertHorizontal
5,1,continuous,7,40,trial,5852449.0,5865099.0,12650.0,7,R,5858294,5859192,900,1052.5,970.8,3738,likertHorizontal
5,1,continuous,7,40,trial,5852449.0,5865099.0,12650.0,7,R,5859268,5859806,540,528.0,610.9,3781,left
5,1,continuous,7,40,trial,5852449.0,5865099.0,12650.0,7,R,5859844,5859930,88,418.7,517.0,3709,left
5,1,continuous,7,40,trial,5852449.0,5865099.0,12650.0,7,R,5860294,5860408,116,889.7,890.2,3838,likertHorizontal
5,1,continuous,7,40,trial,5852449.0,5865099.0,12650.0,7,R,5860506,5861250,746,539.8,603.2,3591,left
5,1,continuous,7,40,trial,5852449.0,5865099.0,12650.0,7,R,5861318,5862090,774,1417.7,536.3,3417,right
5,1,continuous,7,40,trial,5852449.0,5865099.0,12650.0,7,R,5862108,5862560,454,1360.2,510.9,3304,right
5,1,continuous,7,40,trial,5852449.0,5865099.0,12650.0,7,R,5862576,5862938,364,1384.3,496.9,3506,right
5,1,continuous,7,40,trial,5852449.0,5865099.0,12650.0,7,R,5862952,5863340,390,1431.7,517.9,3629,right
5,1,continuous,7,40,trial,5852449.0,5865099.0,12650.0,7,R,5863558,5863848,292,1509.7,568.4,3645,right
5,1,continuous,7,40,trial,5852449.0,5865099.0,12650.0,7,R,5863864,5864092,230,1531.0,596.2,3652,right
5,1,continuous,7,40,trial,5852449.0,5865099.0,12650.0,7,R,5864166,5864656,492,470.1,587.1,3624,left
5,1,continuous,7,40,trial,5852449.0,5865099.0,12650.0,7,R,5864718,5864890,174,837.9,906.5,3634,likertHorizontal
5,1,continuous,7,40,trial,5852449.0,5865099.0,12650.0,7,R,5864942,5865016,76,843.5,880.9,3797,likertHorizontal
5,1,continuous,7,40,postResponse,5852449.0,5865099.0,12650.0,7,R,5865080,5865442,364,506.6,536.0,3852,left
5,1,continuous,8,47,fixationCross,5866198.0,5872615.0,6417.0,8,R,5865544,5865902,360,793.0,594.3,4081,NA
5,1,continuous,8,47,trial,5866198.0,5872615.0,6417.0,8,R,5865928,5866332,406,954.9,567.5,4197,NA
5,1,continuous,8,47,trial,5866198.0,5872615.0,6417.0,8,R,5866376,5866578,204,503.7,566.8,4095,left
5,1,continuous,8,47,trial,5866198.0,5872615.0,6417.0,8,R,5866596,5867002,408,447.0,503.8,3617,left
5,1,continuous,8,47,trial,5866198.0,5872615.0,6417.0,8,R,5867066,5867466,402,1506.5,524.0,3639,right
5,1,continuous,8,47,trial,5866198.0,5872615.0,6417.0,8,R,5867476,5867710,236,1487.5,512.8,3766,right
5,1,continuous,8,47,trial,5866198.0,5872615.0,6417.0,8,R,5867912,5868014,104,470.9,519.9,3590,left
5,1,continuous,8,47,trial,5866198.0,5872615.0,6417.0,8,R,5868028,5868228,202,430.8,510.7,3664,left
5,1,continuous,8,47,trial,5866198.0,5872615.0,6417.0,8,R,5868262,5868502,242,306.9,647.4,3630,left
5,1,continuous,8,47,trial,5866198.0,5872615.0,6417.0,8,R,5868518,5868760,244,300.7,665.5,3614,left
5,1,continuous,8,47,trial,5866198.0,5872615.0,6417.0,8,R,5868800,5868970,172,629.1,683.1,3666,left
5,1,continuous,8,47,trial,5866198.0,5872615.0,6417.0,8,R,5869006,5869240,236,476.9,498.6,3672,left
5,1,continuous,8,47,trial,5866198.0,5872615.0,6417.0,8,R,5869312,5869852,542,1480.9,518.6,3866,right
5,1,continuous,8,47,trial,5866198.0,5872615.0,6417.0,8,R,5870090,5870850,762,1507.2,519.9,3802,right
5,1,continuous,8,47,trial,5866198.0,5872615.0,6417.0,8,R,5870894,5871110,218,1354.1,665.4,3760,right
5,1,continuous,8,47,trial,5866198.0,5872615.0,6417.0,8,R,5871144,5871264,122,1448.1,593.4,3873,right
5,1,continuous,8,47,trial,5866198.0,5872615.0,6417.0,8,R,5871330,5871530,202,511.5,561.2,3817,left
5,1,continuous,8,47,trial,5866198.0,5872615.0,6417.0,8,R,5871714,5871736,24,993.3,925.4,3822,likertHorizontal
5,1,continuous,8,47,trial,5866198.0,5872615.0,6417.0,8,R,5871758,5871786,30,989.3,924.1,3822,likertHorizontal
5,1,continuous,8,47,trial,5866198.0,5872615.0,6417.0,8,R,5871808,5872108,302,985.3,933.8,3875,likertHorizontal
5,1,continuous,8,47,trial,5866198.0,5872615.0,6417.0,8,R,5872468,5872542,76,973.1,919.8,3806,likertHorizontal
5,1,continuous,8,47,trial,5866198.0,5872615.0,6417.0,8,R,5872564,5872740,178,969.1,925.6,3839,likertHorizontal
5,1,continuous,8,47,postResponse,5866198.0,5872615.0,6417.0,8,R,5872886,5872952,68,756.2,597.8,3768,NA
5,1,continuous,9,18,fixationCross,5873649.0,5880233.0,6584.0,9,R,5873030,5873346,318,765.9,613.7,3932,NA
5,1,continuous,9,18,trial,5873649.0,5880233.0,6584.0,9,R,5873374,5873856,484,940.6,548.8,4047,NA
5,1,continuous,9,18,trial,5873649.0,5880233.0,6584.0,9,R,5873910,5874292,384,1456.2,533.6,3745,right
5,1,continuous,9,18,trial,5873649.0,5880233.0,6584.0,9,R,5874352,5874790,440,544.9,630.8,3480,left
5,1,continuous,9,18,trial,5873649.0,5880233.0,6584.0,9,R,5874850,5875060,212,1385.4,522.2,3311,right
5,1,continuous,9,18,trial,5873649.0,5880233.0,6584.0,9,R,5875076,5875416,342,1434.7,525.0,3403,right
5,1,continuous,9,18,trial,5873649.0,5880233.0,6584.0,9,R,5876006,5876214,210,1422.2,572.2,3901,right
5,1,continuous,9,18,trial,5873649.0,5880233.0,6584.0,9,R,5876234,5876996,764,1437.2,529.6,3653,right
5,1,continuous,9,18,trial,5873649.0,5880233.0,6584.0,9,R,5877240,5877324,86,1453.0,555.9,3423,right
5,1,continuous,9,18,trial,5873649.0,5880233.0,6584.0,9,R,5878086,5878288,204,1470.2,531.8,3250,right
5,1,continuous,9,18,trial,5873649.0,5880233.0,6584.0,9,R,5878362,5878500,140,591.1,605.9,3424,left
5,1,continuous,9,18,trial,5873649.0,5880233.0,6584.0,9,R,5878556,5878736,182,820.3,948.4,3724,likertHorizontal
5,1,continuous,9,18,trial,5873649.0,5880233.0,6584.0,9,R,5879810,5880280,472,560.5,643.2,3977,left
5,1,continuous,9,18,postResponse,5873649.0,5880233.0,6584.0,9,R,5880328,5880566,240,529.2,531.6,3907,left
5,1,continuous,10,41,fixationCross,5881316.0,5888649.0,7333.0,10,R,5880640,5880666,28,528.5,522.1,3890,left
5,1,continuous,10,41,fixationCross,5881316.0,5888649.0,7333.0,10,R,5880700,5881004,306,785.4,613.1,4016,NA
5,1,continuous,10,41,fixationCross,5881316.0,5888649.0,7333.0,10,R,5881032,5881314,284,967.8,577.9,4248,NA
5,1,continuous,10,41,trial,5881316.0,5888649.0,7333.0,10,R,5881594,5881792,200,475.3,578.2,4103,left
5,1,continuous,10,41,trial,5881316.0,5888649.0,7333.0,10,R,5881812,5882268,458,447.5,516.1,3438,left
5,1,continuous,10,41,trial,5881316.0,5888649.0,7333.0,10,R,5882290,5882636,348,307.4,553.0,3130,left
5,1,continuous,10,41,trial,5881316.0,5888649.0,7333.0,10,R,5882650,5882826,178,323.2,522.3,3184,left
5,1,continuous,10,41,trial,5881316.0,5888649.0,7333.0,10,R,5882854,5883178,326,533.1,560.7,3317,left
5,1,continuous,10,41,trial,5881316.0,5888649.0,7333.0,10,R,5883442,5883754,314,1410.6,535.9,3536,right
5,1,continuous,10,41,trial,5881316.0,5888649.0,7333.0,10,R,5883782,5884008,228,1527.2,627.7,3647,right
5,1,continuous,10,41,trial,5881316.0,5888649.0,7333.0,10,R,5884036,5884178,144,1394.2,524.1,3593,right
5,1,continuous,10,41,trial,5881316.0,5888649.0,7333.0,10,R,5884404,5884784,382,1428.7,529.2,3666,right
5,1,continuous,10,41,trial,5881316.0,5888649.0,7333.0,10,R,5884822,5885112,292,1518.7,657.6,3644,right
5,1,continuous,10,41,trial,5881316.0,5888649.0,7333.0,10,R,5885152,5885476,326,1398.8,491.5,3610,right
5,1,continuous,10,41,trial,5881316.0,5888649.0,7333.0,10,R,5885572,5885766,196,494.4,555.1,3692,left
5,1,continuous,10,41,trial,5881316.0,5888649.0,7333.0,10,R,5885780,5885894,116,423.7,518.7,3548,left
5,1,continuous,10,41,trial,5881316.0,5888649.0,7333.0,10,R,5886028,5886136,110,383.8,577.9,3073,left
5,1,continuous,10,41,trial,5881316.0,5888649.0,7333.0,10,R,5886148,5886178,32,383.9,573.5,3024,left
5,1,continuous,10,41,trial,5881316.0,5888649.0,7333.0,10,R,5886202,5886344,144,322.5,607.1,3011,left
5,1,continuous,10,41,trial,5881316.0,5888649.0,7333.0,10,R,5886358,5886442,86,316.3,616.6,2949,left
5,1,continuous,10,41,trial,5881316.0,5888649.0,7333.0,10,R,5886504,5886840,338,1391.1,505.1,3272,right
5,1,continuous,10,41,trial,5881316.0,5888649.0,7333.0,10,R,5886904,5887242,340,479.9,534.6,3676,left
5,1,continuous,10,41,trial,5881316.0,5888649.0,7333.0,10,R,5887406,5887632,228,1432.0,540.1,3233,right
5,1,continuous,10,41,trial,5881316.0,5888649.0,7333.0,10,R,5887682,5888378,698,951.9,878.5,3758,likertHorizontal
5,1,continuous,10,41,trial,5881316.0,5888649.0,7333.0,10,R,5888420,5888448,30,945.5,886.5,3737,likertHorizontal
5,1,continuous,10,41,trial,5881316.0,5888649.0,7333.0,10,R,5888694,5888784,92,640.5,550.9,3829,left
5,1,continuous,11,44,fixationCross,5889699.0,5895716.0,6017.0,11,R,5889208,5889254,48,808.2,596.4,4113,NA
5,1,continuous,11,44,fixationCross,5889699.0,5895716.0,6017.0,11,R,5889274,5889320,48,807.7,582.4,4137,NA
5,1,continuous,11,44,fixationCross,5889699.0,5895716.0,6017.0,11,R,5889330,5889406,78,809.1,578.1,4119,NA
5,1,continuous,11,44,trial,5889699.0,5895716.0,6017.0,11,R,5889442,5889840,400,976.0,579.0,4136,NA
5,1,continuous,11,44,trial,5889699.0,5895716.0,6017.0,11,R,5889884,5890180,298,526.3,570.7,3904,left
5,1,continuous,11,44,trial,5889699.0,5895716.0,6017.0,11,R,5890192,5890466,276,466.7,548.5,3468,left
5,1,continuous,11,44,trial,5889699.0,5895716.0,6017.0,11,R,5890502,5890644,144,385.7,728.2,3102,left
5,1,continuous,11,44,trial,5889699.0,5895716.0,6017.0,11,R,5890664,5890800,138,375.1,735.5,3035,NA
5,1,continuous,11,44,trial,5889699.0,5895716.0,6017.0,11,R,5890824,5891006,184,500.0,618.2,3093,left
5,1,continuous,11,44,trial,5889699.0,5895716.0,6017.0,11,R,5891070,5891390,322,1467.7,494.4,3250,right
5,1,continuous,11,44,trial,5889699.0,5895716.0,6017.0,11,R,5891410,5891590,182,1347.1,472.4,3523,right
5,1,continuous,11,44,trial,5889699.0,5895716.0,6017.0,11,R,5891632,5891898,268,1535.8,577.1,3672,right
5,1,continuous,11,44,trial,5889699.0,5895716.0,6017.0,11,R,5891932,5892216,286,1584.0,463.8,3535,right
5,1,continuous,11,44,trial,5889699.0,5895716.0,6017.0,11,R,5892250,5892646,398,1359.5,446.8,3538,right
5,1,continuous,11,44,trial,5889699.0,5895716.0,6017.0,11,R,5893242,5893348,108,1413.1,531.4,3783,right
5,1,continuous,11,44,trial,5889699.0,5895716.0,6017.0,11,R,5893372,5893642,272,1381.3,476.5,3735,right
5,1,continuous,11,44,trial,5889699.0,5895716.0,6017.0,11,R,5893676,5893928,254,1523.7,561.5,3589,right
5,1,continuous,11,44,trial,5889699.0,5895716.0,6017.0,11,R,5893960,5894132,174,1520.6,433.7,3598,right
5,1,continuous,11,44,trial,5889699.0,5895716.0,6017.0,11,R,5894198,5894820,624,505.8,549.3,3594,left
5,1,continuous,11,44,trial,5889699.0,5895716.0,6017.0,11,R,5894846,5894914,70,458.5,665.5,3265,left
5,1,continuous,11,44,trial,5889699.0,5895716.0,6017.0,11,R,5895008,5895060,54,934.9,913.4,3296,likertHorizontal
5,1,continuous,11,44,trial,5889699.0,5895716.0,6017.0,11,R,5895084,5895118,36,938.0,902.0,3333,likertHorizontal
5,1,continuous,12,15,fixationCross,5896799.0,5899483.0,2684.0,12,R,5896138,5896482,346,835.1,550.1,4016,NA
5,1,continuous,12,15,fixationCross,5896799.0,5899483.0,2684.0,12,R,5896508,5896678,172,977.5,577.1,4181,NA
5,1,continuous,12,15,trial,5896799.0,5899483.0,2684.0,12,R,5896776,5896822,48,987.2,614.8,3904,NA
5,1,continuous,12,15,trial,5896799.0,5899483.0,2684.0,12,R,5896832,5896852,22,988.9,622.0,3870,NA
5,1,continuous,12,15,trial,5896799.0,5899483.0,2684.0,12,R,5896894,5896956,64,864.9,565.5,3966,NA
5,1,continuous,12,15,trial,5896799.0,5899483.0,2684.0,12,R,5897058,5897564,508,452.1,617.0,3637,left
5,1,continuous,12,15,trial,5896799.0,5899483.0,2684.0,12,R,5897730,5898372,644,1482.1,545.9,3398,right
5,1,continuous,12,15,trial,5896799.0,5899483.0,2684.0,12,R,5898464,5898570,108,439.3,643.4,3524,left
5,1,continuous,12,15,trial,5896799.0,5899483.0,2684.0,12,R,5898588,5898730,144,442.7,637.8,3573,left
5,1,continuous,12,15,trial,5896799.0,5899483.0,2684.0,12,R,5898772,5898988,218,640.3,944.6,3766,NA
5,1,continuous,12,15,trial,5896799.0,5899483.0,2684.0,12,R,5899024,5899052,30,638.7,952.2,3818,NA
5,1,continuous,12,15,trial,5896799.0,5899483.0,2684.0,12,R,5899074,5899116,44,635.9,956.8,3721,NA
5,1,continuous,12,15,trial,5896799.0,5899483.0,2684.0,12,R,5899496,5899636,142,450.7,603.6,3738,left
5,1,continuous,13,63,fixationCross,5900532.0,5909199.0,8667.0,13,R,5899940,5900120,182,568.5,551.9,4010,left
5,1,continuous,13,63,fixationCross,5900532.0,5909199.0,8667.0,13,R,5900262,5900434,174,883.7,554.6,4227,NA
5,1,continuous,13,63,trial,5900532.0,5909199.0,8667.0,13,R,5900508,5900538,32,879.7,563.2,4091,NA
5,1,continuous,13,63,trial,5900532.0,5909199.0,8667.0,13,R,5900748,5901028,282,525.1,618.7,3875,left
5,1,continuous,13,63,trial,5900532.0,5909199.0,8667.0,13,R,5901076,5901100,26,523.2,613.7,3595,left
5,1,continuous,13,63,trial,5900532.0,5909199.0,8667.0,13,R,5901112,5901360,250,518.5,610.7,3553,left
5,1,continuous,13,63,trial,5900532.0,5909199.0,8667.0,13,R,5901418,5901462,46,382.6,650.7,3645,left
5,1,continuous,13,63,trial,5900532.0,5909199.0,8667.0,13,R,5901486,5901546,62,387.6,648.0,3682,left
5,1,continuous,13,63,trial,5900532.0,5909199.0,8667.0,13,R,5901654,5901792,140,1262.2,545.0,3548,right
5,1,continuous,13,63,trial,5900532.0,5909199.0,8667.0,13,R,5901816,5902288,474,1371.2,526.4,3660,right
5,1,continuous,13,63,trial,5900532.0,5909199.0,8667.0,13,R,5902304,5902680,378,1421.6,548.9,3760,right
5,1,continuous,13,63,trial,5900532.0,5909199.0,8667.0,13,R,5902706,5903172,468,1384.9,449.4,3646,right
5,1,continuous,13,63,trial,5900532.0,5909199.0,8667.0,13,R,5903206,5903482,278,1371.6,601.2,3798,right
5,1,continuous,13,63,trial,5900532.0,5909199.0,8667.0,13,R,5903544,5903934,392,495.3,627.6,3692,left
5,1,continuous,13,63,trial,5900532.0,5909199.0,8667.0,13,R,5903958,5904300,344,492.4,515.6,3408,left
5,1,continuous,13,63,trial,5900532.0,5909199.0,8667.0,13,R,5904326,5904738,414,513.1,584.2,3631,left
5,1,continuous,13,63,trial,5900532.0,5909199.0,8667.0,13,R,5904758,5904792,36,554.8,657.2,3713,left
5,1,continuous,13,63,trial,5900532.0,5909199.0,8667.0,13,R,5904804,5905014,212,554.2,662.3,3664,left
5,1,continuous,13,63,trial,5900532.0,5909199.0,8667.0,13,R,5905294,5905446,154,328.4,765.3,3485,NA
5,1,continuous,13,63,trial,5900532.0,5909199.0,8667.0,13,R,5905484,5905684,202,553.2,621.9,3385,left
5,1,continuous,13,63,trial,5900532.0,5909199.0,8667.0,13,R,5905734,5905982,250,523.4,456.7,3387,left
5,1,continuous,13,63,trial,5900532.0,5909199.0,8667.0,13,R,5906160,5906506,348,1399.4,510.9,3633,right
5,1,continuous,13,63,trial,5900532.0,5909199.0,8667.0,13,R,5906530,5907002,474,1503.5,575.0,3608,right
5,1,continuous,13,63,trial,5900532.0,5909199.0,8667.0,13,R,5907032,5907232,202,1384.2,657.3,3676,right
5,1,continuous,13,63,trial,5900532.0,5909199.0,8667.0,13,R,5907348,5907718,372,516.5,608.4,3823,left
5,1,continuous,13,63,trial,5900532.0,5909199.0,8667.0,13,R,5907880,5908162,284,1433.6,509.2,3515,right
5,1,continuous,13,63,trial,5900532.0,5909199.0,8667.0,13,R,5908820,5909364,546,1361.6,530.9,3877,right
5,1,continuous,14,31,fixationCross,5910266.0,5915533.0,5267.0,14,R,5909820,5909956,138,755.3,549.1,4349,NA
5,1,continuous,14,31,trial,5910266.0,5915533.0,5267.0,14,R,5909988,5910348,362,951.1,565.9,4166,NA
5,1,continuous,14,31,trial,5910266.0,5915533.0,5267.0,14,R,5910426,5910432,8,956.8,579.5,3941,NA
5,1,continuous,14,31,trial,5910266.0,5915533.0,5267.0,14,R,5910478,5911024,548,448.4,563.6,3609,left
5,1,continuous,14,31,trial,5910266.0,5915533.0,5267.0,14,R,5911054,5911358,306,579.9,599.7,2943,left
5,1,continuous,14,31,trial,5910266.0,5915533.0,5267.0,14,R,5911374,5911490,118,669.4,604.8,2899,left
5,1,continuous,14,31,trial,5910266.0,5915533.0,5267.0,14,R,5911550,5912068,520,1473.4,570.6,3332,right
5,1,continuous,14,31,trial,5910266.0,5915533.0,5267.0,14,R,5912260,5912382,124,503.9,613.3,3335,left
5,1,continuous,14,31,trial,5910266.0,5915533.0,5267.0,14,R,5912548,5912574,28,344.7,593.7,3303,left
5,1,continuous,14,31,trial,5910266.0,5915533.0,5267.0,14,R,5912856,5912902,48,261.7,662.2,2852,left
5,1,continuous,14,31,trial,5910266.0,5915533.0,5267.0,14,R,5912958,5913004,48,257.8,662.5,2799,left
5,1,continuous,14,31,trial,5910266.0,5915533.0,5267.0,14,R,5913096,5913126,32,264.6,661.5,2805,left
5,1,continuous,14,31,trial,5910266.0,5915533.0,5267.0,14,R,5913236,5913724,490,636.3,604.8,3018,left
5,1,continuous,14,31,trial,5910266.0,5915533.0,5267.0,14,R,5914260,5914310,52,299.2,585.7,2915,left
5,1,continuous,14,31,trial,5910266.0,5915533.0,5267.0,14,R,5914350,5914440,92,296.3,595.0,2890,left
5,1,continuous,14,31,trial,5910266.0,5915533.0,5267.0,14,R,5915058,5915102,46,559.1,885.1,2599,NA
5,1,continuous,15,40,fixationCross,5916449.0,5925000.0,8551.0,15,R,5915964,5916020,58,684.5,538.5,3523,left
5,1,continuous,15,40,fixationCross,5916449.0,5925000.0,8551.0,15,R,5916054,5916328,276,883.1,541.5,3869,NA
5,1,continuous,15,40,trial,5916449.0,5925000.0,8551.0,15,R,5916346,5916588,244,959.4,569.6,3886,NA
5,1,continuous,15,40,trial,5916449.0,5925000.0,8551.0,15,R,5916632,5916866,236,536.1,572.5,3603,left
5,1,continuous,15,40,trial,5916449.0,5925000.0,8551.0,15,R,5916876,5917280,406,574.6,564.3,3172,left
5,1,continuous,15,40,trial,5916449.0,5925000.0,8551.0,15,R,5917486,5917628,144,1458.4,528.8,3188,right
5,1,continuous,15,40,trial,5916449.0,5925000.0,8551.0,15,R,5917652,5917928,278,1573.4,454.0,3421,right
5,1,continuous,15,40,trial,5916449.0,5925000.0,8551.0,15,R,5917958,5918568,612,1362.8,577.6,3401,right
5,1,continuous,15,40,trial,5916449.0,5925000.0,8551.0,15,R,5918626,5919106,482,550.6,707.8,3238,left
5,1,continuous,15,40,trial,5916449.0,5925000.0,8551.0,15,R,5919152,5919754,604,566.9,577.1,3253,left
5,1,continuous,15,40,trial,5916449.0,5925000.0,8551.0,15,R,5919782,5920196,416,532.3,739.0,3314,NA
5,1,continuous,15,40,trial,5916449.0,5925000.0,8551.0,15,R,5920482,5920658,178,1462.6,550.7,3258,right
5,1,continuous,15,40,trial,5916449.0,5925000.0,8551.0,15,R,5920686,5920990,306,1558.7,448.3,3351,right
5,1,continuous,15,40,trial,5916449.0,5925000.0,8551.0,15,R,5921018,5921236,220,1398.5,542.0,3227,right
5,1,continuous,15,40,trial,5916449.0,5925000.0,8551.0,15,R,5921432,5921916,486,1392.2,558.3,3390,right
5,1,continuous,15,40,trial,5916449.0,5925000.0,8551.0,15,R,5921948,5922172,226,1515.1,500.3,3331,right
5,1,continuous,15,40,trial,5916449.0,5925000.0,8551.0,15,R,5922194,5922266,74,1579.6,460.6,3186,right
5,1,continuous,15,40,trial,5916449.0,5925000.0,8551.0,15,R,5922718,5922742,26,495.3,554.3,3550,left
5,1,continuous,15,40,trial,5916449.0,5925000.0,8551.0,15,R,5923596,5923748,154,1429.9,516.9,3606,right
5,1,continuous,15,40,trial,5916449.0,5925000.0,8551.0,15,R,5923774,5924124,352,1561.7,458.5,3428,right
5,1,continuous,15,40,trial,5916449.0,5925000.0,8551.0,15,R,5924188,5924474,288,586.0,591.1,3373,left
5,1,continuous,15,40,trial,5916449.0,5925000.0,8551.0,15,R,5924522,5924766,246,859.4,926.0,3830,likertHorizontal
5,1,continuous,16,24,fixationCross,5926033.0,5929700.0,3667.0,16,R,5925410,5925730,322,773.0,553.8,3882,NA
5,1,continuous,16,24,fixationCross,5926033.0,5929700.0,3667.0,16,R,5925758,5925966,210,938.5,575.8,4038,NA
5,1,continuous,16,24,trial,5926033.0,5929700.0,3667.0,16,R,5925978,5926146,170,930.8,572.3,3997,NA
5,1,continuous,16,24,trial,5926033.0,5929700.0,3667.0,16,R,5926162,5926186,26,929.1,577.0,3983,NA
5,1,continuous,16,24,trial,5926033.0,5929700.0,3667.0,16,R,5926228,5926578,352,455.5,547.5,3691,left
5,1,continuous,16,24,trial,5926033.0,5929700.0,3667.0,16,R,5926990,5927362,374,461.4,639.1,3649,left
5,1,continuous,16,24,trial,5926033.0,5929700.0,3667.0,16,R,5927398,5927620,224,391.5,508.7,3664,left
5,1,continuous,16,24,trial,5926033.0,5929700.0,3667.0,16,R,5927692,5928070,380,1408.6,554.6,3611,right
5,1,continuous,16,24,trial,5926033.0,5929700.0,3667.0,16,R,5928088,5928344,258,1489.7,563.8,3666,right
5,1,continuous,16,24,trial,5926033.0,5929700.0,3667.0,16,R,5928368,5928494,128,1340.2,522.3,3490,right
5,1,continuous,16,24,trial,5926033.0,5929700.0,3667.0,16,R,5929792,5929900,110,572.8,580.7,3645,left
5,1,continuous,16,24,postResponse,5926033.0,5929700.0,3667.0,16,R,5929926,5930034,110,578.0,563.9,3741,left
5,1,continuous,17,56,fixationCross,5930816.0,5936283.0,5467.0,17,R,5930194,5930232,40,764.1,603.6,3987,NA
5,1,continuous,17,56,fixationCross,5930816.0,5936283.0,5467.0,17,R,5930334,5930416,84,759.6,603.0,4086,NA
5,1,continuous,17,56,fixationCross,5930816.0,5936283.0,5467.0,17,R,5930474,5930494,22,759.2,610.4,4078,NA
5,1,continuous,17,56,trial,5930816.0,5936283.0,5467.0,17,R,5930528,5930836,310,957.4,580.1,3925,NA
5,1,continuous,17,56,trial,5930816.0,5936283.0,5467.0,17,R,5930872,5930988,118,749.6,613.3,3793,NA
5,1,continuous,17,56,trial,5930816.0,5936283.0,5467.0,17,R,5931028,5931434,408,407.9,555.8,3685,left
5,1,continuous,17,56,trial,5930816.0,5936283.0,5467.0,17,R,5931496,5931754,260,1406.4,542.3,3265,right
5,1,continuous,17,56,trial,5930816.0,5936283.0,5467.0,17,R,5931770,5932004,236,1446.4,515.4,3311,right
5,1,continuous,17,56,trial,5930816.0,5936283.0,5467.0,17,R,5932030,5932366,338,1361.6,585.8,3676,right
5,1,continuous,17,56,trial,5930816.0,5936283.0,5467.0,17,R,5932428,5932860,434,418.5,591.0,3663,left
5,1,continuous,17,56,trial,5930816.0,5936283.0,5467.0,17,R,5932898,5933236,340,379.8,566.7,3378,left
5,1,continuous,17,56,trial,5930816.0,5936283.0,5467.0,17,R,5933304,5933576,274,1438.2,613.8,3525,right
5,1,continuous,17,56,trial,5930816.0,5936283.0,5467.0,17,R,5933598,5933862,266,1427.8,506.1,3717,right
5,1,continuous,17,56,trial,5930816.0,5936283.0,5467.0,17,R,5934014,5934052,40,969.4,888.6,3579,likertHorizontal
5,1,continuous,17,56,trial,5930816.0,5936283.0,5467.0,17,R,5934248,5934422,176,1363.2,544.0,3939,right
5,1,continuous,17,56,trial,5930816.0,5936283.0,5467.0,17,R,5934446,5934996,552,1450.7,489.7,3851,right
5,1,continuous,17,56,trial,5930816.0,5936283.0,5467.0,17,R,5935018,5935192,176,1400.1,558.6,3788,right
5,1,continuous,17,56,trial,5930816.0,5936283.0,5467.0,17,R,5935228,5935546,320,1606.4,621.9,3704,right
5,1,continuous,17,56,trial,5930816.0,5936283.0,5467.0,17,R,5935578,5936296,720,1305.9,510.3,3578,right
5,1,continuous,17,56,postResponse,5930816.0,5936283.0,5467.0,17,R,5936314,5936616,304,1245.6,480.7,3868,right
5,1,continuous,18,30,fixationCross,5937349.0,5941116.0,3767.0,18,R,5936744,5936808,66,932.0,559.8,3912,NA
5,1,continuous,18,30,fixationCross,5937349.0,5941116.0,3767.0,18,R,5936818,5936850,34,931.1,561.1,3943,NA
5,1,continuous,18,30,fixationCross,5937349.0,5941116.0,3767.0,18,R,5936868,5936904,38,929.9,558.8,3972,NA
5,1,continuous,18,30,fixationCross,5937349.0,5941116.0,3767.0,18,R,5936940,5937092,154,800.9,558.9,4081,NA
5,1,continuous,18,30,fixationCross,5937349.0,5941116.0,3767.0,18,R,5937164,5937252,90,964.8,586.1,3931,NA
5,1,continuous,18,30,trial,5937349.0,5941116.0,3767.0,18,R,5937316,5937446,132,971.9,605.1,3734,NA
5,1,continuous,18,30,trial,5937349.0,5941116.0,3767.0,18,R,5937456,5937494,40,966.5,557.6,3853,NA
5,1,continuous,18,30,trial,5937349.0,5941116.0,3767.0,18,R,5937858,5937918,62,509.3,566.5,3315,left
5,1,continuous,18,30,trial,5937349.0,5941116.0,3767.0,18,R,5938000,5938028,30,374.2,561.4,3290,left
5,1,continuous,18,30,trial,5937349.0,5941116.0,3767.0,18,R,5938172,5938702,532,1464.8,540.2,3409,right
5,1,continuous,18,30,trial,5937349.0,5941116.0,3767.0,18,R,5938728,5938818,92,1265.0,640.8,3517,right
5,1,continuous,18,30,trial,5937349.0,5941116.0,3767.0,18,R,5938878,5939270,394,495.3,591.3,3400,left
5,1,continuous,18,30,trial,5937349.0,5941116.0,3767.0,18,R,5939408,5939882,476,1404.9,607.5,3392,right
5,1,continuous,18,30,trial,5937349.0,5941116.0,3767.0,18,R,5939934,5940486,554,909.1,948.4,3417,likertHorizontal
5,1,continuous,18,30,trial,5937349.0,5941116.0,3767.0,18,R,5940544,5941278,736,654.7,733.8,3524,NA
5,1,continuous,19,32,fixationCross,5942183.0,5947116.0,4933.0,19,R,5941550,5941622,74,753.9,605.0,3669,NA
5,1,continuous,19,32,fixationCross,5942183.0,5947116.0,4933.0,19,R,5941644,5941674,32,650.6,587.0,3713,left
5,1,continuous,19,32,fixationCross,5942183.0,5947116.0,4933.0,19,R,5941688,5941868,182,648.5,615.6,3786,left
5,1,continuous,19,32,trial,5942183.0,5947116.0,4933.0,19,R,5941914,5942316,404,935.9,574.5,3702,NA
5,1,continuous,19,32,trial,5942183.0,5947116.0,4933.0,19,R,5942386,5942638,254,493.9,590.7,3588,left
5,1,continuous,19,32,trial,5942183.0,5947116.0,4933.0,19,R,5942726,5942906,182,503.5,533.8,3287,left
5,1,continuous,19,32,trial,5942183.0,5947116.0,4933.0,19,R,5943006,5943238,234,1450.7,523.2,3364,right
5,1,continuous,19,32,trial,5942183.0,5947116.0,4933.0,19,R,5943268,5943544,278,1483.4,448.3,3486,right
5,1,continuous,19,32,trial,5942183.0,5947116.0,4933.0,19,R,5943564,5943766,204,1453.6,517.6,3667,right
5,1,continuous,19,32,trial,5942183.0,5947116.0,4933.0,19,R,5944162,5944184,24,481.5,562.2,3668,left
5,1,continuous,19,32,trial,5942183.0,5947116.0,4933.0,19,R,5944210,5944570,362,489.9,571.3,3661,left
5,1,continuous,19,32,trial,5942183.0,5947116.0,4933.0,19,R,5944590,5944902,314,399.6,647.3,3328,left
5,1,continuous,19,32,trial,5942183.0,5947116.0,4933.0,19,R,5944936,5945208,274,417.0,485.6,3124,left
5,1,continuous,19,32,trial,5942183.0,5947116.0,4933.0,19,R,5945272,5945984,714,565.3,537.7,3264,left
5,1,continuous,19,32,trial,5942183.0,5947116.0,4933.0,19,R,5946046,5946284,240,1399.7,517.9,3575,right
5,1,continuous,19,32,trial,5942183.0,5947116.0,4933.0,19,R,5946846,5947060,216,948.6,953.6,3303,likertHorizontal
5,1,continuous,19,32,trial,5942183.0,5947116.0,4933.0,19,R,5947142,5947278,138,1361.2,548.7,3461,right
5,1,continuous,20,59,fixationCross,5948183.0,5955283.0,7100.0,20,R,5948044,5948106,64,969.1,579.2,4235,NA
5,1,continuous,20,59,trial,5948183.0,5955283.0,7100.0,20,R,5948126,5948316,192,954.3,580.5,4083,NA
5,1,continuous,20,59,trial,5948183.0,5955283.0,7100.0,20,R,5948372,5948570,200,434.1,569.6,3507,left
5,1,continuous,20,59,trial,5948183.0,5955283.0,7100.0,20,R,5948608,5948632,26,439.1,576.4,3146,left
5,1,continuous,20,59,trial,5948183.0,5955283.0,7100.0,20,R,5948844,5948874,32,303.0,662.2,2678,left
5,1,continuous,20,59,trial,5948183.0,5955283.0,7100.0,20,R,5949052,5949110,60,298.2,657.8,2642,left
5,1,continuous,20,59,trial,5948183.0,5955283.0,7100.0,20,R,5949328,5949348,22,254.7,643.0,2685,left
5,1,continuous,20,59,trial,5948183.0,5955283.0,7100.0,20,R,5949612,5949838,228,1323.6,547.4,3105,right
5,1,continuous,20,59,trial,5948183.0,5955283.0,7100.0,20,R,5949860,5950272,414,1397.2,552.8,3376,right
5,1,continuous,20,59,trial,5948183.0,5955283.0,7100.0,20,R,5950294,5950422,130,1353.7,639.2,3602,right
5,1,continuous,20,59,trial,5948183.0,5955283.0,7100.0,20,R,5950710,5950874,166,446.3,584.9,3492,left
5,1,continuous,20,59,trial,5948183.0,5955283.0,7100.0,20,R,5950920,5950940,22,453.9,602.2,3362,left
5,1,continuous,20,59,trial,5948183.0,5955283.0,7100.0,20,R,5951584,5951916,334,1384.7,559.0,3096,right
5,1,continuous,20,59,trial,5948183.0,5955283.0,7100.0,20,R,5951940,5952294,356,1480.9,635.0,3474,right
5,1,continuous,20,59,trial,5948183.0,5955283.0,7100.0,20,R,5952322,5953070,750,1355.8,581.5,3678,right
5,1,continuous,20,59,trial,5948183.0,5955283.0,7100.0,20,R,5953088,5953416,330,1451.0,587.7,3564,right
5,1,continuous,20,59,trial,5948183.0,5955283.0,7100.0,20,R,5953610,5953888,280,412.1,575.7,3499,left
5,1,continuous,20,59,trial,5948183.0,5955283.0,7100.0,20,R,5954340,5954550,212,384.5,581.4,3419,left
5,1,continuous,20,59,trial,5948183.0,5955283.0,7100.0,20,R,5954620,5955146,528,1431.3,538.5,3473,right
5,1,continuous,20,59,trial,5948183.0,5955283.0,7100.0,20,R,5955428,5955488,62,1287.1,535.0,3592,right
5,1,continuous,20,59,trial,5948183.0,5955283.0,7100.0,20,R,5955512,5955562,52,1288.9,533.0,3650,right
5,1,continuous,21,43,fixationCross,5956383.0,5963117.0,6734.0,21,R,5955694,5955910,218,994.9,576.9,3716,NA
5,1,continuous,21,43,fixationCross,5956383.0,5963117.0,6734.0,21,R,5955934,5956044,112,831.7,595.5,3822,NA
5,1,continuous,21,43,fixationCross,5956383.0,5963117.0,6734.0,21,R,5956158,5956306,150,988.5,634.5,3521,NA
5,1,continuous,21,43,trial,5956383.0,5963117.0,6734.0,21,R,5956370,5956498,130,993.9,631.5,3509,NA
5,1,continuous,21,43,trial,5956383.0,5963117.0,6734.0,21,R,5956582,5956758,178,445.3,528.6,3680,left
5,1,continuous,21,43,trial,5956383.0,5963117.0,6734.0,21,R,5956814,5956842,30,454.1,529.8,3359,left
5,1,continuous,21,43,trial,5956383.0,5963117.0,6734.0,21,R,5957052,5957080,30,450.9,562.5,3146,left
5,1,continuous,21,43,trial,5956383.0,5963117.0,6734.0,21,R,5957110,5957142,34,449.7,556.6,3169,left
5,1,continuous,21,43,trial,5956383.0,5963117.0,6734.0,21,R,5957170,5957458,290,464.6,619.9,3342,left
5,1,continuous,21,43,trial,5956383.0,5963117.0,6734.0,21,R,5957562,5957950,390,1452.4,534.9,3559,right
5,1,continuous,21,43,trial,5956383.0,5963117.0,6734.0,21,R,5957974,5958124,152,1497.6,515.4,3489,right
5,1,continuous,21,43,trial,5956383.0,5963117.0,6734.0,21,R,5958150,5958466,318,1484.4,410.5,3374,right
5,1,continuous,21,43,trial,5956383.0,5963117.0,6734.0,21,R,5958872,5958934,64,439.1,605.9,3495,left
5,1,continuous,21,43,trial,5956383.0,5963117.0,6734.0,21,R,5959078,5959154,78,405.6,547.4,3436,left
5,1,continuous,21,43,trial,5956383.0,5963117.0,6734.0,21,R,5959202,5959278,78,549.9,576.1,3275,left
5,1,continuous,21,43,trial,5956383.0,5963117.0,6734.0,21,R,5959308,5959368,62,551.1,581.0,3202,left
5,1,continuous,21,43,trial,5956383.0,5963117.0,6734.0,21,R,5959416,5959496,82,550.1,574.9,3190,left
5,1,continuous,21,43,trial,5956383.0,5963117.0,6734.0,21,R,5959560,5959742,184,388.2,517.2,3330,left
5,1,continuous,21,43,trial,5956383.0,5963117.0,6734.0,21,R,5959824,5959918,96,486.5,743.9,3325,NA
5,1,continuous,21,43,trial,5956383.0,5963117.0,6734.0,21,R,5960328,5960628,302,470.1,644.0,3370,left
5,1,continuous,21,43,trial,5956383.0,5963117.0,6734.0,21,R,5960714,5960986,274,1414.1,574.4,3445,right
5,1,continuous,21,43,trial,5956383.0,5963117.0,6734.0,21,R,5961010,5961200,192,1495.9,554.6,3515,right
5,1,continuous,21,43,trial,5956383.0,5963117.0,6734.0,21,R,5961226,5961966,742,1482.1,419.7,3230,right
5,1,continuous,21,43,trial,5956383.0,5963117.0,6734.0,21,R,5961998,5962548,552,1404.9,584.2,3250,right
5,1,continuous,21,43,trial,5956383.0,5963117.0,6734.0,21,R,5962672,5962798,128,512.1,608.7,3151,left
5,1,continuous,21,43,trial,5956383.0,5963117.0,6734.0,21,R,5963166,5963306,142,654.6,584.1,3371,left
5,1,continuous,22,61,fixationCross,5964167.0,5968383.0,4216.0,22,R,5963542,5963680,140,713.4,579.2,3477,left
5,1,continuous,22,61,fixationCross,5964167.0,5968383.0,4216.0,22,R,5963740,5963860,122,711.7,608.4,3665,left
5,1,continuous,22,61,trial,5964167.0,5968383.0,4216.0,22,R,5963892,5964192,302,946.5,605.5,3622,NA
5,1,continuous,22,61,trial,5964167.0,5968383.0,4216.0,22,R,5964224,5964372,150,701.4,599.4,3637,left
5,1,continuous,22,61,trial,5964167.0,5968383.0,4216.0,22,R,5964410,5964654,246,431.6,536.7,3574,left
5,1,continuous,22,61,trial,5964167.0,5968383.0,4216.0,22,R,5964722,5964754,34,259.4,646.5,3124,left
5,1,continuous,22,61,trial,5964167.0,5968383.0,4216.0,22,R,5964972,5965142,172,617.1,664.9,3268,left
5,1,continuous,22,61,trial,5964167.0,5968383.0,4216.0,22,R,5965552,5965612,62,429.8,555.7,3370,left
5,1,continuous,22,61,trial,5964167.0,5968383.0,4216.0,22,R,5965636,5965690,56,426.0,553.5,3459,left
5,1,continuous,22,61,trial,5964167.0,5968383.0,4216.0,22,R,5965766,5966012,248,1374.8,564.1,3465,right
5,1,continuous,22,61,trial,5964167.0,5968383.0,4216.0,22,R,5966032,5966634,604,1451.1,562.4,3171,right
5,1,continuous,22,61,trial,5964167.0,5968383.0,4216.0,22,R,5966654,5967108,456,1355.1,551.0,3261,right
5,1,continuous,22,61,trial,5964167.0,5968383.0,4216.0,22,R,5967130,5967466,338,1444.0,585.1,3495,right
5,1,continuous,22,61,trial,5964167.0,5968383.0,4216.0,22,R,5967492,5968120,630,1585.7,619.9,3412,right
5,1,continuous,22,61,trial,5964167.0,5968383.0,4216.0,22,R,5968164,5968370,208,1284.3,715.5,3589,right
5,1,continuous,22,61,trial,5964167.0,5968383.0,4216.0,22,R,5968392,5968620,230,1297.0,655.0,3666,right
5,1,continuous,23,58,fixationCross,5969833.0,5978984.0,9151.0,23,R,5968988,5969092,106,1072.1,567.5,3772,NA
5,1,continuous,23,58,fixationCross,5969833.0,5978984.0,9151.0,23,R,5969118,5969168,52,867.8,608.6,3982,NA
5,1,continuous,23,58,fixationCross,5969833.0,5978984.0,9151.0,23,R,5969198,5969274,78,866.1,606.3,3945,NA
5,1,continuous,23,58,fixationCross,5969833.0,5978984.0,9151.0,23,R,5969586,5969752,168,931.6,635.1,3293,NA
5,1,continuous,23,58,trial,5969833.0,5978984.0,9151.0,23,R,5969764,5969996,234,978.5,625.3,3381,NA
5,1,continuous,23,58,trial,5969833.0,5978984.0,9151.0,23,R,5970248,5970440,194,492.5,595.9,3189,left
5,1,continuous,23,58,trial,5969833.0,5978984.0,9151.0,23,R,5971010,5971274,266,514.3,582.3,3156,left
5,1,continuous,23,58,trial,5969833.0,5978984.0,9151.0,23,R,5971442,5971474,34,293.9,676.5,3336,left
5,1,continuous,23,58,trial,5969833.0,5978984.0,9151.0,23,R,5971490,5971526,38,290.5,688.6,3319,left
5,1,continuous,23,58,trial,5969833.0,5978984.0,9151.0,23,R,5971540,5971572,34,292.8,688.1,3330,left
5,1,continuous,23,58,trial,5969833.0,5978984.0,9151.0,23,R,5971802,5972046,246,626.1,563.9,3222,left
5,1,continuous,23,58,trial,5969833.0,5978984.0,9151.0,23,R,5972072,5972406,336,477.8,621.4,3263,left
5,1,continuous,23,58,trial,5969833.0,5978984.0,9151.0,23,R,5972440,5972680,242,358.2,507.9,3468,left
5,1,continuous,23,58,trial,5969833.0,5978984.0,9151.0,23,R,5972726,5972864,140,572.8,765.8,3344,NA
5,1,continuous,23,58,trial,5969833.0,5978984.0,9151.0,23,R,5972886,5973242,358,497.3,714.8,3299,left
5,1,continuous,23,58,trial,5969833.0,5978984.0,9151.0,23,R,5973264,5973620,358,601.4,654.8,3375,left
5,1,continuous,23,58,trial,5969833.0,5978984.0,9151.0,23,R,5973660,5973786,128,416.8,547.9,3432,left
5,1,continuous,23,58,trial,5969833.0,5978984.0,9151.0,23,R,5973844,5974190,348,1324.8,556.4,3507,right
5,1,continuous,23,58,trial,5969833.0,5978984.0,9151.0,23,R,5974200,5974860,662,1348.1,546.7,3313,right
5,1,continuous,23,58,trial,5969833.0,5978984.0,9151.0,23,R,5974988,5975036,50,1455.6,644.9,3058,right
5,1,continuous,23,58,trial,5969833.0,5978984.0,9151.0,23,R,5975190,5975738,550,1558.4,577.8,3217,right
5,1,continuous,23,58,trial,5969833.0,5978984.0,9151.0,23,R,5975764,5976270,508,1376.0,580.6,2954,right
5,1,continuous,23,58,trial,5969833.0,5978984.0,9151.0,23,R,5976290,5976464,176,1331.1,537.8,3139,right
5,1,continuous,23,58,trial,5969833.0,5978984.0,9151.0,23,R,5976704,5976970,268,1381.8,549.9,3368,right
5,1,continuous,23,58,trial,5969833.0,5978984.0,9151.0,23,R,5976986,5977240,256,1401.7,537.4,3561,right
5,1,continuous,23,58,trial,5969833.0,5978984.0,9151.0,23,R,5977306,5977650,346,505.2,603.7,3263,left
5,1,continuous,23,58,trial,5969833.0,5978984.0,9151.0,23,R,5977720,5977752,34,370.1,537.0,3341,left
5,1,continuous,23,58,trial,5969833.0,5978984.0,9151.0,23,R,5977998,5978240,244,1310.5,561.6,3271,right
5,1,continuous,23,58,trial,5969833.0,5978984.0,9151.0,23,R,5978554,5978594,42,978.5,968.2,3599,likertHorizontal
5,1,continuous,23,58,trial,5969833.0,5978984.0,9151.0,23,R,5978618,5978712,96,984.5,973.2,3596,likertHorizontal
5,1,continuous,24,16,fixationCross,5980017.0,5983284.0,3267.0,24,R,5979854,5980008,156,928.4,603.1,4091,NA
5,1,continuous,24,16,trial,5980017.0,5983284.0,3267.0,24,R,5980022,5980178,158,971.5,602.4,3873,NA
5,1,continuous,24,16,trial,5980017.0,5983284.0,3267.0,24,R,5980230,5980434,206,1355.4,606.0,3731,right
5,1,continuous,24,16,trial,5980017.0,5983284.0,3267.0,24,R,5980458,5980520,64,1468.2,619.9,3548,right
5,1,continuous,24,16,trial,5980017.0,5983284.0,3267.0,24,R,5980578,5980860,284,585.2,661.7,3662,left
5,1,continuous,24,16,trial,5980017.0,5983284.0,3267.0,24,R,5981650,5981770,122,407.6,609.2,3667,left
5,1,continuous,24,16,trial,5980017.0,5983284.0,3267.0,24,R,5981932,5982170,240,1452.1,601.5,3620,right
5,1,continuous,24,16,trial,5980017.0,5983284.0,3267.0,24,R,5982194,5982448,256,1317.1,552.0,3789,right
5,1,continuous,24,16,trial,5980017.0,5983284.0,3267.0,24,R,5982506,5982712,208,533.9,630.1,3745,left
5,1,continuous,24,16,trial,5980017.0,5983284.0,3267.0,24,R,5983020,5983036,18,419.0,846.0,3326,NA
5,1,continuous,24,16,trial,5980017.0,5983284.0,3267.0,24,R,5983326,5983442,118,579.8,625.6,3924,left
5,1,continuous,25,63,fixationCross,5984533.0,5996684.0,12151.0,25,R,5984196,5984286,92,1117.1,663.1,4283,NA
5,1,continuous,25,63,trial,5984533.0,5996684.0,12151.0,25,R,5984484,5984680,198,961.7,599.9,3875,NA
5,1,continuous,25,63,trial,5984533.0,5996684.0,12151.0,25,R,5984782,5985024,244,464.4,602.7,3534,left
5,1,continuous,25,63,trial,5984533.0,5996684.0,12151.0,25,R,5985042,5985072,32,462.4,600.1,3337,left
5,1,continuous,25,63,trial,5984533.0,5996684.0,12151.0,25,R,5985086,5985132,48,460.9,601.9,3322,left
5,1,continuous,25,63,trial,5984533.0,5996684.0,12151.0,25,R,5985144,5985476,334,485.1,581.7,3228,left
5,1,continuous,25,63,trial,5984533.0,5996684.0,12151.0,25,R,5985502,5985684,184,405.8,663.9,3412,left
5,1,continuous,25,63,trial,5984533.0,5996684.0,12151.0,25,R,5985746,5985976,232,1329.4,551.7,3569,right
5,1,continuous,25,63,trial,5984533.0,5996684.0,12151.0,25,R,5986002,5986330,330,1427.2,581.5,3646,right
5,1,continuous,25,63,trial,5984533.0,5996684.0,12151.0,25,R,5986354,5986566,214,1455.2,509.4,3684,right
5,1,continuous,25,63,trial,5984533.0,5996684.0,12151.0,25,R,5987012,5987050,40,508.3,570.1,3865,left
5,1,continuous,25,63,trial,5984533.0,5996684.0,12151.0,25,R,5987080,5987130,52,511.1,580.9,3843,left
5,1,continuous,25,63,trial,5984533.0,5996684.0,12151.0,25,R,5987172,5987222,52,471.7,709.8,3849,left
5,1,continuous,25,63,trial,5984533.0,5996684.0,12151.0,25,R,5987246,5987616,372,463.5,713.9,3737,left
5,1,continuous,25,63,trial,5984533.0,5996684.0,12151.0,25,R,5987860,5988234,376,1381.0,618.5,3644,right
5,1,continuous,25,63,trial,5984533.0,5996684.0,12151.0,25,R,5988260,5988438,180,1311.1,539.0,3704,right
5,1,continuous,25,63,trial,5984533.0,5996684.0,12151.0,25,R,5988462,5988854,394,1474.8,527.5,3456,right
5,1,continuous,25,63,trial,5984533.0,5996684.0,12151.0,25,R,5988920,5989262,344,586.2,611.8,3324,left
5,1,continuous,25,63,trial,5984533.0,5996684.0,12151.0,25,R,5989290,5989502,214,493.6,618.3,3290,left
5,1,continuous,25,63,trial,5984533.0,5996684.0,12151.0,25,R,5989546,5989618,74,487.1,611.3,3247,left
5,1,continuous,25,63,trial,5984533.0,5996684.0,12151.0,25,R,5989642,5989768,128,489.8,606.8,3239,left
5,1,continuous,25,63,trial,5984533.0,5996684.0,12151.0,25,R,5989852,5989880,30,412.1,559.1,3322,left
5,1,continuous,25,63,trial,5984533.0,5996684.0,12151.0,25,R,5989940,5990052,114,412.3,548.9,3392,left
5,1,continuous,25,63,trial,5984533.0,5996684.0,12151.0,25,R,5990130,5990176,48,413.3,539.4,3483,left
5,1,continuous,25,63,trial,5984533.0,5996684.0,12151.0,25,R,5990208,5990334,128,411.2,530.8,3542,left
5,1,continuous,25,63,trial,5984533.0,5996684.0,12151.0,25,R,5990542,5991134,594,1429.4,548.7,3546,right
5,1,continuous,25,63,trial,5984533.0,5996684.0,12151.0,25,R,5991294,5991316,24,705.8,563.5,3463,left
5,1,continuous,25,63,trial,5984533.0,5996684.0,12151.0,25,R,5991354,5991896,544,400.3,554.4,3563,left
5,1,continuous,25,63,trial,5984533.0,5996684.0,12151.0,25,R,5991930,5991968,40,407.6,577.1,3433,left
5,1,continuous,25,63,trial,5984533.0,5996684.0,12151.0,25,R,5992040,5992110,72,404.9,581.5,3423,left
5,1,continuous,25,63,trial,5984533.0,5996684.0,12151.0,25,R,5992224,5992780,558,1397.4,553.0,3624,right
5,1,continuous,25,63,trial,5984533.0,5996684.0,12151.0,25,R,5992796,5994036,1242,1367.2,538.9,3828,right
5,1,continuous,25,63,trial,5984533.0,5996684.0,12151.0,25,R,5994074,5994228,156,1122.1,525.3,3691,NA
5,1,continuous,25,63,trial,5984533.0,5996684.0,12151.0,25,R,5994268,5995394,1128,1403.9,540.4,3656,right
5,1,continuous,25,63,trial,5984533.0,5996684.0,12151.0,25,R,5995564,5995584,22,560.0,578.5,3620,left
5,1,continuous,25,63,trial,5984533.0,5996684.0,12151.0,25,R,5995662,5995710,50,557.3,569.2,3582,left
5,1,continuous,25,63,trial,5984533.0,5996684.0,12151.0,25,R,5995804,5995894,92,558.9,572.2,3475,left
5,1,continuous,25,63,trial,5984533.0,5996684.0,12151.0,25,R,5995960,5996916,958,1391.7,537.8,3678,right
5,1,continuous,25,63,postResponse,5984533.0,5996684.0,12151.0,25,R,5996954,5997034,82,1157.1,536.9,3893,NA
5,1,continuous,26,65,fixationCross,6024768.0,6030984.0,6216.0,26,R,6024448,6024468,22,767.6,516.0,3596,NA
5,1,continuous,26,65,fixationCross,6024768.0,6030984.0,6216.0,26,R,6024494,6024660,168,873.0,502.6,3828,NA
5,1,continuous,26,65,trial,6024768.0,6030984.0,6216.0,26,R,6024686,6025054,370,957.7,551.5,3800,NA
5,1,continuous,26,65,trial,6024768.0,6030984.0,6216.0,26,R,6025096,6025396,302,562.7,559.7,3339,left
5,1,continuous,26,65,trial,6024768.0,6030984.0,6216.0,26,R,6025456,6025798,344,1409.3,497.5,3130,right
5,1,continuous,26,65,trial,6024768.0,6030984.0,6216.0,26,R,6025822,6026156,336,1527.9,547.3,3130,right
5,1,continuous,26,65,trial,6024768.0,6030984.0,6216.0,26,R,6026186,6026392,208,1377.6,424.3,3090,right
5,1,continuous,26,65,trial,6024768.0,6030984.0,6216.0,26,R,6026658,6027080,424,520.2,524.8,3290,left
5,1,continuous,26,65,trial,6024768.0,6030984.0,6216.0,26,R,6027190,6027458,270,388.1,595.0,3043,left
5,1,continuous,26,65,trial,6024768.0,6030984.0,6216.0,26,R,6027482,6027778,298,537.6,527.9,2953,left
5,1,continuous,26,65,trial,6024768.0,6030984.0,6216.0,26,R,6027796,6027984,190,539.0,529.3,2879,left
5,1,continuous,26,65,trial,6024768.0,6030984.0,6216.0,26,R,6028004,6028132,130,523.5,518.7,2847,left
5,1,continuous,26,65,trial,6024768.0,6030984.0,6216.0,26,R,6028412,6028810,400,1414.3,535.0,3116,right
5,1,continuous,26,65,trial,6024768.0,6030984.0,6216.0,26,R,6028834,6029046,214,1366.8,457.3,3251,right
5,1,continuous,26,65,trial,6024768.0,6030984.0,6216.0,26,R,6029082,6029370,290,1590.6,501.2,3166,right
5,1,continuous,26,65,trial,6024768.0,6030984.0,6216.0,26,R,6029396,6029766,372,1438.4,620.3,3256,right
5,1,continuous,26,65,trial,6024768.0,6030984.0,6216.0,26,R,6029792,6030038,248,1559.8,579.9,3158,right
5,1,continuous,26,65,trial,6024768.0,6030984.0,6216.0,26,R,6030066,6030114,50,1395.6,535.3,3100,right
5,1,continuous,26,65,trial,6024768.0,6030984.0,6216.0,26,R,6030172,6030388,218,1028.3,948.5,3069,likertHorizontal
5,1,continuous,26,65,trial,6024768.0,6030984.0,6216.0,26,R,6030508,6030538,32,1013.4,947.8,3407,likertHorizontal
5,1,continuous,27,35,fixationCross,6031900.0,6035567.0,3667.0,27,R,6031500,6031872,374,990.4,499.7,3703,NA
5,1,continuous,27,35,trial,6031900.0,6035567.0,3667.0,27,R,6031886,6032080,196,964.8,525.5,3631,NA
5,1,continuous,27,35,trial,6031900.0,6035567.0,3667.0,27,R,6032124,6032328,206,471.4,591.5,3330,left
5,1,continuous,27,35,trial,6031900.0,6035567.0,3667.0,27,R,6032354,6032704,352,294.4,527.7,2976,left
5,1,continuous,27,35,trial,6031900.0,6035567.0,3667.0,27,R,6032744,6032954,212,639.0,584.0,3138,left
5,1,continuous,27,35,trial,6031900.0,6035567.0,3667.0,27,R,6033010,6033610,602,1403.9,507.1,3319,right
5,1,continuous,27,35,trial,6031900.0,6035567.0,3667.0,27,R,6033676,6033872,198,527.2,598.2,3221,left
5,1,continuous,27,35,trial,6031900.0,6035567.0,3667.0,27,R,6033912,6034356,446,282.1,504.4,3118,left
5,1,continuous,27,35,trial,6031900.0,6035567.0,3667.0,27,R,6034398,6034776,380,601.8,600.0,3056,left
5,1,continuous,27,35,trial,6031900.0,6035567.0,3667.0,27,R,6034970,6035124,156,893.3,966.8,3163,likertHorizontal
5,1,continuous,27,35,trial,6031900.0,6035567.0,3667.0,27,R,6035146,6035710,566,790.2,951.6,3254,likertHorizontal
5,1,continuous,28,13,fixationCross,6036467.0,6042718.0,6251.0,28,R,6036184,6036462,280,884.1,483.3,3780,NA
5,1,continuous,28,13,trial,6036467.0,6042718.0,6251.0,28,R,6036488,6036514,28,880.1,490.2,3884,NA
5,1,continuous,28,13,trial,6036467.0,6042718.0,6251.0,28,R,6036568,6036600,34,879.6,502.5,3751,NA
5,1,continuous,28,13,trial,6036467.0,6042718.0,6251.0,28,R,6036670,6037006,338,484.2,543.4,3389,left
5,1,continuous,28,13,trial,6036467.0,6042718.0,6251.0,28,R,6037032,6037274,244,353.9,621.6,3169,left
5,1,continuous,28,13,trial,6036467.0,6042718.0,6251.0,28,R,6037330,6037544,216,446.3,540.1,3385,left
5,1,continuous,28,13,trial,6036467.0,6042718.0,6251.0,28,R,6037568,6037642,76,441.7,540.4,3410,left
5,1,continuous,28,13,trial,6036467.0,6042718.0,6251.0,28,R,6037716,6037994,280,1446.2,553.1,3516,right
5,1,continuous,28,13,trial,6036467.0,6042718.0,6251.0,28,R,6038016,6038304,290,1365.4,607.6,3652,right
5,1,continuous,28,13,trial,6036467.0,6042718.0,6251.0,28,R,6038332,6038676,346,1435.6,488.0,3538,right
5,1,continuous,28,13,trial,6036467.0,6042718.0,6251.0,28,R,6038702,6039110,410,1557.0,598.3,3474,right
5,1,continuous,28,13,trial,6036467.0,6042718.0,6251.0,28,R,6039248,6039730,484,501.1,564.4,3375,left
5,1,continuous,28,13,trial,6036467.0,6042718.0,6251.0,28,R,6039782,6039920,140,377.2,559.0,3280,left
5,1,continuous,28,13,trial,6036467.0,6042718.0,6251.0,28,R,6039960,6040332,374,579.8,452.1,3293,left
5,1,continuous,28,13,trial,6036467.0,6042718.0,6251.0,28,R,6040374,6040562,190,437.4,594.0,3306,left
5,1,continuous,28,13,trial,6036467.0,6042718.0,6251.0,28,R,6040580,6040696,118,433.8,583.2,3312,left
5,1,continuous,28,13,trial,6036467.0,6042718.0,6251.0,28,R,6040758,6041204,448,1386.1,558.3,3341,right
5,1,continuous,28,13,trial,6036467.0,6042718.0,6251.0,28,R,6041226,6041448,224,1409.0,506.1,3347,right
5,1,continuous,28,13,trial,6036467.0,6042718.0,6251.0,28,R,6041472,6041640,170,1531.1,588.6,3384,right
5,1,continuous,28,13,trial,6036467.0,6042718.0,6251.0,28,R,6041724,6042280,558,489.0,574.3,3535,left
5,1,continuous,28,13,trial,6036467.0,6042718.0,6251.0,28,R,6042354,6042440,88,661.3,968.6,3657,NA
5,1,continuous,28,13,trial,6036467.0,6042718.0,6251.0,28,R,6042492,6042512,22,656.5,964.4,3462,NA
5,1,continuous,29,62,trial,6043718.0,6052418.0,8700.0,29,R,6043496,6043862,368,964.4,567.1,3919,NA
5,1,continuous,29,62,trial,6043718.0,6052418.0,8700.0,29,R,6043908,6044230,324,481.2,555.6,3408,left
5,1,continuous,29,62,trial,6043718.0,6052418.0,8700.0,29,R,6044260,6044770,512,323.6,643.4,2997,left
5,1,continuous,29,62,trial,6043718.0,6052418.0,8700.0,29,R,6044832,6045088,258,1373.7,489.2,3158,right
5,1,continuous,29,62,trial,6043718.0,6052418.0,8700.0,29,R,6045106,6045426,322,1447.1,507.8,3293,right
5,1,continuous,29,62,trial,6043718.0,6052418.0,8700.0,29,R,6045450,6045756,308,1590.2,553.9,3498,right
5,1,continuous,29,62,trial,6043718.0,6052418.0,8700.0,29,R,6045786,6046432,648,1601.3,681.1,3575,right
5,1,continuous,29,62,trial,6043718.0,6052418.0,8700.0,29,R,6046448,6046630,184,1536.9,695.2,3736,right
5,1,continuous,29,62,trial,6043718.0,6052418.0,8700.0,29,R,6046774,6047032,260,454.1,630.4,3651,left
5,1,continuous,29,62,trial,6043718.0,6052418.0,8700.0,29,R,6047084,6047436,354,320.1,627.5,3219,left
5,1,continuous,29,62,trial,6043718.0,6052418.0,8700.0,29,R,6047446,6047760,316,265.4,627.0,2984,left
5,1,continuous,29,62,trial,6043718.0,6052418.0,8700.0,29,R,6047838,6047872,36,407.9,580.0,2980,left
5,1,continuous,29,62,trial,6043718.0,6052418.0,8700.0,29,R,6048074,6048156,84,408.2,565.8,3034,left
5,1,continuous,29,62,trial,6043718.0,6052418.0,8700.0,29,R,6048224,6048358,136,541.2,603.8,3061,left
5,1,continuous,29,62,trial,6043718.0,6052418.0,8700.0,29,R,6048422,6048664,244,1455.2,474.5,3295,right
5,1,continuous,29,62,trial,6043718.0,6052418.0,8700.0,29,R,6048688,6049062,376,1358.3,525.4,3631,right
5,1,continuous,29,62,trial,6043718.0,6052418.0,8700.0,29,R,6049098,6049538,442,1587.3,606.1,3593,right
5,1,continuous,29,62,trial,6043718.0,6052418.0,8700.0,29,R,6049558,6049786,230,1474.6,561.1,3503,right
5,1,continuous,29,62,trial,6043718.0,6052418.0,8700.0,29,R,6049806,6050372,568,1460.7,520.4,3558,right
5,1,continuous,29,62,trial,6043718.0,6052418.0,8700.0,29,R,6050394,6050590,198,1340.0,518.9,3667,right
5,1,continuous,29,62,trial,6043718.0,6052418.0,8700.0,29,R,6050620,6050980,362,1491.5,419.2,3675,right
5,1,continuous,29,62,trial,6043718.0,6052418.0,8700.0,29,R,6051004,6051390,388,1578.5,517.1,3672,right
5,1,continuous,29,62,trial,6043718.0,6052418.0,8700.0,29,R,6051414,6051742,330,1441.2,525.5,3746,right
5,1,continuous,29,62,trial,6043718.0,6052418.0,8700.0,29,R,6051760,6052010,252,1384.2,534.3,3784,right
5,1,continuous,29,62,trial,6043718.0,6052418.0,8700.0,29,R,6052328,6052696,370,1503.0,566.5,3721,right
5,1,continuous,30,65,fixationCross,6053484.0,6058734.0,5250.0,30,R,6053094,6053192,100,853.3,564.7,3830,NA
5,1,continuous,30,65,fixationCross,6053484.0,6058734.0,5250.0,30,R,6053222,6053404,184,1023.1,555.4,3907,NA
5,1,continuous,30,65,trial,6053484.0,6058734.0,5250.0,30,R,6053418,6053582,166,980.6,557.8,3675,NA
5,1,continuous,30,65,trial,6053484.0,6058734.0,5250.0,30,R,6053816,6054258,444,477.8,550.9,3413,left
5,1,continuous,30,65,trial,6053484.0,6058734.0,5250.0,30,R,6054290,6054332,44,323.8,694.4,3366,left
5,1,continuous,30,65,trial,6053484.0,6058734.0,5250.0,30,R,6054500,6054572,74,319.1,704.5,3421,left
5,1,continuous,30,65,trial,6053484.0,6058734.0,5250.0,30,R,6054644,6054666,24,453.1,556.3,3549,left
5,1,continuous,30,65,trial,6053484.0,6058734.0,5250.0,30,R,6054690,6054782,94,456.6,562.1,3506,left
5,1,continuous,30,65,trial,6053484.0,6058734.0,5250.0,30,R,6054884,6054938,56,443.6,544.7,3526,left
5,1,continuous,30,65,trial,6053484.0,6058734.0,5250.0,30,R,6055000,6055610,612,1424.0,509.7,3477,right
5,1,continuous,30,65,trial,6053484.0,6058734.0,5250.0,30,R,6055634,6055834,202,1425.2,608.6,3236,right
5,1,continuous,30,65,trial,6053484.0,6058734.0,5250.0,30,R,6056126,6056438,314,1443.6,516.7,3362,right
5,1,continuous,30,65,trial,6053484.0,6058734.0,5250.0,30,R,6056508,6056852,346,488.0,516.2,3388,left
5,1,continuous,30,65,trial,6053484.0,6058734.0,5250.0,30,R,6057158,6057188,32,333.4,760.6,3189,NA
5,1,continuous,30,65,trial,6053484.0,6058734.0,5250.0,30,R,6057276,6057300,26,337.0,756.0,3242,NA
5,1,continuous,30,65,trial,6053484.0,6058734.0,5250.0,30,R,6057352,6057514,164,485.2,559.3,3544,left
5,1,continuous,30,65,trial,6053484.0,6058734.0,5250.0,30,R,6057542,6057812,272,488.9,558.2,3408,left
5,1,continuous,30,65,trial,6053484.0,6058734.0,5250.0,30,R,6057870,6058012,144,1380.3,539.9,3513,right
5,1,continuous,30,65,trial,6053484.0,6058734.0,5250.0,30,R,6058060,6058416,358,1029.9,933.9,3683,likertHorizontal
5,1,continuous,30,65,trial,6053484.0,6058734.0,5250.0,30,R,6058750,6058864,116,1385.0,545.0,3600,right
5,1,continuous,31,57,fixationCross,6060068.0,6065485.0,5417.0,31,R,6059804,6059848,46,1015.2,646.7,3758,NA
5,1,continuous,31,57,fixationCross,6060068.0,6065485.0,5417.0,31,R,6059870,6059914,46,1008.9,614.1,3696,NA
5,1,continuous,31,57,fixationCross,6060068.0,6065485.0,5417.0,31,R,6059966,6060022,58,1012.2,599.2,3507,NA
5,1,continuous,31,57,trial,6060068.0,6065485.0,5417.0,31,R,6060352,6060396,46,483.6,549.3,3403,left
5,1,continuous,31,57,trial,6060068.0,6065485.0,5417.0,31,R,6060418,6060516,100,488.9,551.2,3291,left
5,1,continuous,31,57,trial,6060068.0,6065485.0,5417.0,31,R,6060592,6060626,36,461.4,517.9,3192,left
5,1,continuous,31,57,trial,6060068.0,6065485.0,5417.0,31,R,6060672,6060738,68,461.3,516.9,3178,left
5,1,continuous,31,57,trial,6060068.0,6065485.0,5417.0,31,R,6061574,6061666,94,469.1,511.6,3323,left
5,1,continuous,31,57,trial,6060068.0,6065485.0,5417.0,31,R,6061834,6061876,44,314.3,742.7,2422,NA
5,1,continuous,31,57,trial,6060068.0,6065485.0,5417.0,31,R,6062204,6062398,196,1417.5,569.7,3521,right
5,1,continuous,31,57,trial,6060068.0,6065485.0,5417.0,31,R,6062424,6062702,280,1497.4,483.1,3445,right
5,1,continuous,31,57,trial,6060068.0,6065485.0,5417.0,31,R,6062724,6063184,462,1410.1,581.2,3363,right
5,1,continuous,31,57,trial,6060068.0,6065485.0,5417.0,31,R,6063198,6063626,430,1370.6,610.3,3314,right
5,1,continuous,31,57,trial,6060068.0,6065485.0,5417.0,31,R,6063652,6064140,490,1482.6,468.6,3463,right
5,1,continuous,31,57,trial,6060068.0,6065485.0,5417.0,31,R,6064172,6064628,458,1425.9,566.8,3485,right
5,1,continuous,31,57,trial,6060068.0,6065485.0,5417.0,31,R,6064696,6064754,60,1112.5,940.2,3505,likertHorizontal
5,1,continuous,31,57,trial,6060068.0,6065485.0,5417.0,31,R,6064908,6065058,152,1002.9,957.1,3700,likertHorizontal
5,1,continuous,31,57,trial,6060068.0,6065485.0,5417.0,31,R,6065120,6065456,338,1415.8,568.2,3673,right
5,1,continuous,31,57,trial,6060068.0,6065485.0,5417.0,31,R,6065506,6065632,128,990.6,962.1,3757,likertHorizontal
5,1,continuous,32,85,fixationCross,6066585.0,6072234.0,5649.0,32,R,6066404,6066420,18,1009.4,642.0,4030,NA
5,1,continuous,32,85,trial,6066585.0,6072234.0,5649.0,32,R,6066432,6066638,208,981.4,588.0,4085,NA
5,1,continuous,32,85,trial,6066585.0,6072234.0,5649.0,32,R,6066666,6066794,130,798.4,563.8,3818,NA
5,1,continuous,32,85,trial,6066585.0,6072234.0,5649.0,32,R,6066856,6067172,318,442.1,583.6,3419,left
5,1,continuous,32,85,trial,6066585.0,6072234.0,5649.0,32,R,6067204,6067268,66,384.2,592.9,3398,left
5,1,continuous,32,85,trial,6066585.0,6072234.0,5649.0,32,R,6067476,6067520,46,391.3,598.7,3575,left
5,1,continuous,32,85,trial,6066585.0,6072234.0,5649.0,32,R,6067764,6067892,130,477.8,577.3,3668,left
5,1,continuous,32,85,trial,6066585.0,6072234.0,5649.0,32,R,6067952,6068330,380,1417.0,528.9,3667,right
5,1,continuous,32,85,trial,6066585.0,6072234.0,5649.0,32,R,6068350,6068616,268,1285.1,512.0,3459,right
5,1,continuous,32,85,trial,6066585.0,6072234.0,5649.0,32,R,6068652,6069054,404,1466.3,509.0,3452,right
5,1,continuous,32,85,trial,6066585.0,6072234.0,5649.0,32,R,6069078,6069286,210,1294.6,508.3,3362,right
5,1,continuous,32,85,trial,6066585.0,6072234.0,5649.0,32,R,6069322,6069548,228,1552.3,523.7,3383,right
5,1,continuous,32,85,trial,6066585.0,6072234.0,5649.0,32,R,6070290,6070316,28,450.8,583.2,3720,left
5,1,continuous,32,85,trial,6066585.0,6072234.0,5649.0,32,R,6070430,6070462,34,449.2,587.0,3543,left
5,1,continuous,32,85,trial,6066585.0,6072234.0,5649.0,32,R,6070568,6070902,336,1392.8,486.1,3581,right
5,1,continuous,32,85,trial,6066585.0,6072234.0,5649.0,32,R,6070950,6071122,174,805.9,565.4,3626,NA
5,1,continuous,32,85,trial,6066585.0,6072234.0,5649.0,32,R,6071162,6071250,90,1164.3,647.3,3573,NA
5,1,continuous,33,58,fixationCross,6073418.0,6079335.0,5917.0,33,R,6072680,6072682,4,594.9,961.5,1999,NA
5,1,continuous,33,58,trial,6073418.0,6079335.0,5917.0,33,R,6073188,6073576,390,961.9,563.3,4076,NA
5,1,continuous,33,58,trial,6073418.0,6079335.0,5917.0,33,R,6073942,6074352,412,1445.2,494.3,3399,right
5,1,continuous,33,58,trial,6073418.0,6079335.0,5917.0,33,R,6074372,6074738,368,1433.5,442.6,3327,right
5,1,continuous,33,58,trial,6073418.0,6079335.0,5917.0,33,R,6074768,6074990,224,1434.7,570.9,3177,right
5,1,continuous,33,58,trial,6073418.0,6079335.0,5917.0,33,R,6075024,6075320,298,1428.8,446.3,3132,right
5,1,continuous,33,58,trial,6073418.0,6079335.0,5917.0,33,R,6075386,6075586,202,442.0,704.8,3089,left
5,1,continuous,33,58,trial,6073418.0,6079335.0,5917.0,33,R,6075606,6076034,430,390.4,642.7,3120,left
5,1,continuous,33,58,trial,6073418.0,6079335.0,5917.0,33,R,6076064,6076182,120,265.1,705.8,3243,left
5,1,continuous,33,58,trial,6073418.0,6079335.0,5917.0,33,R,6076228,6076268,42,255.5,715.4,3216,left
5,1,continuous,33,58,trial,6073418.0,6079335.0,5917.0,33,R,6076356,6076690,336,557.2,690.0,3190,left
5,1,continuous,33,58,trial,6073418.0,6079335.0,5917.0,33,R,6076736,6076848,114,480.0,631.9,3290,left
5,1,continuous,33,58,trial,6073418.0,6079335.0,5917.0,33,R,6076868,6076900,34,478.2,630.1,3387,left
5,1,continuous,33,58,trial,6073418.0,6079335.0,5917.0,33,R,6076910,6076954,46,481.0,629.9,3445,left
5,1,continuous,33,58,trial,6073418.0,6079335.0,5917.0,33,R,6076972,6076998,28,477.6,620.1,3499,left
5,1,continuous,33,58,trial,6073418.0,6079335.0,5917.0,33,R,6077322,6077888,568,1400.4,520.3,3532,right
5,1,continuous,33,58,trial,6073418.0,6079335.0,5917.0,33,R,6077912,6078512,602,1515.3,584.7,3257,right
5,1,continuous,33,58,trial,6073418.0,6079335.0,5917.0,33,R,6078536,6078792,258,1425.4,505.9,3374,right
5,1,continuous,34,36,trial,6080252.0,6085619.0,5367.0,34,R,6080032,6080394,364,914.9,554.4,3962,NA
5,1,continuous,34,36,trial,6080252.0,6085619.0,5367.0,34,R,6080440,6080670,232,419.3,556.4,3537,left
5,1,continuous,34,36,trial,6080252.0,6085619.0,5367.0,34,R,6080698,6080838,142,471.3,507.4,3208,left
5,1,continuous,34,36,trial,6080252.0,6085619.0,5367.0,34,R,6080854,6081092,240,472.2,505.0,3172,left
5,1,continuous,34,36,trial,6080252.0,6085619.0,5367.0,34,R,6081102,6081170,70,471.0,505.4,3271,left
5,1,continuous,34,36,trial,6080252.0,6085619.0,5367.0,34,R,6081226,6081428,204,464.9,512.7,3378,left
5,1,continuous,34,36,trial,6080252.0,6085619.0,5367.0,34,R,6081436,6081524,90,463.7,503.3,3426,left
5,1,continuous,34,36,trial,6080252.0,6085619.0,5367.0,34,R,6081598,6082048,452,1463.7,505.1,3468,right
5,1,continuous,34,36,trial,6080252.0,6085619.0,5367.0,34,R,6082074,6082326,254,1377.2,628.3,3463,right
5,1,continuous,34,36,trial,6080252.0,6085619.0,5367.0,34,R,6082350,6082684,336,1495.6,634.1,3399,right
5,1,continuous,34,36,trial,6080252.0,6085619.0,5367.0,34,R,6082712,6082984,274,1532.9,510.5,3278,right
5,1,continuous,34,36,trial,6080252.0,6085619.0,5367.0,34,R,6083014,6083338,326,1335.8,644.1,3389,right
5,1,continuous,34,36,trial,6080252.0,6085619.0,5367.0,34,R,6083426,6083496,72,481.0,615.1,3360,left
5,1,continuous,34,36,trial,6080252.0,6085619.0,5367.0,34,R,6083518,6083606,90,478.4,615.3,3322,left
5,1,continuous,34,36,trial,6080252.0,6085619.0,5367.0,34,R,6083680,6084366,688,444.2,526.0,3373,left
5,1,continuous,34,36,trial,6080252.0,6085619.0,5367.0,34,R,6084414,6084496,84,440.9,633.6,3389,left
5,1,continuous,34,36,trial,6080252.0,6085619.0,5367.0,34,R,6084516,6084658,144,443.0,634.4,3429,left
5,1,continuous,34,36,trial,6080252.0,6085619.0,5367.0,34,R,6084696,6084840,146,431.0,526.6,3451,left
5,1,continuous,34,36,trial,6080252.0,6085619.0,5367.0,34,R,6084900,6085072,174,1376.4,515.4,3536,right
5,1,continuous,34,36,trial,6080252.0,6085619.0,5367.0,34,R,6085132,6085542,412,906.8,950.2,3739,likertHorizontal
5,1,continuous,34,36,trial,6080252.0,6085619.0,5367.0,34,R,6085680,6085778,100,1457.3,540.4,3384,right
5,1,continuous,35,43,fixationCross,6086668.0,6093035.0,6367.0,35,R,6086036,6086354,320,1170.4,513.5,3779,NA
5,1,continuous,35,43,fixationCross,6086668.0,6093035.0,6367.0,35,R,6086382,6086432,52,967.2,545.2,3992,NA
5,1,continuous,35,43,fixationCross,6086668.0,6093035.0,6367.0,35,R,6086442,6086570,130,969.0,549.0,3931,NA
5,1,continuous,35,43,fixationCross,6086668.0,6093035.0,6367.0,35,R,6086592,6086622,32,972.3,557.7,3829,NA
5,1,continuous,35,43,trial,6086668.0,6093035.0,6367.0,35,R,6086656,6086710,56,969.3,564.7,3806,NA
5,1,continuous,35,43,trial,6086668.0,6093035.0,6367.0,35,R,6086864,6087120,258,441.8,529.2,3605,left
5,1,continuous,35,43,trial,6086668.0,6093035.0,6367.0,35,R,6087182,6087414,234,1417.3,551.5,3175,right
5,1,continuous,35,43,trial,6086668.0,6093035.0,6367.0,35,R,6087438,6087612,176,1418.3,459.4,3161,right
5,1,continuous,35,43,trial,6086668.0,6093035.0,6367.0,35,R,6087636,6087996,362,1564.0,489.8,3556,right
5,1,continuous,35,43,trial,6086668.0,6093035.0,6367.0,35,R,6088020,6088186,168,1401.5,472.9,3517,right
5,1,continuous,35,43,trial,6086668.0,6093035.0,6367.0,35,R,6088252,6088630,380,446.0,531.0,3400,left
5,1,continuous,35,43,trial,6086668.0,6093035.0,6367.0,35,R,6088656,6088828,174,296.3,573.1,2977,left
5,1,continuous,35,43,trial,6086668.0,6093035.0,6367.0,35,R,6088850,6089364,516,468.0,518.3,3104,left
5,1,continuous,35,43,trial,6086668.0,6093035.0,6367.0,35,R,6089400,6089430,32,471.1,533.9,3274,left
5,1,continuous,35,43,trial,6086668.0,6093035.0,6367.0,35,R,6090456,6090696,242,1379.6,537.0,3193,right
5,1,continuous,35,43,trial,6086668.0,6093035.0,6367.0,35,R,6090718,6090906,190,1410.4,488.8,3315,right
5,1,continuous,35,43,trial,6086668.0,6093035.0,6367.0,35,R,6090930,6091300,372,1564.5,506.4,3540,right
5,1,continuous,35,43,trial,6086668.0,6093035.0,6367.0,35,R,6091326,6091638,314,1407.6,644.7,3559,right
5,1,continuous,35,43,trial,6086668.0,6093035.0,6367.0,35,R,6091670,6091856,188,1403.3,464.1,3547,right
5,1,continuous,35,43,trial,6086668.0,6093035.0,6367.0,35,R,6091948,6092302,356,462.8,519.3,3512,left
5,1,continuous,36,28,fixationCross,6094002.0,6099168.0,5166.0,36,R,6093718,6093750,34,996.5,519.7,2945,NA
5,1,continuous,36,28,fixationCross,6094002.0,6099168.0,5166.0,36,R,6093926,6093966,42,866.6,509.4,3900,NA
5,1,continuous,36,28,trial,6094002.0,6099168.0,5166.0,36,R,6093988,6094144,158,937.7,546.1,3950,NA
5,1,continuous,36,28,trial,6094002.0,6099168.0,5166.0,36,R,6094324,6094490,168,510.0,573.1,3371,left
5,1,continuous,36,28,trial,6094002.0,6099168.0,5166.0,36,R,6094532,6094596,66,388.0,513.6,3224,left
5,1,continuous,36,28,trial,6094002.0,6099168.0,5166.0,36,R,6094784,6095006,224,1332.3,517.0,3110,right
5,1,continuous,36,28,trial,6094002.0,6099168.0,5166.0,36,R,6095030,6095388,360,1471.8,543.9,3396,right
5,1,continuous,36,28,trial,6094002.0,6099168.0,5166.0,36,R,6095416,6095772,358,1369.3,672.8,3639,right
5,1,continuous,36,28,trial,6094002.0,6099168.0,5166.0,36,R,6095802,6096138,338,1547.9,684.8,3286,right
5,1,continuous,36,28,trial,6094002.0,6099168.0,5166.0,36,R,6096170,6096716,548,1497.7,491.7,3085,right
5,1,continuous,36,28,trial,6094002.0,6099168.0,5166.0,36,R,6096784,6097094,312,498.2,589.1,3109,left
5,1,continuous,36,28,trial,6094002.0,6099168.0,5166.0,36,R,6097150,6097226,78,335.7,553.0,3087,left
5,1,continuous,36,28,trial,6094002.0,6099168.0,5166.0,36,R,6097234,6097422,190,331.6,556.7,2977,left
5,1,continuous,36,28,trial,6094002.0,6099168.0,5166.0,36,R,6097452,6098040,590,543.4,581.6,2938,left
5,1,continuous,36,28,trial,6094002.0,6099168.0,5166.0,36,R,6098086,6098108,24,384.0,542.0,3005,left
5,1,continuous,36,28,trial,6094002.0,6099168.0,5166.0,36,R,6098570,6098594,26,544.8,910.4,2991,NA
5,1,continuous,36,28,trial,6094002.0,6099168.0,5166.0,36,R,6098704,6098730,28,561.9,916.6,2988,NA
5,1,continuous,36,28,trial,6094002.0,6099168.0,5166.0,36,R,6099170,6099240,72,537.3,911.4,2780,NA
5,1,continuous,37,49,fixationCross,6100235.0,6109468.0,9233.0,37,R,6099858,6099914,58,762.9,507.4,3756,NA
5,1,continuous,37,49,fixationCross,6100235.0,6109468.0,9233.0,37,R,6099942,6100084,144,950.9,588.7,3897,NA
5,1,continuous,37,49,fixationCross,6100235.0,6109468.0,9233.0,37,R,6100106,6100154,50,956.6,599.0,3866,NA
5,1,continuous,37,49,trial,6100235.0,6109468.0,9233.0,37,R,6100250,6100412,164,732.5,581.3,3874,left
5,1,continuous,37,49,trial,6100235.0,6109468.0,9233.0,37,R,6100452,6100710,260,396.2,522.4,3645,left
5,1,continuous,37,49,trial,6100235.0,6109468.0,9233.0,37,R,6100724,6100770,48,371.2,491.6,3351,left
5,1,continuous,37,49,trial,6100235.0,6109468.0,9233.0,37,R,6100972,6101546,576,1483.4,555.6,3346,right
5,1,continuous,37,49,trial,6100235.0,6109468.0,9233.0,37,R,6101574,6101728,156,1566.5,482.2,3379,right
5,1,continuous,37,49,trial,6100235.0,6109468.0,9233.0,37,R,6101756,6102324,570,1545.5,630.0,3428,right
5,1,continuous,37,49,trial,6100235.0,6109468.0,9233.0,37,R,6102694,6103028,336,379.2,515.9,3380,left
5,1,continuous,37,49,trial,6100235.0,6109468.0,9233.0,37,R,6103056,6103418,364,423.2,661.2,3255,left
5,1,continuous,37,49,trial,6100235.0,6109468.0,9233.0,37,R,6103444,6103558,116,379.6,569.3,3257,left
5,1,continuous,37,49,trial,6100235.0,6109468.0,9233.0,37,R,6103640,6103720,82,377.5,563.0,3233,left
5,1,continuous,37,49,trial,6100235.0,6109468.0,9233.0,37,R,6103786,6103844,60,424.8,589.6,3150,left
5,1,continuous,37,49,trial,6100235.0,6109468.0,9233.0,37,R,6104484,6104614,132,373.4,515.3,3409,left
5,1,continuous,37,49,trial,6100235.0,6109468.0,9233.0,37,R,6104632,6104734,104,369.2,510.2,3384,left
5,1,continuous,37,49,trial,6100235.0,6109468.0,9233.0,37,R,6104758,6104868,112,370.8,501.9,3329,left
5,1,continuous,37,49,trial,6100235.0,6109468.0,9233.0,37,R,6104884,6104934,52,370.0,494.3,3317,left
5,1,continuous,37,49,trial,6100235.0,6109468.0,9233.0,37,R,6105004,6105100,98,370.1,504.8,3301,left
5,1,continuous,37,49,trial,6100235.0,6109468.0,9233.0,37,R,6105114,6105138,26,375.7,505.6,3290,left
5,1,continuous,37,49,trial,6100235.0,6109468.0,9233.0,37,R,6105184,6105286,104,379.7,507.8,3220,left
5,1,continuous,37,49,trial,6100235.0,6109468.0,9233.0,37,R,6105618,6105668,52,383.4,511.6,3226,left
5,1,continuous,37,49,trial,6100235.0,6109468.0,9233.0,37,R,6105708,6105742,36,381.3,596.3,3287,left
5,1,continuous,37,49,trial,6100235.0,6109468.0,9233.0,37,R,6105990,6106482,494,1455.1,530.5,3360,right
5,1,continuous,37,49,trial,6100235.0,6109468.0,9233.0,37,R,6106504,6106742,240,1482.6,559.8,3334,right
5,1,continuous,37,49,trial,6100235.0,6109468.0,9233.0,37,R,6106810,6107216,408,500.3,623.5,3220,left
5,1,continuous,37,49,trial,6100235.0,6109468.0,9233.0,37,R,6108292,6108404,114,1356.6,629.3,3448,right
5,1,continuous,38,65,fixationCross,6110436.0,6116819.0,6383.0,38,R,6109882,6110222,342,863.3,564.6,4109,NA
5,1,continuous,38,65,trial,6110436.0,6116819.0,6383.0,38,R,6110472,6110518,48,962.8,592.4,3960,NA
5,1,continuous,38,65,trial,6110436.0,6116819.0,6383.0,38,R,6110676,6110744,70,463.5,599.8,3950,left
5,1,continuous,38,65,trial,6110436.0,6116819.0,6383.0,38,R,6110762,6111364,604,462.7,607.2,3348,left
5,1,continuous,38,65,trial,6110436.0,6116819.0,6383.0,38,R,6111388,6111754,368,463.7,601.6,3238,left
5,1,continuous,38,65,trial,6110436.0,6116819.0,6383.0,38,R,6111768,6111950,184,404.3,578.8,3295,left
5,1,continuous,38,65,trial,6110436.0,6116819.0,6383.0,38,R,6111974,6112074,102,400.5,580.7,3209,left
5,1,continuous,38,65,trial,6110436.0,6116819.0,6383.0,38,R,6112122,6112234,114,445.3,557.5,3095,left
5,1,continuous,38,65,trial,6110436.0,6116819.0,6383.0,38,R,6112250,6112604,356,444.8,553.6,3004,left
5,1,continuous,38,65,trial,6110436.0,6116819.0,6383.0,38,R,6112634,6112876,244,483.7,628.4,3003,left
5,1,continuous,38,65,trial,6110436.0,6116819.0,6383.0,38,R,6113088,6113366,280,1394.6,614.2,3174,right
5,1,continuous,38,65,trial,6110436.0,6116819.0,6383.0,38,R,6113378,6113602,226,1384.5,569.7,3354,right
5,1,continuous,38,65,trial,6110436.0,6116819.0,6383.0,38,R,6113626,6113958,334,1508.0,594.2,3241,right
5,1,continuous,38,65,trial,6110436.0,6116819.0,6383.0,38,R,6113978,6114340,364,1606.2,645.8,3338,right
5,1,continuous,38,65,trial,6110436.0,6116819.0,6383.0,38,R,6114368,6114964,598,1386.3,550.3,3415,right
5,1,continuous,38,65,trial,6110436.0,6116819.0,6383.0,38,R,6114982,6115400,420,1462.4,553.7,3355,right
5,1,continuous,38,65,trial,6110436.0,6116819.0,6383.0,38,R,6115414,6115960,548,1456.1,531.2,3309,right
5,1,continuous,38,65,trial,6110436.0,6116819.0,6383.0,38,R,6115998,6116762,766,1325.6,637.6,3417,right
5,1,continuous,38,65,trial,6110436.0,6116819.0,6383.0,38,R,6116786,6116958,174,1474.9,632.4,3422,right
5,1,continuous,39,47,fixationCross,6117952.0,6127252.0,9300.0,39,R,6117262,6117306,46,987.3,616.0,3168,NA
5,1,continuous,39,47,fixationCross,6117952.0,6127252.0,9300.0,39,R,6117582,6117708,128,808.4,567.2,4022,NA
5,1,continuous,39,47,trial,6117952.0,6127252.0,9300.0,39,R,6117732,6117982,252,949.4,580.3,3995,NA
5,1,continuous,39,47,trial,6117952.0,6127252.0,9300.0,39,R,6118018,6118056,40,960.9,608.3,3702,NA
5,1,continuous,39,47,trial,6117952.0,6127252.0,9300.0,39,R,6118170,6118374,206,437.2,591.6,3498,left
5,1,continuous,39,47,trial,6117952.0,6127252.0,9300.0,39,R,6118640,6118938,300,1429.2,534.2,3322,right
5,1,continuous,39,47,trial,6117952.0,6127252.0,9300.0,39,R,6118956,6119340,386,1406.2,479.7,3218,right
5,1,continuous,39,47,trial,6117952.0,6127252.0,9300.0,39,R,6119364,6119750,388,1499.6,539.3,3079,right
5,1,continuous,39,47,trial,6117952.0,6127252.0,9300.0,39,R,6119770,6120066,298,1533.8,477.7,2940,right
5,1,continuous,39,47,trial,6117952.0,6127252.0,9300.0,39,R,6120088,6120954,868,1447.7,521.0,2987,right
5,1,continuous,39,47,trial,6117952.0,6127252.0,9300.0,39,R,6120966,6121984,1020,1466.6,539.2,3278,right
5,1,continuous,39,47,trial,6117952.0,6127252.0,9300.0,39,R,6122064,6122254,192,397.4,549.1,3356,left
5,1,continuous,39,47,trial,6117952.0,6127252.0,9300.0,39,R,6122586,6122614,30,343.8,595.0,3369,left
5,1,continuous,39,47,trial,6117952.0,6127252.0,9300.0,39,R,6122834,6122854,22,389.0,584.9,3412,left
5,1,continuous,39,47,trial,6117952.0,6127252.0,9300.0,39,R,6122876,6122910,36,388.6,580.9,3400,left
5,1,continuous,39,47,trial,6117952.0,6127252.0,9300.0,39,R,6122934,6122962,30,384.6,583.8,3374,left
5,1,continuous,39,47,trial,6117952.0,6127252.0,9300.0,39,R,6122990,6123010,22,384.1,577.3,3391,left
5,1,continuous,39,47,trial,6117952.0,6127252.0,9300.0,39,R,6123054,6123118,66,389.0,576.2,3408,left
5,1,continuous,39,47,trial,6117952.0,6127252.0,9300.0,39,R,6123154,6123300,148,471.8,562.4,3466,left
5,1,continuous,39,47,trial,6117952.0,6127252.0,9300.0,39,R,6123626,6123922,298,1386.5,574.1,3430,right
5,1,continuous,39,47,trial,6117952.0,6127252.0,9300.0,39,R,6123956,6123996,42,1217.6,537.6,3502,right
5,1,continuous,39,47,trial,6117952.0,6127252.0,9300.0,39,R,6124006,6124048,44,1220.4,539.0,3461,right
5,1,continuous,39,47,trial,6117952.0,6127252.0,9300.0,39,R,6124104,6124166,64,1220.3,541.5,3429,right
5,1,continuous,39,47,trial,6117952.0,6127252.0,9300.0,39,R,6124194,6124236,44,1217.3,541.1,3439,right
5,1,continuous,39,47,trial,6117952.0,6127252.0,9300.0,39,R,6124532,6124944,414,1171.1,534.4,3677,NA
5,1,continuous,39,47,trial,6117952.0,6127252.0,9300.0,39,R,6125790,6126068,280,1387.4,619.4,3510,right
5,1,continuous,39,47,trial,6117952.0,6127252.0,9300.0,39,R,6126148,6126308,162,431.1,594.9,3597,left
5,1,continuous,39,47,trial,6117952.0,6127252.0,9300.0,39,R,6126346,6126378,34,436.6,591.7,3563,left
5,1,continuous,40,54,fixationCross,6128352.0,6135585.0,7233.0,40,R,6127694,6127716,24,979.3,561.6,3070,NA
5,1,continuous,40,54,fixationCross,6128352.0,6135585.0,7233.0,40,R,6127826,6128044,220,810.8,532.9,4105,NA
5,1,continuous,40,54,fixationCross,6128352.0,6135585.0,7233.0,40,R,6128068,6128290,224,944.9,581.4,4258,NA
5,1,continuous,40,54,trial,6128352.0,6135585.0,7233.0,40,R,6128352,6128388,38,963.6,619.6,3995,NA
5,1,continuous,40,54,trial,6128352.0,6135585.0,7233.0,40,R,6128450,6128488,40,959.5,607.1,3996,NA
5,1,continuous,40,54,trial,6128352.0,6135585.0,7233.0,40,R,6128590,6128700,112,400.3,531.1,3899,left
5,1,continuous,40,54,trial,6128352.0,6135585.0,7233.0,40,R,6128770,6129018,250,357.8,489.4,3596,left
5,1,continuous,40,54,trial,6128352.0,6135585.0,7233.0,40,R,6129030,6129206,178,358.2,480.9,3624,left
5,1,continuous,40,54,trial,6128352.0,6135585.0,7233.0,40,R,6129268,6129556,290,1401.1,495.4,3623,right
5,1,continuous,40,54,trial,6128352.0,6135585.0,7233.0,40,R,6129576,6129936,362,1462.4,537.8,3737,right
5,1,continuous,40,54,trial,6128352.0,6135585.0,7233.0,40,R,6129964,6130292,330,1466.6,382.9,3567,right
5,1,continuous,40,54,trial,6128352.0,6135585.0,7233.0,40,R,6130324,6130550,228,1467.6,527.0,3450,right
5,1,continuous,40,54,trial,6128352.0,6135585.0,7233.0,40,R,6130624,6130838,216,378.9,529.3,3430,left
5,1,continuous,40,54,trial,6128352.0,6135585.0,7233.0,40,R,6130854,6131452,600,364.1,487.8,3411,left
5,1,continuous,40,54,trial,6128352.0,6135585.0,7233.0,40,R,6131476,6131602,128,487.2,526.5,3501,left
5,1,continuous,40,54,trial,6128352.0,6135585.0,7233.0,40,R,6132516,6133306,792,1413.8,567.7,3609,right
5,1,continuous,40,54,trial,6128352.0,6135585.0,7233.0,40,R,6133326,6133890,566,1470.5,527.6,3728,right
5,1,continuous,40,54,trial,6128352.0,6135585.0,7233.0,40,R,6133918,6134284,368,1456.0,409.3,3643,right
5,1,continuous,40,54,trial,6128352.0,6135585.0,7233.0,40,R,6134324,6134560,238,1476.4,624.5,3626,right
5,1,continuous,40,54,trial,6128352.0,6135585.0,7233.0,40,R,6134586,6134794,210,1441.8,530.4,3584,right
5,1,continuous,40,54,trial,6128352.0,6135585.0,7233.0,40,R,6134860,6134934,76,1067.8,937.5,3482,likertHorizontal
5,1,continuous,40,54,trial,6128352.0,6135585.0,7233.0,40,R,6135112,6135212,102,1095.7,992.9,3512,likertHorizontal
5,1,continuous,40,54,trial,6128352.0,6135585.0,7233.0,40,R,6135426,6135478,54,1078.8,968.5,3575,likertHorizontal
5,1,continuous,41,60,fixationCross,6136636.0,6142635.0,5999.0,41,R,6136238,6136374,138,852.4,529.0,4005,NA
5,1,continuous,41,60,fixationCross,6136636.0,6142635.0,5999.0,41,R,6136422,6136486,66,1008.0,592.9,3914,NA
5,1,continuous,41,60,fixationCross,6136636.0,6142635.0,5999.0,41,R,6136580,6136606,28,994.1,604.0,3831,NA
5,1,continuous,41,60,trial,6136636.0,6142635.0,5999.0,41,R,6136678,6136764,88,984.9,619.2,3671,NA
5,1,continuous,41,60,trial,6136636.0,6142635.0,5999.0,41,R,6136848,6136878,32,478.0,562.8,3671,left
5,1,continuous,41,60,trial,6136636.0,6142635.0,5999.0,41,R,6136954,6137062,110,476.5,578.3,3360,left
5,1,continuous,41,60,trial,6136636.0,6142635.0,5999.0,41,R,6137628,6137836,210,1325.9,470.3,3223,right
5,1,continuous,41,60,trial,6136636.0,6142635.0,5999.0,41,R,6137860,6138206,348,1467.2,521.2,3476,right
5,1,continuous,41,60,trial,6136636.0,6142635.0,5999.0,41,R,6138228,6138934,708,1390.6,583.0,3553,right
5,1,continuous,41,60,trial,6136636.0,6142635.0,5999.0,41,R,6138948,6139284,338,1388.7,553.2,3465,right
5,1,continuous,41,60,trial,6136636.0,6142635.0,5999.0,41,R,6139342,6139582,242,533.6,607.5,3487,left
5,1,continuous,41,60,trial,6136636.0,6142635.0,5999.0,41,R,6139616,6139660,46,313.3,543.9,3403,left
5,1,continuous,41,60,trial,6136636.0,6142635.0,5999.0,41,R,6139934,6140122,190,614.3,583.9,3013,left
5,1,continuous,41,60,trial,6136636.0,6142635.0,5999.0,41,R,6140174,6140564,392,1377.9,524.6,3278,right
5,1,continuous,41,60,trial,6136636.0,6142635.0,5999.0,41,R,6140584,6141242,660,1465.1,589.4,3562,right
5,1,continuous,41,60,trial,6136636.0,6142635.0,5999.0,41,R,6141260,6141672,414,1387.1,552.6,3424,right
5,1,continuous,41,60,trial,6136636.0,6142635.0,5999.0,41,R,6141882,6141974,94,780.2,647.2,3492,NA
5,1,continuous,41,60,trial,6136636.0,6142635.0,5999.0,41,R,6142040,6142066,28,1103.5,986.4,3290,likertHorizontal
5,1,continuous,41,60,trial,6136636.0,6142635.0,5999.0,41,R,6142164,6142228,66,1057.2,919.8,3522,likertHorizontal
5,1,continuous,41,60,trial,6136636.0,6142635.0,5999.0,41,R,6142342,6142424,84,1025.3,914.2,3451,likertHorizontal
5,1,continuous,42,92,fixationCross,6143536.0,6147185.0,3649.0,42,R,6143046,6143074,30,1107.1,651.7,3738,NA
5,1,continuous,42,92,fixationCross,6143536.0,6147185.0,3649.0,42,R,6143310,6143520,212,864.5,540.8,4070,NA
5,1,continuous,42,92,trial,6143536.0,6147185.0,3649.0,42,R,6143586,6143660,76,964.9,591.0,3944,NA
5,1,continuous,42,92,trial,6143536.0,6147185.0,3649.0,42,R,6143750,6144134,386,447.3,570.3,3570,left
5,1,continuous,42,92,trial,6143536.0,6147185.0,3649.0,42,R,6144164,6144460,298,395.0,666.5,3208,left
5,1,continuous,42,92,trial,6143536.0,6147185.0,3649.0,42,R,6144478,6144794,318,465.9,645.4,3222,left
5,1,continuous,42,92,trial,6143536.0,6147185.0,3649.0,42,R,6144866,6145048,184,1430.1,557.3,3315,right
5,1,continuous,42,92,trial,6143536.0,6147185.0,3649.0,42,R,6145072,6145270,200,1489.5,520.6,3421,right
5,1,continuous,42,92,trial,6143536.0,6147185.0,3649.0,42,R,6145296,6145874,580,1341.6,586.6,3629,right
5,1,continuous,42,92,trial,6143536.0,6147185.0,3649.0,42,R,6145902,6146326,426,1500.4,508.0,3607,right
5,1,continuous,42,92,trial,6143536.0,6147185.0,3649.0,42,R,6146348,6147156,810,1376.5,535.1,3838,right
5,1,continuous,42,92,trial,6143536.0,6147185.0,3649.0,42,R,6147174,6147344,172,1400.2,578.2,3727,right
5,1,continuous,43,61,fixationCross,6148253.0,6154219.0,5966.0,43,R,6147682,6147920,240,1136.4,473.5,3932,NA
5,1,continuous,43,61,fixationCross,6148253.0,6154219.0,5966.0,43,R,6147960,6148250,292,961.2,564.1,4006,NA
5,1,continuous,43,61,trial,6148253.0,6154219.0,5966.0,43,R,6148262,6148414,154,937.9,593.4,3700,NA
5,1,continuous,43,61,trial,6148253.0,6154219.0,5966.0,43,R,6148462,6148762,302,418.6,558.8,3499,left
5,1,continuous,43,61,trial,6148253.0,6154219.0,5966.0,43,R,6148786,6148942,158,536.5,547.7,3092,left
5,1,continuous,43,61,trial,6148253.0,6154219.0,5966.0,43,R,6148998,6149346,350,1370.4,459.5,3068,right
5,1,continuous,43,61,trial,6148253.0,6154219.0,5966.0,43,R,6149366,6149610,246,1438.0,506.8,3380,right
5,1,continuous,43,61,trial,6148253.0,6154219.0,5966.0,43,R,6149638,6149878,242,1556.3,619.4,3578,right
5,1,continuous,43,61,trial,6148253.0,6154219.0,5966.0,43,R,6149908,6150746,840,1415.5,469.7,3476,right
5,1,continuous,43,61,trial,6148253.0,6154219.0,5966.0,43,R,6150822,6150968,148,497.3,570.1,3570,left
5,1,continuous,43,61,trial,6148253.0,6154219.0,5966.0,43,R,6150986,6151042,58,492.3,574.6,3549,left
5,1,continuous,43,61,trial,6148253.0,6154219.0,5966.0,43,R,6151056,6151254,200,487.2,580.1,3342,left
5,1,continuous,43,61,trial,6148253.0,6154219.0,5966.0,43,R,6151582,6151710,130,1042.8,831.8,3141,likertHorizontal
5,1,continuous,43,61,trial,6148253.0,6154219.0,5966.0,43,R,6151776,6152094,320,1403.6,496.0,3626,right
5,1,continuous,43,61,trial,6148253.0,6154219.0,5966.0,43,R,6152110,6152310,202,1425.2,470.7,3569,right
5,1,continuous,43,61,trial,6148253.0,6154219.0,5966.0,43,R,6152350,6152600,252,1567.5,715.4,3361,right
5,1,continuous,43,61,trial,6148253.0,6154219.0,5966.0,43,R,6152646,6153474,830,1427.6,437.1,3366,right
5,1,continuous,43,61,trial,6148253.0,6154219.0,5966.0,43,R,6153494,6153900,408,1385.7,514.4,3400,right
5,1,continuous,43,61,trial,6148253.0,6154219.0,5966.0,43,R,6153960,6154392,434,591.6,585.4,3227,left
5,1,continuous,44,90,fixationCross,6155286.0,6164136.0,8850.0,44,R,6154774,6154846,74,926.6,572.1,3271,NA
5,1,continuous,44,90,fixationCross,6155286.0,6164136.0,8850.0,44,R,6154886,6155028,144,765.5,539.1,3618,NA
5,1,continuous,44,90,trial,6155286.0,6164136.0,8850.0,44,R,6155054,6155418,366,939.5,550.9,3704,NA
5,1,continuous,44,90,trial,6155286.0,6164136.0,8850.0,44,R,6155466,6155700,236,464.2,509.9,3527,left
5,1,continuous,44,90,trial,6155286.0,6164136.0,8850.0,44,R,6155722,6155772,52,466.8,527.8,3174,left
5,1,continuous,44,90,trial,6155286.0,6164136.0,8850.0,44,R,6155868,6155972,106,283.5,661.0,2922,left
5,1,continuous,44,90,trial,6155286.0,6164136.0,8850.0,44,R,6156650,6156824,176,478.9,571.7,3306,left
5,1,continuous,44,90,trial,6155286.0,6164136.0,8850.0,44,R,6156836,6156882,48,483.7,578.6,3237,left
5,1,continuous,44,90,trial,6155286.0,6164136.0,8850.0,44,R,6156906,6156968,64,485.6,588.7,3204,left
5,1,continuous,44,90,trial,6155286.0,6164136.0,8850.0,44,R,6157214,6157634,422,524.1,544.2,3222,left
5,1,continuous,44,90,trial,6155286.0,6164136.0,8850.0,44,R,6157650,6158092,444,452.7,539.3,3314,left
5,1,continuous,44,90,trial,6155286.0,6164136.0,8850.0,44,R,6158106,6158530,426,491.6,565.3,3334,left
5,1,continuous,44,90,trial,6155286.0,6164136.0,8850.0,44,R,6159028,6159280,254,464.9,579.2,3712,left
5,1,continuous,44,90,trial,6155286.0,6164136.0,8850.0,44,R,6159388,6159720,334,1358.8,521.7,3549,right
5,1,continuous,44,90,trial,6155286.0,6164136.0,8850.0,44,R,6159742,6160342,602,1443.8,501.7,3704,right
5,1,continuous,44,90,trial,6155286.0,6164136.0,8850.0,44,R,6160412,6160720,310,486.4,576.6,3670,left
5,1,continuous,44,90,trial,6155286.0,6164136.0,8850.0,44,R,6160748,6161038,292,311.6,668.3,3510,left
5,1,continuous,44,90,trial,6155286.0,6164136.0,8850.0,44,R,6161412,6161942,532,1359.8,523.0,3511,right
5,1,continuous,44,90,trial,6155286.0,6164136.0,8850.0,44,R,6161970,6162202,234,1478.2,488.3,3500,right
5,1,continuous,44,90,trial,6155286.0,6164136.0,8850.0,44,R,6162260,6162418,160,652.5,528.0,3445,left
5,1,continuous,44,90,trial,6155286.0,6164136.0,8850.0,44,R,6162446,6162826,382,456.0,560.0,3394,left
5,1,continuous,44,90,trial,6155286.0,6164136.0,8850.0,44,R,6162898,6162922,26,513.8,581.1,2986,left
5,1,continuous,44,90,trial,6155286.0,6164136.0,8850.0,44,R,6163058,6163240,184,1437.4,495.0,2971,right
5,1,continuous,44,90,trial,6155286.0,6164136.0,8850.0,44,R,6163290,6163844,556,1262.1,815.2,3433,NA
5,1,continuous,44,90,trial,6155286.0,6164136.0,8850.0,44,R,6163872,6164090,220,1361.5,876.7,3661,NA
5,1,continuous,45,50,fixationCross,6165252.0,6167520.0,2268.0,45,R,6164572,6164596,26,1239.8,508.2,3795,right
5,1,continuous,45,50,fixationCross,6165252.0,6167520.0,2268.0,45,R,6164608,6164876,270,1242.6,503.3,3958,right
5,1,continuous,45,50,trial,6165252.0,6167520.0,2268.0,45,R,6165096,6165326,232,961.6,578.3,4022,NA
5,1,continuous,45,50,trial,6165252.0,6167520.0,2268.0,45,R,6165414,6165458,46,957.6,591.0,3847,NA
5,1,continuous,45,50,trial,6165252.0,6167520.0,2268.0,45,R,6165510,6165818,310,418.9,555.1,3550,left
5,1,continuous,45,50,trial,6165252.0,6167520.0,2268.0,45,R,6166252,6166288,38,505.5,621.4,3484,left
5,1,continuous,45,50,trial,6165252.0,6167520.0,2268.0,45,R,6166346,6166384,40,512.3,620.0,3510,left
5,1,continuous,45,50,trial,6165252.0,6167520.0,2268.0,45,R,6166906,6167044,140,1377.0,586.7,3536,right
5,1,continuous,45,50,trial,6165252.0,6167520.0,2268.0,45,R,6167064,6167694,632,1463.1,577.5,3325,right
5,1,continuous,46,68,fixationCross,6168402.0,6172886.0,4484.0,46,R,6167950,6167950,2,1323.7,702.5,3077,right
5,1,continuous,46,68,fixationCross,6168402.0,6172886.0,4484.0,46,R,6168044,6168330,288,1007.2,558.1,3671,NA
5,1,continuous,46,68,trial,6168402.0,6172886.0,4484.0,46,R,6168346,6168496,152,956.7,589.5,3796,NA
5,1,continuous,46,68,trial,6168402.0,6172886.0,4484.0,46,R,6168602,6168890,290,430.3,577.8,3648,left
5,1,continuous,46,68,trial,6168402.0,6172886.0,4484.0,46,R,6168918,6169090,174,470.0,587.9,3266,left
5,1,continuous,46,68,trial,6168402.0,6172886.0,4484.0,46,R,6169144,6169160,18,474.7,598.5,3070,left
5,1,continuous,46,68,trial,6168402.0,6172886.0,4484.0,46,R,6169220,6169480,262,1418.0,544.7,2996,right
5,1,continuous,46,68,trial,6168402.0,6172886.0,4484.0,46,R,6169504,6169838,336,1554.4,596.1,3299,right
5,1,continuous,46,68,trial,6168402.0,6172886.0,4484.0,46,R,6169862,6170128,268,1395.8,602.2,3650,right
5,1,continuous,46,68,trial,6168402.0,6172886.0,4484.0,46,R,6170160,6170512,354,1411.0,447.9,3575,right
5,1,continuous,46,68,trial,6168402.0,6172886.0,4484.0,46,R,6170544,6171114,572,1445.8,606.6,3736,right
5,1,continuous,46,68,trial,6168402.0,6172886.0,4484.0,46,R,6171136,6171512,378,1531.0,639.5,3607,right
5,1,continuous,46,68,trial,6168402.0,6172886.0,4484.0,46,R,6171534,6171698,166,1447.5,604.5,3540,right
5,1,continuous,46,68,trial,6168402.0,6172886.0,4484.0,46,R,6171918,6172238,322,1427.4,623.3,3415,right
5,1,continuous,46,68,trial,6168402.0,6172886.0,4484.0,46,R,6172386,6172416,32,994.1,891.1,3415,likertHorizontal
5,1,continuous,47,100,trial,6173803.0,6178203.0,4400.0,47,R,6173834,6173870,38,953.5,588.5,3872,NA
5,1,continuous,47,100,trial,6173803.0,6178203.0,4400.0,47,R,6173888,6173910,24,953.2,605.5,3781,NA
5,1,continuous,47,100,trial,6173803.0,6178203.0,4400.0,47,R,6174004,6174234,232,418.9,557.4,3580,left
5,1,continuous,47,100,trial,6173803.0,6178203.0,4400.0,47,R,6174428,6174452,26,491.2,588.4,2917,left
5,1,continuous,47,100,trial,6173803.0,6178203.0,4400.0,47,R,6174510,6174808,300,1401.4,580.3,3080,right
5,1,continuous,47,100,trial,6173803.0,6178203.0,4400.0,47,R,6174834,6175160,328,1460.9,489.2,3374,right
5,1,continuous,47,100,trial,6173803.0,6178203.0,4400.0,47,R,6175184,6175638,456,1289.0,497.8,3548,right
5,1,continuous,47,100,trial,6173803.0,6178203.0,4400.0,47,R,6175702,6176032,332,463.9,598.0,3604,left
5,1,continuous,47,100,trial,6173803.0,6178203.0,4400.0,47,R,6176080,6176254,176,433.9,532.2,3318,left
5,1,continuous,47,100,trial,6173803.0,6178203.0,4400.0,47,R,6176316,6176372,58,437.7,548.1,3081,left
5,1,continuous,47,100,trial,6173803.0,6178203.0,4400.0,47,R,6176434,6176454,22,441.1,555.7,2996,left
5,1,continuous,47,100,trial,6173803.0,6178203.0,4400.0,47,R,6176604,6176640,38,444.8,571.7,2858,left
5,1,continuous,47,100,trial,6173803.0,6178203.0,4400.0,47,R,6177116,6177388,274,1357.9,558.1,3132,right
5,1,continuous,47,100,trial,6173803.0,6178203.0,4400.0,47,R,6177416,6178090,676,1500.3,591.3,3502,right
5,1,continuous,47,100,trial,6173803.0,6178203.0,4400.0,47,R,6178344,6178410,68,1394.7,542.2,3812,right
5,1,continuous,48,68,fixationCross,6179353.0,6186419.0,7066.0,48,R,6178806,6178852,48,1231.7,513.1,4110,right
5,1,continuous,48,68,fixationCross,6179353.0,6186419.0,7066.0,48,R,6178994,6179046,54,1123.6,618.9,4375,NA
5,1,continuous,48,68,fixationCross,6179353.0,6186419.0,7066.0,48,R,6179068,6179270,204,966.2,572.6,4366,NA
5,1,continuous,48,68,trial,6179353.0,6186419.0,7066.0,48,R,6179314,6179366,54,980.9,590.9,4189,NA
5,1,continuous,48,68,trial,6179353.0,6186419.0,7066.0,48,R,6179440,6179468,30,977.7,596.1,4075,NA
5,1,continuous,48,68,trial,6179353.0,6186419.0,7066.0,48,R,6179738,6179932,196,479.9,661.3,3575,left
5,1,continuous,48,68,trial,6179353.0,6186419.0,7066.0,48,R,6179952,6180246,296,554.5,642.2,3345,left
5,1,continuous,48,68,trial,6179353.0,6186419.0,7066.0,48,R,6180316,6180620,306,1460.8,575.1,3392,right
5,1,continuous,48,68,trial,6179353.0,6186419.0,7066.0,48,R,6180650,6181158,510,1636.9,590.8,3588,right
5,1,continuous,48,68,trial,6179353.0,6186419.0,7066.0,48,R,6181200,6181630,432,1319.9,584.9,3493,right
5,1,continuous,48,68,trial,6179353.0,6186419.0,7066.0,48,R,6182420,6182444,26,612.0,624.7,3457,left
5,1,continuous,48,68,trial,6179353.0,6186419.0,7066.0,48,R,6182596,6182668,74,609.3,616.9,3215,left
