participantNo,block,task,blockTrial,response,trialStage,trialStartTime,trialFinishTime,rt,trial,eye,fixStart,fixEnd,fixLength,fixPosX,fixPosY,dilation,aoi
37,1,continuous,1,28,fixationCross,5279518.0,5283134.0,3616.0,1,R,5279002,5279402,402,921.6,620.9,4901,NA
37,1,continuous,1,28,trial,5279518.0,5283134.0,3616.0,1,R,5279418,5279712,296,959.2,574.5,5140,NA
37,1,continuous,1,28,trial,5279518.0,5283134.0,3616.0,1,R,5279752,5279960,210,624.6,573.5,5047,left
37,1,continuous,1,28,trial,5279518.0,5283134.0,3616.0,1,R,5280000,5280200,202,354.0,430.9,4345,left
37,1,continuous,1,28,trial,5279518.0,5283134.0,3616.0,1,R,5280276,5280566,292,1409.8,429.0,3874,right
37,1,continuous,1,28,trial,5279518.0,5283134.0,3616.0,1,R,5280588,5280766,180,1444.0,518.9,3784,right
37,1,continuous,1,28,trial,5279518.0,5283134.0,3616.0,1,R,5280844,5281026,184,408.4,436.7,4016,left
37,1,continuous,1,28,trial,5279518.0,5283134.0,3616.0,1,R,5281046,5281374,330,332.7,437.0,3980,left
37,1,continuous,1,28,trial,5279518.0,5283134.0,3616.0,1,R,5281408,5281714,308,612.1,496.9,3875,left
37,1,continuous,1,28,trial,5279518.0,5283134.0,3616.0,1,R,5281762,5282064,304,866.6,930.5,3864,likertHorizontal
37,1,continuous,1,28,trial,5279518.0,5283134.0,3616.0,1,R,5282100,5282392,294,553.9,954.0,4054,NA
37,1,continuous,1,28,trial,5279518.0,5283134.0,3616.0,1,R,5282444,5282612,170,520.6,494.9,4174,left
37,1,continuous,1,28,trial,5279518.0,5283134.0,3616.0,1,R,5282636,5283062,428,627.5,518.9,4070,left
37,1,continuous,1,28,trial,5279518.0,5283134.0,3616.0,1,R,5283116,5283382,268,546.7,936.4,4047,NA
37,1,continuous,1,28,postResponse,5279518.0,5283134.0,3616.0,1,R,5283430,5283502,74,721.8,563.5,4162,left
37,1,continuous,2,4,fixationCross,5284217.0,5288351.0,4134.0,2,R,5283602,5283928,328,717.2,583.1,4341,left
37,1,continuous,2,4,fixationCross,5284217.0,5288351.0,4134.0,2,R,5283958,5284180,224,920.5,534.1,4634,NA
37,1,continuous,2,4,trial,5284217.0,5288351.0,4134.0,2,R,5284192,5284430,240,956.5,537.6,4726,NA
37,1,continuous,2,4,trial,5284217.0,5288351.0,4134.0,2,R,5284486,5284730,246,550.6,510.3,4421,left
37,1,continuous,2,4,trial,5284217.0,5288351.0,4134.0,2,R,5284752,5285052,302,438.6,487.6,3830,left
37,1,continuous,2,4,trial,5284217.0,5288351.0,4134.0,2,R,5285130,5285564,436,1427.0,443.1,3521,right
37,1,continuous,2,4,trial,5284217.0,5288351.0,4134.0,2,R,5285644,5285914,272,410.1,465.6,3674,left
37,1,continuous,2,4,trial,5284217.0,5288351.0,4134.0,2,R,5285934,5286482,550,485.3,441.5,3600,left
37,1,continuous,2,4,trial,5284217.0,5288351.0,4134.0,2,R,5286500,5286856,358,478.5,493.8,3724,left
37,1,continuous,2,4,trial,5284217.0,5288351.0,4134.0,2,R,5286936,5287160,226,1511.7,488.6,3679,right
37,1,continuous,2,4,trial,5284217.0,5288351.0,4134.0,2,R,5287228,5287404,178,704.4,949.2,3696,NA
37,1,continuous,2,4,trial,5284217.0,5288351.0,4134.0,2,R,5287432,5287926,496,511.0,962.0,3815,NA
37,1,continuous,2,4,trial,5284217.0,5288351.0,4134.0,2,R,5287938,5288558,622,481.2,945.6,4055,NA
37,1,continuous,2,4,postResponse,5284217.0,5288351.0,4134.0,2,R,5288608,5288702,96,664.3,528.3,4172,left
37,1,continuous,3,1,fixationCross,5289468.0,5293418.0,3950.0,3,R,5288802,5289146,346,658.2,543.0,4234,left
37,1,continuous,3,1,trial,5289468.0,5293418.0,3950.0,3,R,5289174,5289542,370,889.0,531.8,4455,NA
37,1,continuous,3,1,trial,5289468.0,5293418.0,3950.0,3,R,5289560,5289684,126,956.2,528.4,4553,NA
37,1,continuous,3,1,trial,5289468.0,5293418.0,3950.0,3,R,5289730,5289960,232,524.6,448.5,4358,left
37,1,continuous,3,1,trial,5289468.0,5293418.0,3950.0,3,R,5290030,5290478,450,1512.3,458.8,3725,right
37,1,continuous,3,1,trial,5289468.0,5293418.0,3950.0,3,R,5290552,5290720,170,471.9,437.8,3924,left
37,1,continuous,3,1,trial,5289468.0,5293418.0,3950.0,3,R,5290744,5290908,166,558.5,386.5,3878,left
37,1,continuous,3,1,trial,5289468.0,5293418.0,3950.0,3,R,5290916,5291068,154,531.6,392.1,3843,left
37,1,continuous,3,1,trial,5289468.0,5293418.0,3950.0,3,R,5291144,5291426,284,1537.4,488.7,3754,right
37,1,continuous,3,1,trial,5289468.0,5293418.0,3950.0,3,R,5291552,5291752,202,1511.2,421.1,3734,right
37,1,continuous,3,1,trial,5289468.0,5293418.0,3950.0,3,R,5291836,5292102,268,372.8,475.0,3912,left
37,1,continuous,3,1,trial,5289468.0,5293418.0,3950.0,3,R,5292128,5292278,152,330.3,383.2,3866,left
37,1,continuous,3,1,trial,5289468.0,5293418.0,3950.0,3,R,5292290,5292606,318,361.4,413.9,3810,left
37,1,continuous,3,1,trial,5289468.0,5293418.0,3950.0,3,R,5292658,5292854,198,519.4,987.3,3963,NA
37,1,continuous,3,1,trial,5289468.0,5293418.0,3950.0,3,R,5292872,5293388,518,486.8,944.0,4041,NA
37,1,continuous,3,1,postResponse,5289468.0,5293418.0,3950.0,3,R,5293444,5293756,314,504.8,449.8,4108,left
37,1,continuous,4,10,fixationCross,5295118.0,5300518.0,5400.0,4,R,5293856,5294168,314,502.3,464.0,4071,left
37,1,continuous,4,10,fixationCross,5295118.0,5300518.0,5400.0,4,R,5294202,5294802,602,833.3,488.8,4448,NA
37,1,continuous,4,10,fixationCross,5295118.0,5300518.0,5400.0,4,R,5294900,5295072,174,906.5,507.3,4715,NA
37,1,continuous,4,10,trial,5295118.0,5300518.0,5400.0,4,R,5295092,5295298,208,950.6,529.5,4772,NA
37,1,continuous,4,10,trial,5295118.0,5300518.0,5400.0,4,R,5295346,5295492,148,516.4,472.0,4724,left
37,1,continuous,4,10,trial,5295118.0,5300518.0,5400.0,4,R,5295516,5295860,346,373.0,377.4,3982,left
37,1,continuous,4,10,trial,5295118.0,5300518.0,5400.0,4,R,5295942,5296208,268,1562.3,488.7,3562,right
37,1,continuous,4,10,trial,5295118.0,5300518.0,5400.0,4,R,5296234,5296550,318,1471.7,569.8,3577,right
37,1,continuous,4,10,trial,5295118.0,5300518.0,5400.0,4,R,5296618,5296744,128,636.0,514.7,3701,left
37,1,continuous,4,10,trial,5295118.0,5300518.0,5400.0,4,R,5296808,5297004,198,1474.5,408.4,3594,right
37,1,continuous,4,10,trial,5295118.0,5300518.0,5400.0,4,R,5297024,5297298,276,1571.1,409.9,3526,right
37,1,continuous,4,10,trial,5295118.0,5300518.0,5400.0,4,R,5297322,5297442,122,1536.2,499.5,3571,right
37,1,continuous,4,10,trial,5295118.0,5300518.0,5400.0,4,R,5297464,5297686,224,1537.3,604.5,3705,right
37,1,continuous,4,10,trial,5295118.0,5300518.0,5400.0,4,R,5297702,5297864,164,1575.7,643.8,3794,right
37,1,continuous,4,10,trial,5295118.0,5300518.0,5400.0,4,R,5297904,5298362,460,1480.2,423.8,3736,right
37,1,continuous,4,10,trial,5295118.0,5300518.0,5400.0,4,R,5298386,5298684,300,1588.5,557.8,3746,right
37,1,continuous,4,10,trial,5295118.0,5300518.0,5400.0,4,R,5298762,5298840,80,539.1,550.5,4142,left
37,1,continuous,4,10,trial,5295118.0,5300518.0,5400.0,4,R,5298936,5299114,180,457.0,574.9,4167,left
37,1,continuous,4,10,trial,5295118.0,5300518.0,5400.0,4,R,5299136,5299322,188,353.8,593.4,4099,left
37,1,continuous,4,10,trial,5295118.0,5300518.0,5400.0,4,R,5299342,5299546,206,404.4,529.7,4078,left
37,1,continuous,4,10,trial,5295118.0,5300518.0,5400.0,4,R,5299560,5299952,394,409.3,477.4,3860,left
37,1,continuous,4,10,trial,5295118.0,5300518.0,5400.0,4,R,5300004,5300830,828,574.6,962.1,4058,NA
37,1,continuous,5,24,fixationCross,5301618.0,5306019.0,4401.0,5,R,5300976,5301304,330,1064.0,409.2,4354,NA
37,1,continuous,5,24,trial,5301618.0,5306019.0,4401.0,5,R,5301332,5301788,458,958.9,518.8,4728,NA
37,1,continuous,5,24,trial,5301618.0,5306019.0,4401.0,5,R,5301836,5302064,230,556.4,501.8,4685,left
37,1,continuous,5,24,trial,5301618.0,5306019.0,4401.0,5,R,5302134,5302508,376,1441.0,488.8,3828,right
37,1,continuous,5,24,trial,5301618.0,5306019.0,4401.0,5,R,5302584,5302776,194,452.2,481.8,3716,left
37,1,continuous,5,24,trial,5301618.0,5306019.0,4401.0,5,R,5302796,5303158,364,379.7,468.5,3675,left
37,1,continuous,5,24,trial,5301618.0,5306019.0,4401.0,5,R,5303296,5303522,228,1587.7,471.2,3513,right
37,1,continuous,5,24,trial,5301618.0,5306019.0,4401.0,5,R,5303544,5303898,356,1451.6,538.5,3641,right
37,1,continuous,5,24,trial,5301618.0,5306019.0,4401.0,5,R,5303922,5304012,92,1404.5,438.4,3590,right
37,1,continuous,5,24,trial,5301618.0,5306019.0,4401.0,5,R,5304084,5304256,174,452.8,451.1,3550,left
37,1,continuous,5,24,trial,5301618.0,5306019.0,4401.0,5,R,5304278,5304644,368,369.8,437.8,3482,left
37,1,continuous,5,24,trial,5301618.0,5306019.0,4401.0,5,R,5304730,5305058,330,1616.8,454.7,3357,right
37,1,continuous,5,24,trial,5301618.0,5306019.0,4401.0,5,R,5305086,5305266,182,1452.6,569.9,3446,right
37,1,continuous,5,24,trial,5301618.0,5306019.0,4401.0,5,R,5305316,5305410,96,970.6,838.8,3676,likertHorizontal
37,1,continuous,5,24,trial,5301618.0,5306019.0,4401.0,5,R,5305438,5305730,294,815.4,930.7,3845,likertHorizontal
37,1,continuous,5,24,trial,5301618.0,5306019.0,4401.0,5,R,5305756,5305994,240,621.2,957.6,4013,NA
37,1,continuous,5,24,postResponse,5301618.0,5306019.0,4401.0,5,R,5306014,5306356,344,701.3,959.7,4121,NA
37,1,continuous,6,78,fixationCross,5307718.0,5312668.0,4950.0,6,R,5306464,5306814,352,735.0,410.3,4213,left
37,1,continuous,6,78,fixationCross,5307718.0,5312668.0,4950.0,6,R,5306836,5307306,472,835.0,463.0,4464,NA
37,1,continuous,6,78,fixationCross,5307718.0,5312668.0,4950.0,6,R,5307450,5307582,134,890.4,513.7,4618,NA
37,1,continuous,6,78,trial,5307718.0,5312668.0,4950.0,6,R,5307600,5307906,308,946.8,534.6,4600,NA
37,1,continuous,6,78,trial,5307718.0,5312668.0,4950.0,6,R,5307960,5308222,264,565.9,486.2,4201,left
37,1,continuous,6,78,trial,5307718.0,5312668.0,4950.0,6,R,5308244,5308402,160,670.8,437.6,3586,left
37,1,continuous,6,78,trial,5307718.0,5312668.0,4950.0,6,R,5308464,5308706,244,1457.0,438.2,3318,right
37,1,continuous,6,78,trial,5307718.0,5312668.0,4950.0,6,R,5308726,5309042,318,1411.5,519.1,3418,right
37,1,continuous,6,78,trial,5307718.0,5312668.0,4950.0,6,R,5309116,5309416,302,509.1,492.4,3696,left
37,1,continuous,6,78,trial,5307718.0,5312668.0,4950.0,6,R,5309440,5309892,454,649.2,441.7,3578,left
37,1,continuous,6,78,trial,5307718.0,5312668.0,4950.0,6,R,5309920,5310530,612,620.8,603.4,3808,left
37,1,continuous,6,78,trial,5307718.0,5312668.0,4950.0,6,R,5310600,5310804,206,1540.2,469.5,3656,right
37,1,continuous,6,78,trial,5307718.0,5312668.0,4950.0,6,R,5310826,5311056,232,1421.6,518.3,3665,right
37,1,continuous,6,78,trial,5307718.0,5312668.0,4950.0,6,R,5311066,5311390,326,1428.7,555.9,3793,right
37,1,continuous,6,78,trial,5307718.0,5312668.0,4950.0,6,R,5311462,5311676,216,560.2,493.0,3906,left
37,1,continuous,6,78,trial,5307718.0,5312668.0,4950.0,6,R,5311698,5311946,250,674.1,452.7,3722,left
37,1,continuous,6,78,trial,5307718.0,5312668.0,4950.0,6,R,5312016,5312176,162,1518.0,496.0,3563,right
37,1,continuous,6,78,trial,5307718.0,5312668.0,4950.0,6,R,5312222,5312364,144,1292.8,875.2,3698,NA
37,1,continuous,6,78,trial,5307718.0,5312668.0,4950.0,6,R,5312388,5312532,146,1358.6,977.4,3856,NA
37,1,continuous,6,78,trial,5307718.0,5312668.0,4950.0,6,R,5312556,5312884,330,1250.0,982.6,4148,NA
37,1,continuous,6,78,postResponse,5307718.0,5312668.0,4950.0,6,R,5312944,5313004,62,873.1,502.5,4218,NA
37,1,continuous,7,60,fixationCross,5313552.0,5315719.0,2167.0,7,R,5313078,5313430,354,875.5,515.9,4240,NA
37,1,continuous,7,60,trial,5313552.0,5315719.0,2167.0,7,R,5313450,5313722,274,938.1,517.0,4486,NA
37,1,continuous,7,60,trial,5313552.0,5315719.0,2167.0,7,R,5313770,5313966,198,558.2,569.5,4489,left
37,1,continuous,7,60,trial,5313552.0,5315719.0,2167.0,7,R,5314034,5314320,288,1449.2,491.3,3828,right
37,1,continuous,7,60,trial,5313552.0,5315719.0,2167.0,7,R,5314394,5314902,510,502.4,523.9,3791,left
37,1,continuous,7,60,trial,5313552.0,5315719.0,2167.0,7,R,5314960,5315076,118,948.3,940.0,4000,likertHorizontal
37,1,continuous,7,60,trial,5313552.0,5315719.0,2167.0,7,R,5315100,5315690,592,1014.9,972.1,4115,likertHorizontal
37,1,continuous,7,60,postResponse,5313552.0,5315719.0,2167.0,7,R,5315708,5316054,348,1097.2,979.6,4352,likertHorizontal
37,1,continuous,8,58,fixationCross,5316768.0,5321268.0,4500.0,8,R,5316232,5316476,246,780.7,561.0,4649,NA
37,1,continuous,8,58,trial,5316768.0,5321268.0,4500.0,8,R,5316502,5316930,430,920.8,548.4,4602,NA
37,1,continuous,8,58,trial,5316768.0,5321268.0,4500.0,8,R,5316972,5317122,152,585.3,535.6,4458,left
37,1,continuous,8,58,trial,5316768.0,5321268.0,4500.0,8,R,5317144,5317356,214,493.7,492.8,4085,left
37,1,continuous,8,58,trial,5316768.0,5321268.0,4500.0,8,R,5317494,5317760,268,1242.3,405.3,3591,right
37,1,continuous,8,58,trial,5316768.0,5321268.0,4500.0,8,R,5317830,5318032,204,429.7,490.5,3785,left
37,1,continuous,8,58,trial,5316768.0,5321268.0,4500.0,8,R,5318148,5318494,348,492.1,470.8,3815,left
37,1,continuous,8,58,trial,5316768.0,5321268.0,4500.0,8,R,5318518,5318694,178,597.3,416.1,3840,left
37,1,continuous,8,58,trial,5316768.0,5321268.0,4500.0,8,R,5318762,5318940,180,1371.6,400.9,3657,right
37,1,continuous,8,58,trial,5316768.0,5321268.0,4500.0,8,R,5318962,5319138,178,1307.4,450.4,3598,right
37,1,continuous,8,58,trial,5316768.0,5321268.0,4500.0,8,R,5319160,5319412,254,1305.0,362.3,3596,right
37,1,continuous,8,58,trial,5316768.0,5321268.0,4500.0,8,R,5319460,5319696,238,1558.1,636.7,3610,right
37,1,continuous,8,58,trial,5316768.0,5321268.0,4500.0,8,R,5319718,5319918,202,1436.6,655.0,3671,right
37,1,continuous,8,58,trial,5316768.0,5321268.0,4500.0,8,R,5319932,5320280,350,1377.4,661.2,3684,right
37,1,continuous,8,58,trial,5316768.0,5321268.0,4500.0,8,R,5320294,5320578,286,1313.9,654.9,3804,right
37,1,continuous,8,58,trial,5316768.0,5321268.0,4500.0,8,R,5320624,5320754,132,1123.3,947.2,4013,likertHorizontal
37,1,continuous,8,58,trial,5316768.0,5321268.0,4500.0,8,R,5320770,5321004,236,1063.7,962.6,4119,likertHorizontal
37,1,continuous,8,58,trial,5316768.0,5321268.0,4500.0,8,R,5321068,5321258,192,490.8,471.1,4215,left
37,1,continuous,8,58,trial,5316768.0,5321268.0,4500.0,8,R,5321318,5321540,224,1041.2,950.0,4169,likertHorizontal
37,1,continuous,9,1,fixationCross,5322185.0,5325369.0,3184.0,9,R,5321702,5322152,452,930.4,575.0,4400,NA
37,1,continuous,9,1,trial,5322185.0,5325369.0,3184.0,9,R,5322172,5322350,180,954.6,524.8,4605,NA
37,1,continuous,9,1,trial,5322185.0,5325369.0,3184.0,9,R,5322398,5322604,208,517.6,496.7,4469,left
37,1,continuous,9,1,trial,5322185.0,5325369.0,3184.0,9,R,5322630,5322810,182,375.1,484.3,3919,left
37,1,continuous,9,1,trial,5322185.0,5325369.0,3184.0,9,R,5322828,5323068,242,414.1,486.6,3621,left
37,1,continuous,9,1,trial,5322185.0,5325369.0,3184.0,9,R,5323136,5323380,246,1326.3,494.5,3544,right
37,1,continuous,9,1,trial,5322185.0,5325369.0,3184.0,9,R,5323400,5323512,114,1382.0,464.7,3581,right
37,1,continuous,9,1,trial,5322185.0,5325369.0,3184.0,9,R,5323578,5323782,206,531.3,487.2,3809,left
37,1,continuous,9,1,trial,5322185.0,5325369.0,3184.0,9,R,5323800,5324238,440,472.9,471.7,3845,left
37,1,continuous,9,1,trial,5322185.0,5325369.0,3184.0,9,R,5324258,5324718,462,381.2,502.1,3833,left
37,1,continuous,9,1,trial,5322185.0,5325369.0,3184.0,9,R,5324730,5324938,210,416.9,494.6,3895,left
37,1,continuous,9,1,trial,5322185.0,5325369.0,3184.0,9,R,5324990,5325126,138,509.1,909.5,3944,NA
37,1,continuous,9,1,trial,5322185.0,5325369.0,3184.0,9,R,5325142,5325334,194,474.8,940.6,4041,NA
37,1,continuous,9,1,postResponse,5322185.0,5325369.0,3184.0,9,R,5325418,5325698,282,1403.5,574.9,4092,right
37,1,continuous,10,22,fixationCross,5327451.0,5330252.0,2801.0,10,R,5325798,5326136,340,591.7,487.2,4293,left
37,1,continuous,10,22,fixationCross,5327451.0,5330252.0,2801.0,10,R,5326166,5327012,848,753.1,504.7,4666,NA
37,1,continuous,10,22,trial,5327451.0,5330252.0,2801.0,10,R,5327154,5327492,340,901.6,557.8,4841,NA
37,1,continuous,10,22,trial,5327451.0,5330252.0,2801.0,10,R,5327510,5327626,118,956.0,551.1,4896,NA
37,1,continuous,10,22,trial,5327451.0,5330252.0,2801.0,10,R,5327670,5327892,224,536.4,532.1,4557,left
37,1,continuous,10,22,trial,5327451.0,5330252.0,2801.0,10,R,5327904,5327982,80,490.2,507.8,3966,left
37,1,continuous,10,22,trial,5327451.0,5330252.0,2801.0,10,R,5328050,5328190,142,1383.3,428.6,3576,right
37,1,continuous,10,22,trial,5327451.0,5330252.0,2801.0,10,R,5328208,5328560,354,1423.4,392.9,3351,right
37,1,continuous,10,22,trial,5327451.0,5330252.0,2801.0,10,R,5328632,5328846,216,573.2,516.2,3542,left
37,1,continuous,10,22,trial,5327451.0,5330252.0,2801.0,10,R,5328868,5329122,256,479.5,495.4,3531,left
37,1,continuous,10,22,trial,5327451.0,5330252.0,2801.0,10,R,5329170,5329342,174,665.2,885.7,3422,NA
37,1,continuous,10,22,trial,5327451.0,5330252.0,2801.0,10,R,5329380,5329718,340,861.6,947.6,3547,likertHorizontal
37,1,continuous,10,22,trial,5327451.0,5330252.0,2801.0,10,R,5329742,5330224,484,673.0,949.6,3892,NA
37,1,continuous,10,22,postResponse,5327451.0,5330252.0,2801.0,10,R,5330300,5330588,290,1293.2,561.2,3988,right
37,1,continuous,11,32,fixationCross,5331202.0,5339736.0,8534.0,11,R,5330688,5330956,270,870.9,572.5,4132,NA
37,1,continuous,11,32,fixationCross,5331202.0,5339736.0,8534.0,11,R,5330970,5331014,46,829.6,544.1,4304,NA
37,1,continuous,11,32,trial,5331202.0,5339736.0,8534.0,11,R,5331030,5331374,346,955.4,522.3,4405,NA
37,1,continuous,11,32,trial,5331202.0,5339736.0,8534.0,11,R,5331418,5331620,204,627.4,511.4,4303,left
37,1,continuous,11,32,trial,5331202.0,5339736.0,8534.0,11,R,5331646,5331850,206,432.2,458.1,3725,left
37,1,continuous,11,32,trial,5331202.0,5339736.0,8534.0,11,R,5331988,5332262,276,1412.9,431.4,3348,right
37,1,continuous,11,32,trial,5331202.0,5339736.0,8534.0,11,R,5332282,5332542,262,1468.5,390.4,3434,right
37,1,continuous,11,32,trial,5331202.0,5339736.0,8534.0,11,R,5332564,5332746,184,1538.9,444.7,3365,right
37,1,continuous,11,32,trial,5331202.0,5339736.0,8534.0,11,R,5332766,5333052,288,1556.6,541.2,3410,right
37,1,continuous,11,32,trial,5331202.0,5339736.0,8534.0,11,R,5333132,5333314,184,556.9,695.5,3639,left
37,1,continuous,11,32,trial,5331202.0,5339736.0,8534.0,11,R,5333352,5333560,210,527.7,494.2,3675,left
37,1,continuous,11,32,trial,5331202.0,5339736.0,8534.0,11,R,5333584,5333996,414,376.2,473.0,3616,left
37,1,continuous,11,32,trial,5331202.0,5339736.0,8534.0,11,R,5334020,5334344,326,537.4,466.7,3556,left
37,1,continuous,11,32,trial,5331202.0,5339736.0,8534.0,11,R,5334366,5334794,430,535.9,387.5,3797,left
37,1,continuous,11,32,trial,5331202.0,5339736.0,8534.0,11,R,5334868,5335280,414,1494.1,422.6,3607,right
37,1,continuous,11,32,trial,5331202.0,5339736.0,8534.0,11,R,5335302,5335588,288,1502.9,507.5,3533,right
37,1,continuous,11,32,trial,5331202.0,5339736.0,8534.0,11,R,5335612,5335790,180,1390.6,556.6,3637,right
37,1,continuous,11,32,trial,5331202.0,5339736.0,8534.0,11,R,5335824,5336158,336,1436.8,381.4,3560,right
37,1,continuous,11,32,trial,5331202.0,5339736.0,8534.0,11,R,5336180,5336424,246,1328.2,397.5,3432,right
37,1,continuous,11,32,trial,5331202.0,5339736.0,8534.0,11,R,5336438,5336696,260,1309.8,428.4,3404,right
37,1,continuous,11,32,trial,5331202.0,5339736.0,8534.0,11,R,5336738,5336952,216,1577.7,548.8,3376,right
37,1,continuous,11,32,trial,5331202.0,5339736.0,8534.0,11,R,5336970,5337452,484,1636.4,581.4,3490,right
37,1,continuous,11,32,trial,5331202.0,5339736.0,8534.0,11,R,5337532,5337660,130,759.9,902.0,3790,likertHorizontal
37,1,continuous,11,32,trial,5331202.0,5339736.0,8534.0,11,R,5337682,5337782,102,696.5,932.4,3815,NA
37,1,continuous,11,32,trial,5331202.0,5339736.0,8534.0,11,R,5337834,5338062,230,534.2,529.7,3884,left
37,1,continuous,11,32,trial,5331202.0,5339736.0,8534.0,11,R,5338088,5338594,508,456.6,419.8,3665,left
37,1,continuous,11,32,trial,5331202.0,5339736.0,8534.0,11,R,5338614,5338934,322,581.0,409.0,3513,left
37,1,continuous,11,32,trial,5331202.0,5339736.0,8534.0,11,R,5338988,5339224,238,766.2,931.2,3573,likertHorizontal
37,1,continuous,11,32,trial,5331202.0,5339736.0,8534.0,11,R,5339290,5339482,194,431.5,353.4,3640,left
37,1,continuous,11,32,trial,5331202.0,5339736.0,8534.0,11,R,5339508,5339818,312,382.9,442.9,3801,left
37,1,continuous,11,32,postResponse,5331202.0,5339736.0,8534.0,11,R,5339874,5340070,198,743.1,892.2,3888,likertHorizontal
37,1,continuous,12,94,fixationCross,5340785.0,5345836.0,5051.0,12,R,5340144,5340452,310,741.8,890.0,3999,likertHorizontal
37,1,continuous,12,94,trial,5340785.0,5345836.0,5051.0,12,R,5340504,5340928,426,935.3,523.5,4351,NA
37,1,continuous,12,94,trial,5340785.0,5345836.0,5051.0,12,R,5340972,5341164,194,578.2,500.5,4368,left
37,1,continuous,12,94,trial,5340785.0,5345836.0,5051.0,12,R,5341188,5341374,188,462.8,468.2,3831,left
37,1,continuous,12,94,trial,5340785.0,5345836.0,5051.0,12,R,5341504,5341752,250,370.0,575.1,3561,left
37,1,continuous,12,94,trial,5340785.0,5345836.0,5051.0,12,R,5341766,5342002,238,401.5,541.4,3632,left
37,1,continuous,12,94,trial,5340785.0,5345836.0,5051.0,12,R,5342034,5342148,116,500.1,396.5,3615,left
37,1,continuous,12,94,trial,5340785.0,5345836.0,5051.0,12,R,5342218,5342586,370,1356.7,571.7,3501,right
37,1,continuous,12,94,trial,5340785.0,5345836.0,5051.0,12,R,5342618,5342882,266,1571.6,609.3,3444,right
37,1,continuous,12,94,trial,5340785.0,5345836.0,5051.0,12,R,5342964,5343264,302,463.0,467.0,3591,left
37,1,continuous,12,94,trial,5340785.0,5345836.0,5051.0,12,R,5343344,5343782,440,1463.9,556.0,3499,right
37,1,continuous,12,94,trial,5340785.0,5345836.0,5051.0,12,R,5343820,5344168,350,1644.2,656.4,3474,right
37,1,continuous,12,94,trial,5340785.0,5345836.0,5051.0,12,R,5344206,5344472,268,1363.7,533.9,3585,right
37,1,continuous,12,94,trial,5340785.0,5345836.0,5051.0,12,R,5344498,5344734,238,1321.5,634.6,3540,right
37,1,continuous,12,94,trial,5340785.0,5345836.0,5051.0,12,R,5344750,5344962,214,1303.9,676.7,3570,right
37,1,continuous,12,94,trial,5340785.0,5345836.0,5051.0,12,R,5345006,5345154,150,1352.5,985.5,3733,NA
37,1,continuous,12,94,trial,5340785.0,5345836.0,5051.0,12,R,5345178,5345640,464,1475.7,987.6,3890,NA
37,1,continuous,12,94,trial,5340785.0,5345836.0,5051.0,12,R,5345650,5346142,494,1431.3,979.2,4091,NA
37,1,continuous,13,50,fixationCross,5347602.0,5351052.0,3450.0,13,R,5346266,5346488,224,942.5,589.9,4362,NA
37,1,continuous,13,50,fixationCross,5347602.0,5351052.0,3450.0,13,R,5346534,5347332,800,690.6,459.8,4407,left
37,1,continuous,13,50,fixationCross,5347602.0,5351052.0,3450.0,13,R,5347358,5347584,228,931.7,523.3,4679,NA
37,1,continuous,13,50,trial,5347602.0,5351052.0,3450.0,13,R,5347730,5347896,168,958.5,539.4,4808,NA
37,1,continuous,13,50,trial,5347602.0,5351052.0,3450.0,13,R,5347942,5348144,204,514.6,501.5,4725,left
37,1,continuous,13,50,trial,5347602.0,5351052.0,3450.0,13,R,5348170,5348452,284,495.3,391.0,4092,left
37,1,continuous,13,50,trial,5347602.0,5351052.0,3450.0,13,R,5348468,5348666,200,481.3,436.1,3701,left
37,1,continuous,13,50,trial,5347602.0,5351052.0,3450.0,13,R,5348738,5348914,178,1435.5,506.0,3628,right
37,1,continuous,13,50,trial,5347602.0,5351052.0,3450.0,13,R,5348940,5349106,168,1540.2,626.1,3585,right
37,1,continuous,13,50,trial,5347602.0,5351052.0,3450.0,13,R,5349126,5349396,272,1626.8,597.7,3551,right
37,1,continuous,13,50,trial,5347602.0,5351052.0,3450.0,13,R,5349484,5349682,200,418.6,508.5,3610,left
37,1,continuous,13,50,trial,5347602.0,5351052.0,3450.0,13,R,5349702,5349904,204,333.9,499.7,3677,left
37,1,continuous,13,50,trial,5347602.0,5351052.0,3450.0,13,R,5349936,5350038,104,611.6,539.8,3727,left
37,1,continuous,13,50,trial,5347602.0,5351052.0,3450.0,13,R,5350088,5350256,170,941.7,906.9,3738,likertHorizontal
37,1,continuous,13,50,trial,5347602.0,5351052.0,3450.0,13,R,5350270,5350822,554,965.3,950.9,4038,likertHorizontal
37,1,continuous,13,50,trial,5347602.0,5351052.0,3450.0,13,R,5350870,5351076,208,1005.9,618.8,4323,NA
37,1,continuous,13,50,postResponse,5347602.0,5351052.0,3450.0,13,R,5351118,5351388,272,994.0,971.2,4397,likertHorizontal
37,1,continuous,14,74,fixationCross,5352152.0,5354919.0,2767.0,14,R,5351464,5351568,106,994.5,972.6,4582,likertHorizontal
37,1,continuous,14,74,fixationCross,5352152.0,5354919.0,2767.0,14,R,5351638,5351834,198,749.6,542.5,4751,NA
37,1,continuous,14,74,trial,5352152.0,5354919.0,2767.0,14,R,5351862,5352298,438,898.5,531.3,4667,NA
37,1,continuous,14,74,trial,5352152.0,5354919.0,2767.0,14,R,5352340,5352582,244,521.7,488.3,4408,left
37,1,continuous,14,74,trial,5352152.0,5354919.0,2767.0,14,R,5352604,5352774,172,521.4,399.1,3938,left
37,1,continuous,14,74,trial,5352152.0,5354919.0,2767.0,14,R,5352784,5352880,98,547.8,400.0,3726,left
37,1,continuous,14,74,trial,5352152.0,5354919.0,2767.0,14,R,5352954,5353420,468,1476.2,514.5,3591,right
37,1,continuous,14,74,trial,5352152.0,5354919.0,2767.0,14,R,5353482,5353590,110,860.4,417.5,3904,NA
37,1,continuous,14,74,trial,5352152.0,5354919.0,2767.0,14,R,5353648,5353888,242,1474.8,401.6,3771,right
37,1,continuous,14,74,trial,5352152.0,5354919.0,2767.0,14,R,5353952,5354122,172,1221.5,998.1,3939,NA
37,1,continuous,14,74,trial,5352152.0,5354919.0,2767.0,14,R,5354144,5354226,84,1172.0,990.6,4081,likertHorizontal
37,1,continuous,14,74,trial,5352152.0,5354919.0,2767.0,14,R,5354278,5354458,182,1522.0,675.2,4058,right
37,1,continuous,14,74,trial,5352152.0,5354919.0,2767.0,14,R,5354480,5354972,494,1335.9,666.1,4042,right
37,1,continuous,14,74,postResponse,5352152.0,5354919.0,2767.0,14,R,5355016,5355252,238,1229.4,992.0,3925,NA
37,1,continuous,15,74,fixationCross,5356036.0,5361902.0,5866.0,15,R,5355394,5355710,318,900.6,857.4,4186,likertHorizontal
37,1,continuous,15,74,trial,5356036.0,5361902.0,5866.0,15,R,5355754,5356170,418,911.4,565.3,4419,NA
37,1,continuous,15,74,trial,5356036.0,5361902.0,5866.0,15,R,5356212,5356392,182,545.1,513.6,4360,left
37,1,continuous,15,74,trial,5356036.0,5361902.0,5866.0,15,R,5356412,5356562,152,624.3,515.6,3961,left
37,1,continuous,15,74,trial,5356036.0,5361902.0,5866.0,15,R,5356572,5356686,116,638.7,525.3,3717,left
37,1,continuous,15,74,trial,5356036.0,5361902.0,5866.0,15,R,5356822,5357016,196,359.0,430.2,3542,left
37,1,continuous,15,74,trial,5356036.0,5361902.0,5866.0,15,R,5357094,5357330,238,1408.0,587.1,3607,right
37,1,continuous,15,74,trial,5356036.0,5361902.0,5866.0,15,R,5357350,5357746,398,1318.4,580.1,3582,right
37,1,continuous,15,74,trial,5356036.0,5361902.0,5866.0,15,R,5357814,5358060,248,619.7,440.2,3577,left
37,1,continuous,15,74,trial,5356036.0,5361902.0,5866.0,15,R,5358090,5358332,244,370.2,404.8,3543,left
37,1,continuous,15,74,trial,5356036.0,5361902.0,5866.0,15,R,5358566,5359066,502,514.3,452.9,3790,left
37,1,continuous,15,74,trial,5356036.0,5361902.0,5866.0,15,R,5359090,5359252,164,400.8,418.7,3879,left
37,1,continuous,15,74,trial,5356036.0,5361902.0,5866.0,15,R,5359326,5359620,296,1399.0,562.2,3678,right
37,1,continuous,15,74,trial,5356036.0,5361902.0,5866.0,15,R,5359638,5359916,280,1337.7,561.3,3608,right
37,1,continuous,15,74,trial,5356036.0,5361902.0,5866.0,15,R,5359988,5360174,188,465.3,429.4,3706,left
37,1,continuous,15,74,trial,5356036.0,5361902.0,5866.0,15,R,5360198,5360406,210,424.8,427.9,3732,left
37,1,continuous,15,74,trial,5356036.0,5361902.0,5866.0,15,R,5360434,5360610,178,659.8,491.7,3759,left
37,1,continuous,15,74,trial,5356036.0,5361902.0,5866.0,15,R,5360622,5360820,200,648.3,516.7,3767,left
37,1,continuous,15,74,trial,5356036.0,5361902.0,5866.0,15,R,5360884,5361308,426,1366.9,602.7,3800,right
37,1,continuous,15,74,trial,5356036.0,5361902.0,5866.0,15,R,5361352,5361518,168,1279.5,902.7,3958,NA
37,1,continuous,15,74,trial,5356036.0,5361902.0,5866.0,15,R,5361538,5361712,176,1240.5,959.4,4027,NA
37,1,continuous,15,74,trial,5356036.0,5361902.0,5866.0,15,R,5361868,5362002,136,1260.7,916.5,4148,NA
37,1,continuous,15,74,postResponse,5356036.0,5361902.0,5866.0,15,R,5362020,5362236,218,1217.0,967.3,4176,NA
37,1,continuous,16,62,fixationCross,5363036.0,5366719.0,3683.0,16,R,5362336,5362676,342,1213.1,965.4,4470,NA
37,1,continuous,16,62,fixationCross,5363036.0,5366719.0,3683.0,16,R,5362730,5362922,194,942.8,589.7,4613,NA
37,1,continuous,16,62,trial,5363036.0,5366719.0,3683.0,16,R,5362944,5363176,234,908.6,517.0,4367,NA
37,1,continuous,16,62,trial,5363036.0,5366719.0,3683.0,16,R,5363224,5363402,180,505.4,476.1,4172,left
37,1,continuous,16,62,trial,5363036.0,5366719.0,3683.0,16,R,5363422,5363574,154,417.8,470.6,3855,left
37,1,continuous,16,62,trial,5363036.0,5366719.0,3683.0,16,R,5363644,5363892,250,1403.0,472.4,3528,right
37,1,continuous,16,62,trial,5363036.0,5366719.0,3683.0,16,R,5363960,5364158,200,519.9,481.0,3370,left
37,1,continuous,16,62,trial,5363036.0,5366719.0,3683.0,16,R,5364170,5364284,116,555.9,485.1,3310,left
37,1,continuous,16,62,trial,5363036.0,5366719.0,3683.0,16,R,5364308,5364658,352,414.2,449.3,3394,left
37,1,continuous,16,62,trial,5363036.0,5366719.0,3683.0,16,R,5364682,5364912,232,343.7,361.0,3381,left
37,1,continuous,16,62,trial,5363036.0,5366719.0,3683.0,16,R,5364948,5365134,188,640.8,359.2,3350,left
37,1,continuous,16,62,trial,5363036.0,5366719.0,3683.0,16,R,5365200,5365686,488,1425.3,468.9,3438,right
37,1,continuous,16,62,trial,5363036.0,5366719.0,3683.0,16,R,5365700,5365860,162,1385.9,495.2,3381,right
37,1,continuous,16,62,trial,5363036.0,5366719.0,3683.0,16,R,5365888,5366306,420,1296.4,362.1,3288,right
37,1,continuous,16,62,trial,5363036.0,5366719.0,3683.0,16,R,5366344,5366450,108,1368.8,565.2,3261,right
37,1,continuous,16,62,trial,5363036.0,5366719.0,3683.0,16,R,5366494,5366606,114,1198.5,855.9,3384,NA
37,1,continuous,16,62,postResponse,5363036.0,5366719.0,3683.0,16,R,5366630,5367054,426,1116.1,949.6,3668,likertHorizontal
37,1,continuous,17,95,fixationCross,5367786.0,5371869.0,4083.0,17,R,5367154,5367458,306,1116.3,956.2,4072,likertHorizontal
37,1,continuous,17,95,trial,5367786.0,5371869.0,4083.0,17,R,5367518,5367932,416,921.0,553.1,4307,NA
37,1,continuous,17,95,trial,5367786.0,5371869.0,4083.0,17,R,5367978,5368106,130,569.1,480.3,4320,left
37,1,continuous,17,95,trial,5367786.0,5371869.0,4083.0,17,R,5368132,5368272,142,481.1,388.1,3952,left
37,1,continuous,17,95,trial,5367786.0,5371869.0,4083.0,17,R,5368284,5368446,164,443.1,395.6,3641,left
37,1,continuous,17,95,trial,5367786.0,5371869.0,4083.0,17,R,5368516,5368796,282,1352.8,448.6,3449,right
37,1,continuous,17,95,trial,5367786.0,5371869.0,4083.0,17,R,5368820,5368978,160,1467.7,466.1,3456,right
37,1,continuous,17,95,trial,5367786.0,5371869.0,4083.0,17,R,5369002,5369552,552,1516.7,394.0,3322,right
37,1,continuous,17,95,trial,5367786.0,5371869.0,4083.0,17,R,5369754,5369912,160,1377.6,1006.6,3572,NA
37,1,continuous,17,95,trial,5367786.0,5371869.0,4083.0,17,R,5369936,5370166,232,1482.4,992.7,3719,NA
37,1,continuous,17,95,trial,5367786.0,5371869.0,4083.0,17,R,5370220,5370674,456,1403.7,472.0,3791,right
37,1,continuous,17,95,trial,5367786.0,5371869.0,4083.0,17,R,5370724,5371056,334,1454.3,961.4,3685,NA
37,1,continuous,17,95,postResponse,5367786.0,5371869.0,4083.0,17,R,5371074,5372202,1130,1447.4,975.1,4126,NA
37,1,continuous,18,71,fixationCross,5373368.0,5380870.0,7502.0,18,R,5372276,5372292,18,1438.0,982.8,4407,NA
37,1,continuous,18,71,fixationCross,5373368.0,5380870.0,7502.0,18,R,5372360,5372686,328,1041.7,784.4,4622,likertHorizontal
37,1,continuous,18,71,fixationCross,5373368.0,5380870.0,7502.0,18,R,5372928,5373114,188,840.4,410.2,4516,NA
37,1,continuous,18,71,fixationCross,5373368.0,5380870.0,7502.0,18,R,5373138,5373336,200,942.8,470.9,4587,NA
37,1,continuous,18,71,trial,5373368.0,5380870.0,7502.0,18,R,5373344,5373534,192,961.3,497.0,4695,NA
37,1,continuous,18,71,trial,5373368.0,5380870.0,7502.0,18,R,5373586,5373898,314,577.5,510.1,4460,left
37,1,continuous,18,71,trial,5373368.0,5380870.0,7502.0,18,R,5373932,5374094,164,339.1,346.3,3796,NA
37,1,continuous,18,71,trial,5373368.0,5380870.0,7502.0,18,R,5374238,5374446,210,338.2,342.0,3560,NA
37,1,continuous,18,71,trial,5373368.0,5380870.0,7502.0,18,R,5374528,5374832,306,1465.6,514.4,3787,right
37,1,continuous,18,71,trial,5373368.0,5380870.0,7502.0,18,R,5374904,5375040,138,537.3,471.2,3727,left
37,1,continuous,18,71,trial,5373368.0,5380870.0,7502.0,18,R,5375194,5375566,374,466.1,409.4,3692,left
37,1,continuous,18,71,trial,5373368.0,5380870.0,7502.0,18,R,5375592,5375988,398,599.4,437.0,3839,left
37,1,continuous,18,71,trial,5373368.0,5380870.0,7502.0,18,R,5376136,5376356,222,495.1,394.2,3789,left
37,1,continuous,18,71,trial,5373368.0,5380870.0,7502.0,18,R,5376428,5376634,208,1436.8,487.6,3936,right
37,1,continuous,18,71,trial,5373368.0,5380870.0,7502.0,18,R,5376660,5376826,168,1479.0,529.8,4022,right
37,1,continuous,18,71,trial,5373368.0,5380870.0,7502.0,18,R,5377006,5377492,488,1483.6,526.1,3852,right
37,1,continuous,18,71,trial,5373368.0,5380870.0,7502.0,18,R,5377650,5377974,326,637.3,463.1,3905,left
37,1,continuous,18,71,trial,5373368.0,5380870.0,7502.0,18,R,5378042,5378202,162,1421.4,507.5,3925,right
37,1,continuous,18,71,trial,5373368.0,5380870.0,7502.0,18,R,5378226,5378458,234,1480.2,531.7,3956,right
37,1,continuous,18,71,trial,5373368.0,5380870.0,7502.0,18,R,5378524,5378704,182,763.7,440.9,4016,NA
37,1,continuous,18,71,trial,5373368.0,5380870.0,7502.0,18,R,5378734,5378848,116,591.0,444.9,3933,left
37,1,continuous,18,71,trial,5373368.0,5380870.0,7502.0,18,R,5379010,5379272,264,423.3,416.6,3966,left
37,1,continuous,18,71,trial,5373368.0,5380870.0,7502.0,18,R,5379294,5379486,194,331.9,364.6,4048,left
37,1,continuous,18,71,trial,5373368.0,5380870.0,7502.0,18,R,5379496,5379662,168,335.5,348.2,3950,left
37,1,continuous,18,71,trial,5373368.0,5380870.0,7502.0,18,R,5379750,5380310,562,1491.3,515.7,3678,right
37,1,continuous,18,71,trial,5373368.0,5380870.0,7502.0,18,R,5380382,5380768,388,533.9,477.0,3476,left
37,1,continuous,18,71,trial,5373368.0,5380870.0,7502.0,18,R,5380824,5380940,118,1121.9,908.5,3591,likertHorizontal
37,1,continuous,18,71,postResponse,5373368.0,5380870.0,7502.0,18,R,5380966,5381204,240,1241.4,956.8,3763,NA
37,1,continuous,19,18,fixationCross,5383186.0,5387569.0,4383.0,19,R,5381302,5381584,284,1229.1,950.1,4062,NA
37,1,continuous,19,18,fixationCross,5383186.0,5387569.0,4383.0,19,R,5381650,5382846,1198,836.3,508.2,4470,NA
37,1,continuous,19,18,fixationCross,5383186.0,5387569.0,4383.0,19,R,5382970,5383088,120,959.6,513.7,4668,NA
37,1,continuous,19,18,fixationCross,5383186.0,5387569.0,4383.0,19,R,5383114,5383140,28,965.3,515.2,4692,NA
37,1,continuous,19,18,trial,5383186.0,5387569.0,4383.0,19,R,5383210,5383410,202,990.6,547.6,4829,NA
37,1,continuous,19,18,trial,5383186.0,5387569.0,4383.0,19,R,5383466,5383634,170,565.5,533.9,4626,left
37,1,continuous,19,18,trial,5383186.0,5387569.0,4383.0,19,R,5383700,5383982,284,1398.3,532.9,3926,right
37,1,continuous,19,18,trial,5383186.0,5387569.0,4383.0,19,R,5384004,5384338,336,1453.9,447.7,3593,right
37,1,continuous,19,18,trial,5383186.0,5387569.0,4383.0,19,R,5384414,5384722,310,574.5,520.4,3585,left
37,1,continuous,19,18,trial,5383186.0,5387569.0,4383.0,19,R,5384742,5384944,204,481.0,524.3,3605,left
37,1,continuous,19,18,trial,5383186.0,5387569.0,4383.0,19,R,5384966,5385258,294,418.4,592.4,3516,left
37,1,continuous,19,18,trial,5383186.0,5387569.0,4383.0,19,R,5385300,5385390,92,712.4,818.9,3496,NA
37,1,continuous,19,18,trial,5383186.0,5387569.0,4383.0,19,R,5385414,5385570,158,636.6,908.8,3511,NA
37,1,continuous,19,18,trial,5383186.0,5387569.0,4383.0,19,R,5385590,5385756,168,554.7,935.8,3610,NA
37,1,continuous,19,18,trial,5383186.0,5387569.0,4383.0,19,R,5385834,5386100,268,1479.8,507.5,3788,right
37,1,continuous,19,18,trial,5383186.0,5387569.0,4383.0,19,R,5386126,5386346,222,1369.2,582.0,3741,right
37,1,continuous,19,18,trial,5383186.0,5387569.0,4383.0,19,R,5386412,5386544,134,635.5,913.4,3713,NA
37,1,continuous,19,18,trial,5383186.0,5387569.0,4383.0,19,R,5386562,5386690,130,693.2,933.3,3662,NA
37,1,continuous,19,18,trial,5383186.0,5387569.0,4383.0,19,R,5386736,5387092,358,563.0,570.2,3666,left
37,1,continuous,19,18,trial,5383186.0,5387569.0,4383.0,19,R,5387114,5387286,174,428.8,532.5,3604,left
37,1,continuous,19,18,trial,5383186.0,5387569.0,4383.0,19,R,5387310,5387568,260,388.5,619.9,3553,left
37,1,continuous,19,18,postResponse,5383186.0,5387569.0,4383.0,19,R,5387616,5387902,288,616.0,943.4,3561,NA
37,1,continuous,20,100,fixationCross,5388836.0,5391970.0,3134.0,20,R,5387978,5388028,52,613.1,940.1,3598,NA
37,1,continuous,20,100,fixationCross,5388836.0,5391970.0,3134.0,20,R,5388072,5388514,444,977.4,1064.8,3895,likertHorizontal
37,1,continuous,20,100,trial,5388836.0,5391970.0,3134.0,20,R,5388568,5389010,444,937.4,594.5,4286,NA
37,1,continuous,20,100,trial,5388836.0,5391970.0,3134.0,20,R,5389056,5389276,222,563.9,509.5,4218,left
37,1,continuous,20,100,trial,5388836.0,5391970.0,3134.0,20,R,5389300,5389568,270,487.3,535.6,3817,left
37,1,continuous,20,100,trial,5388836.0,5391970.0,3134.0,20,R,5389640,5390172,534,1413.3,475.6,3594,right
37,1,continuous,20,100,trial,5388836.0,5391970.0,3134.0,20,R,5390294,5390672,380,1492.8,437.6,3500,right
37,1,continuous,20,100,trial,5388836.0,5391970.0,3134.0,20,R,5390686,5390834,150,1435.7,451.2,3635,right
37,1,continuous,20,100,trial,5388836.0,5391970.0,3134.0,20,R,5390922,5390972,52,1439.6,455.1,3655,right
37,1,continuous,20,100,trial,5388836.0,5391970.0,3134.0,20,R,5391078,5391206,130,1327.5,459.7,3635,right
37,1,continuous,20,100,trial,5388836.0,5391970.0,3134.0,20,R,5391278,5391458,182,498.9,544.3,3627,left
37,1,continuous,20,100,trial,5388836.0,5391970.0,3134.0,20,R,5391476,5391772,298,577.3,555.0,3627,left
37,1,continuous,20,100,trial,5388836.0,5391970.0,3134.0,20,R,5391842,5392018,178,1427.5,945.8,3759,NA
37,1,continuous,20,100,postResponse,5388836.0,5391970.0,3134.0,20,R,5392042,5392302,262,1488.2,962.1,3946,NA
37,1,continuous,21,43,fixationCross,5393052.0,5396136.0,3084.0,21,R,5392390,5392736,348,827.1,541.2,4336,NA
37,1,continuous,21,43,trial,5393052.0,5396136.0,3084.0,21,R,5392764,5393198,436,929.1,521.3,4413,NA
37,1,continuous,21,43,trial,5393052.0,5396136.0,3084.0,21,R,5393242,5393508,268,575.4,511.7,4256,left
37,1,continuous,21,43,trial,5393052.0,5396136.0,3084.0,21,R,5393572,5393604,34,1394.5,478.7,3800,right
37,1,continuous,21,43,trial,5393052.0,5396136.0,3084.0,21,R,5393630,5393660,32,1372.3,476.3,3695,right
37,1,continuous,21,43,trial,5393052.0,5396136.0,3084.0,21,R,5393700,5393874,176,1369.3,474.9,3559,right
37,1,continuous,21,43,trial,5393052.0,5396136.0,3084.0,21,R,5393942,5394128,188,579.7,496.2,3525,left
37,1,continuous,21,43,trial,5393052.0,5396136.0,3084.0,21,R,5394154,5394412,260,454.0,577.1,3552,left
37,1,continuous,21,43,trial,5393052.0,5396136.0,3084.0,21,R,5394456,5394608,154,710.2,885.4,3597,NA
37,1,continuous,21,43,trial,5393052.0,5396136.0,3084.0,21,R,5394624,5395146,524,680.8,940.2,3722,NA
37,1,continuous,21,43,trial,5393052.0,5396136.0,3084.0,21,R,5395188,5395334,148,1009.7,951.1,4009,likertHorizontal
37,1,continuous,21,43,trial,5393052.0,5396136.0,3084.0,21,R,5395356,5395586,232,1099.0,953.2,4075,likertHorizontal
37,1,continuous,21,43,trial,5393052.0,5396136.0,3084.0,21,R,5395610,5395806,198,962.3,939.2,4128,likertHorizontal
37,1,continuous,21,43,postResponse,5393052.0,5396136.0,3084.0,21,R,5395820,5396468,650,916.6,949.6,4224,likertHorizontal
37,1,continuous,22,15,fixationCross,5397336.0,5400553.0,3217.0,22,R,5396542,5396832,292,921.4,951.2,4354,likertHorizontal
37,1,continuous,22,15,trial,5397336.0,5400553.0,3217.0,22,R,5397108,5397496,390,960.6,545.4,4666,NA
37,1,continuous,22,15,trial,5397336.0,5400553.0,3217.0,22,R,5397540,5397724,186,623.8,582.0,4602,left
37,1,continuous,22,15,trial,5397336.0,5400553.0,3217.0,22,R,5397784,5398000,218,1369.7,513.2,3945,right
37,1,continuous,22,15,trial,5397336.0,5400553.0,3217.0,22,R,5398024,5398210,188,1445.1,517.8,3719,right
37,1,continuous,22,15,trial,5397336.0,5400553.0,3217.0,22,R,5398222,5398376,156,1471.2,540.3,3737,right
37,1,continuous,22,15,trial,5397336.0,5400553.0,3217.0,22,R,5398412,5398734,324,1443.7,361.8,3787,right
37,1,continuous,22,15,trial,5397336.0,5400553.0,3217.0,22,R,5398774,5399028,256,1650.0,527.7,3721,right
37,1,continuous,22,15,trial,5397336.0,5400553.0,3217.0,22,R,5399064,5399172,110,1335.4,512.3,3905,right
37,1,continuous,22,15,trial,5397336.0,5400553.0,3217.0,22,R,5399236,5399594,360,552.7,580.1,3993,left
37,1,continuous,22,15,trial,5397336.0,5400553.0,3217.0,22,R,5399628,5399814,188,361.6,583.5,3826,left
37,1,continuous,22,15,trial,5397336.0,5400553.0,3217.0,22,R,5399872,5400058,188,1119.6,593.1,3681,NA
37,1,continuous,22,15,trial,5397336.0,5400553.0,3217.0,22,R,5400112,5400292,182,644.0,852.2,3716,NA
37,1,continuous,22,15,trial,5397336.0,5400553.0,3217.0,22,R,5400322,5400564,244,592.8,940.4,3944,NA
37,1,continuous,22,15,postResponse,5397336.0,5400553.0,3217.0,22,R,5400644,5400884,242,1437.7,609.5,3946,right
37,1,continuous,23,50,trial,5401536.0,5404702.0,3166.0,23,R,5401002,5401700,700,864.6,514.8,4309,NA
37,1,continuous,23,50,trial,5401536.0,5404702.0,3166.0,23,R,5401736,5402068,334,586.3,512.9,4135,left
37,1,continuous,23,50,trial,5401536.0,5404702.0,3166.0,23,R,5402130,5402342,214,1337.1,440.6,3569,right
37,1,continuous,23,50,trial,5401536.0,5404702.0,3166.0,23,R,5402362,5402612,252,1383.1,412.2,3445,right
37,1,continuous,23,50,trial,5401536.0,5404702.0,3166.0,23,R,5402684,5403220,538,491.1,461.8,3430,left
37,1,continuous,23,50,trial,5401536.0,5404702.0,3166.0,23,R,5403372,5403522,152,955.3,886.2,3346,likertHorizontal
37,1,continuous,23,50,trial,5401536.0,5404702.0,3166.0,23,R,5403532,5403778,248,979.2,922.1,3387,likertHorizontal
37,1,continuous,23,50,trial,5401536.0,5404702.0,3166.0,23,R,5403832,5404100,270,1338.6,532.3,3630,right
37,1,continuous,23,50,trial,5401536.0,5404702.0,3166.0,23,R,5404170,5404482,314,537.9,548.1,3601,left
37,1,continuous,23,50,trial,5401536.0,5404702.0,3166.0,23,R,5404540,5404670,132,934.8,928.8,3491,likertHorizontal
37,1,continuous,23,50,trial,5401536.0,5404702.0,3166.0,23,R,5404684,5404986,304,962.6,941.9,3445,likertHorizontal
37,1,continuous,24,37,fixationCross,5406053.0,5412803.0,6750.0,24,R,5405226,5405770,546,869.5,405.6,3996,NA
37,1,continuous,24,37,trial,5406053.0,5412803.0,6750.0,24,R,5405794,5406228,436,951.4,536.4,4304,NA
37,1,continuous,24,37,trial,5406053.0,5412803.0,6750.0,24,R,5406278,5406442,166,489.4,459.5,4248,left
37,1,continuous,24,37,trial,5406053.0,5412803.0,6750.0,24,R,5406466,5406584,120,375.5,431.8,3782,left
37,1,continuous,24,37,trial,5406053.0,5412803.0,6750.0,24,R,5406656,5406944,290,1357.9,469.9,3413,right
37,1,continuous,24,37,trial,5406053.0,5412803.0,6750.0,24,R,5406960,5407244,286,1406.3,452.8,3429,right
37,1,continuous,24,37,trial,5406053.0,5412803.0,6750.0,24,R,5407258,5407454,198,1442.0,434.8,3635,right
37,1,continuous,24,37,trial,5406053.0,5412803.0,6750.0,24,R,5407528,5407942,416,488.0,446.2,3724,left
37,1,continuous,24,37,trial,5406053.0,5412803.0,6750.0,24,R,5408016,5408380,366,1424.5,465.0,3478,right
37,1,continuous,24,37,trial,5406053.0,5412803.0,6750.0,24,R,5408398,5409122,726,1393.4,535.9,3933,right
37,1,continuous,24,37,trial,5406053.0,5412803.0,6750.0,24,R,5409174,5409398,226,1436.2,1004.0,4279,NA
37,1,continuous,24,37,trial,5406053.0,5412803.0,6750.0,24,R,5409550,5409782,234,473.9,417.8,4053,left
37,1,continuous,24,37,trial,5406053.0,5412803.0,6750.0,24,R,5409806,5410252,448,369.1,434.3,3829,left
37,1,continuous,24,37,trial,5406053.0,5412803.0,6750.0,24,R,5410326,5410450,126,1169.2,879.0,3666,likertHorizontal
37,1,continuous,24,37,trial,5406053.0,5412803.0,6750.0,24,R,5410472,5410594,124,1243.0,938.1,3646,NA
37,1,continuous,24,37,trial,5406053.0,5412803.0,6750.0,24,R,5410642,5410872,232,1424.3,509.0,3691,right
37,1,continuous,24,37,trial,5406053.0,5412803.0,6750.0,24,R,5410946,5411392,448,495.4,486.2,3993,left
37,1,continuous,24,37,trial,5406053.0,5412803.0,6750.0,24,R,5411416,5411696,282,578.3,539.7,3661,left
37,1,continuous,24,37,trial,5406053.0,5412803.0,6750.0,24,R,5411740,5411874,136,711.1,783.8,3547,NA
37,1,continuous,24,37,trial,5406053.0,5412803.0,6750.0,24,R,5411912,5412284,374,900.6,952.8,3500,likertHorizontal
37,1,continuous,24,37,trial,5406053.0,5412803.0,6750.0,24,R,5412300,5412586,288,852.3,951.5,3692,likertHorizontal
37,1,continuous,24,37,trial,5406053.0,5412803.0,6750.0,24,R,5412620,5412724,106,987.3,813.0,3864,likertHorizontal
37,1,continuous,24,37,postResponse,5406053.0,5412803.0,6750.0,24,R,5412778,5413136,360,1341.2,546.0,3963,right
37,1,continuous,25,55,fixationCross,5413686.0,5416186.0,2500.0,25,R,5413220,5413576,358,862.8,554.2,4317,NA
37,1,continuous,25,55,trial,5413686.0,5416186.0,2500.0,25,R,5413598,5413842,246,940.9,524.7,4472,NA
37,1,continuous,25,55,trial,5413686.0,5416186.0,2500.0,25,R,5413884,5414018,136,565.5,471.5,4423,left
37,1,continuous,25,55,trial,5413686.0,5416186.0,2500.0,25,R,5414044,5414490,448,654.6,382.5,3744,left
37,1,continuous,25,55,trial,5413686.0,5416186.0,2500.0,25,R,5414556,5414840,286,1438.2,511.2,3497,right
37,1,continuous,25,55,trial,5413686.0,5416186.0,2500.0,25,R,5414860,5415120,262,1498.6,467.6,3562,right
37,1,continuous,25,55,trial,5413686.0,5416186.0,2500.0,25,R,5415144,5415522,380,1556.7,615.8,3611,right
37,1,continuous,25,55,trial,5413686.0,5416186.0,2500.0,25,R,5415576,5415658,84,1164.2,870.2,3946,likertHorizontal
37,1,continuous,25,55,trial,5413686.0,5416186.0,2500.0,25,R,5415682,5416050,370,1032.9,916.6,4108,likertHorizontal
37,1,continuous,25,55,trial,5413686.0,5416186.0,2500.0,25,R,5416062,5416166,106,1035.3,948.0,4233,likertHorizontal
37,1,continuous,25,55,postResponse,5413686.0,5416186.0,2500.0,25,R,5416234,5416518,286,468.2,483.4,4241,left
37,1,continuous,26,2,fixationCross,5445037.0,5449170.0,4133.0,26,R,5444418,5444588,172,285.0,137.0,4595,NA
37,1,continuous,26,2,fixationCross,5445037.0,5449170.0,4133.0,26,R,5444674,5444768,96,1207.6,768.5,4625,NA
37,1,continuous,26,2,fixationCross,5445037.0,5449170.0,4133.0,26,R,5444804,5444896,94,1025.0,609.9,4734,NA
37,1,continuous,26,2,trial,5445037.0,5449170.0,4133.0,26,R,5444928,5445350,424,990.4,545.3,4909,NA
37,1,continuous,26,2,trial,5445037.0,5449170.0,4133.0,26,R,5445392,5445514,124,926.2,827.0,4747,likertHorizontal
37,1,continuous,26,2,trial,5445037.0,5449170.0,4133.0,26,R,5445568,5445788,222,446.7,529.2,4407,left
37,1,continuous,26,2,trial,5445037.0,5449170.0,4133.0,26,R,5445812,5446018,208,512.4,466.3,4161,left
37,1,continuous,26,2,trial,5445037.0,5449170.0,4133.0,26,R,5446036,5446176,142,478.2,417.2,3904,left
37,1,continuous,26,2,trial,5445037.0,5449170.0,4133.0,26,R,5446286,5446514,230,1575.9,399.5,3602,right
37,1,continuous,26,2,trial,5445037.0,5449170.0,4133.0,26,R,5446526,5446638,114,1534.3,409.8,3695,right
37,1,continuous,26,2,trial,5445037.0,5449170.0,4133.0,26,R,5446806,5447058,254,511.7,474.2,4163,left
37,1,continuous,26,2,trial,5445037.0,5449170.0,4133.0,26,R,5447084,5447226,144,641.5,576.8,4250,left
37,1,continuous,26,2,trial,5445037.0,5449170.0,4133.0,26,R,5447246,5447434,190,686.1,609.5,4134,left
37,1,continuous,26,2,trial,5445037.0,5449170.0,4133.0,26,R,5447444,5447936,494,659.0,618.6,3988,left
37,1,continuous,26,2,trial,5445037.0,5449170.0,4133.0,26,R,5447978,5448210,234,397.8,460.7,3866,left
37,1,continuous,26,2,trial,5445037.0,5449170.0,4133.0,26,R,5448256,5448380,126,536.1,898.0,3893,NA
37,1,continuous,26,2,trial,5445037.0,5449170.0,4133.0,26,R,5448402,5449108,708,502.7,947.1,4009,NA
37,1,continuous,26,2,postResponse,5445037.0,5449170.0,4133.0,26,R,5449200,5449504,306,1553.9,429.6,3832,right
37,1,continuous,27,7,fixationCross,5450053.0,5454086.0,4033.0,27,R,5449578,5449628,52,1548.6,437.7,3792,right
37,1,continuous,27,7,trial,5450053.0,5454086.0,4033.0,27,R,5449698,5450198,502,964.4,557.9,4230,NA
37,1,continuous,27,7,trial,5450053.0,5454086.0,4033.0,27,R,5450244,5450420,178,515.3,495.2,4336,left
37,1,continuous,27,7,trial,5450053.0,5454086.0,4033.0,27,R,5450444,5450676,234,605.1,449.3,3989,left
37,1,continuous,27,7,trial,5450053.0,5454086.0,4033.0,27,R,5450742,5451164,424,1447.0,493.1,3647,right
37,1,continuous,27,7,trial,5450053.0,5454086.0,4033.0,27,R,5451222,5451484,264,917.9,845.0,3997,likertHorizontal
37,1,continuous,27,7,trial,5450053.0,5454086.0,4033.0,27,R,5451538,5452350,814,1389.0,546.2,4043,right
37,1,continuous,27,7,trial,5450053.0,5454086.0,4033.0,27,R,5452422,5452634,214,544.4,464.4,4156,left
37,1,continuous,27,7,trial,5450053.0,5454086.0,4033.0,27,R,5452658,5452862,206,636.6,444.7,4004,left
37,1,continuous,27,7,trial,5450053.0,5454086.0,4033.0,27,R,5452914,5453118,206,582.5,945.8,3813,NA
37,1,continuous,27,7,trial,5450053.0,5454086.0,4033.0,27,R,5453138,5453410,274,508.8,957.4,3906,NA
37,1,continuous,27,7,trial,5450053.0,5454086.0,4033.0,27,R,5453428,5454040,614,571.8,951.6,4118,NA
37,1,continuous,27,7,postResponse,5450053.0,5454086.0,4033.0,27,R,5454092,5454420,330,616.1,522.8,4158,left
37,1,continuous,28,10,fixationCross,5455836.0,5458487.0,2651.0,28,R,5454494,5454664,172,624.5,533.0,4238,left
37,1,continuous,28,10,fixationCross,5455836.0,5458487.0,2651.0,28,R,5454706,5455440,736,846.2,554.4,4560,NA
37,1,continuous,28,10,trial,5455836.0,5458487.0,2651.0,28,R,5455554,5456074,522,974.6,536.9,4804,NA
37,1,continuous,28,10,trial,5455836.0,5458487.0,2651.0,28,R,5456124,5456276,154,562.9,471.1,4531,left
37,1,continuous,28,10,trial,5455836.0,5458487.0,2651.0,28,R,5456296,5456376,82,467.8,443.2,4126,left
37,1,continuous,28,10,trial,5455836.0,5458487.0,2651.0,28,R,5456452,5456688,238,1453.8,446.9,3739,right
37,1,continuous,28,10,trial,5455836.0,5458487.0,2651.0,28,R,5456714,5456834,122,1610.8,454.9,3628,right
37,1,continuous,28,10,trial,5455836.0,5458487.0,2651.0,28,R,5456914,5457376,464,468.4,400.5,3829,left
37,1,continuous,28,10,trial,5455836.0,5458487.0,2651.0,28,R,5457436,5457670,236,770.4,841.5,3883,likertHorizontal
37,1,continuous,28,10,trial,5455836.0,5458487.0,2651.0,28,R,5457720,5458064,346,486.6,530.8,3840,left
37,1,continuous,28,10,trial,5455836.0,5458487.0,2651.0,28,R,5458112,5458306,196,611.6,897.6,3734,NA
37,1,continuous,28,10,trial,5455836.0,5458487.0,2651.0,28,R,5458356,5458496,142,491.9,541.7,3749,left
37,1,continuous,28,10,postResponse,5455836.0,5458487.0,2651.0,28,R,5458626,5458820,196,1510.8,538.8,3777,right
37,1,continuous,29,73,fixationCross,5459537.0,5461870.0,2333.0,29,R,5458968,5458980,14,603.4,542.8,4033,left
37,1,continuous,29,73,fixationCross,5459537.0,5461870.0,2333.0,29,R,5458988,5459206,220,587.5,558.0,4151,left
37,1,continuous,29,73,trial,5459537.0,5461870.0,2333.0,29,R,5459260,5459694,436,995.3,471.1,4266,NA
37,1,continuous,29,73,trial,5459537.0,5461870.0,2333.0,29,R,5459752,5459922,172,535.5,491.9,4234,left
37,1,continuous,29,73,trial,5459537.0,5461870.0,2333.0,29,R,5459990,5460150,162,1456.3,443.5,3744,right
37,1,continuous,29,73,trial,5459537.0,5461870.0,2333.0,29,R,5460176,5460218,44,1275.6,434.9,3600,right
37,1,continuous,29,73,trial,5459537.0,5461870.0,2333.0,29,R,5460286,5460602,318,471.9,469.5,3538,left
37,1,continuous,29,73,trial,5459537.0,5461870.0,2333.0,29,R,5460664,5460794,132,945.7,953.6,3552,likertHorizontal
37,1,continuous,29,73,trial,5459537.0,5461870.0,2333.0,29,R,5460816,5460908,94,1032.2,953.3,3561,likertHorizontal
37,1,continuous,29,73,trial,5459537.0,5461870.0,2333.0,29,R,5460968,5461188,222,1420.2,416.5,3580,right
37,1,continuous,29,73,trial,5459537.0,5461870.0,2333.0,29,R,5461208,5461610,404,1325.1,446.7,3648,right
37,1,continuous,29,73,trial,5459537.0,5461870.0,2333.0,29,R,5461666,5461812,148,1220.6,935.2,3832,NA
37,1,continuous,29,73,postResponse,5459537.0,5461870.0,2333.0,29,R,5461824,5462204,382,1233.5,963.0,3835,NA
37,1,continuous,30,1,fixationCross,5463804.0,5466870.0,3066.0,30,R,5462308,5462314,8,812.8,471.8,3887,NA
37,1,continuous,30,1,fixationCross,5463804.0,5466870.0,3066.0,30,R,5462322,5463512,1192,821.2,487.0,4248,NA
37,1,continuous,30,1,trial,5463804.0,5466870.0,3066.0,30,R,5463538,5463816,280,962.0,512.6,4412,NA
37,1,continuous,30,1,trial,5463804.0,5466870.0,3066.0,30,R,5463990,5464068,80,860.8,511.9,4595,NA
37,1,continuous,30,1,trial,5463804.0,5466870.0,3066.0,30,R,5464100,5464314,216,621.0,487.8,4343,left
37,1,continuous,30,1,trial,5463804.0,5466870.0,3066.0,30,R,5464332,5464566,236,661.0,457.2,3857,left
37,1,continuous,30,1,trial,5463804.0,5466870.0,3066.0,30,R,5464634,5464842,210,1549.5,444.5,3414,right
37,1,continuous,30,1,trial,5463804.0,5466870.0,3066.0,30,R,5464866,5465192,328,1506.9,338.0,3404,NA
37,1,continuous,30,1,trial,5463804.0,5466870.0,3066.0,30,R,5465258,5465432,176,683.6,424.9,3559,left
37,1,continuous,30,1,trial,5463804.0,5466870.0,3066.0,30,R,5465456,5465898,444,631.8,445.2,3682,left
37,1,continuous,30,1,trial,5463804.0,5466870.0,3066.0,30,R,5465954,5466088,136,538.6,872.5,3853,NA
37,1,continuous,30,1,trial,5463804.0,5466870.0,3066.0,30,R,5466172,5466324,154,1570.7,408.7,3848,right
37,1,continuous,30,1,trial,5463804.0,5466870.0,3066.0,30,R,5466352,5466702,352,1504.8,356.3,3883,right
37,1,continuous,30,1,trial,5463804.0,5466870.0,3066.0,30,R,5466792,5466912,122,504.8,904.6,3883,NA
37,1,continuous,30,1,postResponse,5463804.0,5466870.0,3066.0,30,R,5466928,5467204,278,508.2,943.8,3863,NA
37,1,continuous,31,3,fixationCross,5468003.0,5469587.0,1584.0,31,R,5467304,5467394,92,515.8,940.1,3943,NA
37,1,continuous,31,3,fixationCross,5468003.0,5469587.0,1584.0,31,R,5467466,5467704,240,997.7,673.2,4167,NA
37,1,continuous,31,3,trial,5468003.0,5469587.0,1584.0,31,R,5467736,5468166,432,989.8,521.8,4456,NA
37,1,continuous,31,3,trial,5468003.0,5469587.0,1584.0,31,R,5468214,5468510,298,507.1,488.0,4278,left
37,1,continuous,31,3,trial,5468003.0,5469587.0,1584.0,31,R,5468528,5468604,78,431.4,466.6,3779,left
37,1,continuous,31,3,trial,5468003.0,5469587.0,1584.0,31,R,5468674,5468896,224,1375.1,489.1,3553,right
37,1,continuous,31,3,trial,5468003.0,5469587.0,1584.0,31,R,5468918,5469080,164,1427.5,552.5,3461,right
37,1,continuous,31,3,trial,5468003.0,5469587.0,1584.0,31,R,5469150,5469318,170,625.1,911.2,3563,NA
37,1,continuous,31,3,postResponse,5468003.0,5469587.0,1584.0,31,R,5469342,5469922,582,510.1,948.5,3792,NA
37,1,continuous,32,87,fixationCross,5470637.0,5472487.0,1850.0,32,R,5469996,5470116,122,512.0,948.6,4053,NA
37,1,continuous,32,87,fixationCross,5470637.0,5472487.0,1850.0,32,R,5470172,5470318,148,736.7,737.7,4160,NA
37,1,continuous,32,87,fixationCross,5470637.0,5472487.0,1850.0,32,R,5470360,5470536,178,952.3,541.8,4312,NA
37,1,continuous,32,87,trial,5470637.0,5472487.0,1850.0,32,R,5470546,5470790,246,978.1,534.3,4436,NA
37,1,continuous,32,87,trial,5470637.0,5472487.0,1850.0,32,R,5470844,5471024,182,589.6,526.4,4425,left
37,1,continuous,32,87,trial,5470637.0,5472487.0,1850.0,32,R,5471088,5471332,246,1421.4,493.5,3793,right
37,1,continuous,32,87,trial,5470637.0,5472487.0,1850.0,32,R,5471354,5471516,164,1495.2,505.0,3558,right
37,1,continuous,32,87,trial,5470637.0,5472487.0,1850.0,32,R,5471594,5471886,294,525.6,467.0,3575,left
37,1,continuous,32,87,trial,5470637.0,5472487.0,1850.0,32,R,5471954,5472264,312,1311.4,950.5,3617,NA
37,1,continuous,32,87,trial,5470637.0,5472487.0,1850.0,32,R,5472288,5472470,184,1459.8,961.8,3651,NA
37,1,continuous,32,87,trial,5470637.0,5472487.0,1850.0,32,R,5472520,5472794,276,1520.8,550.4,3843,right
37,1,continuous,33,93,fixationCross,5473570.0,5474987.0,1417.0,33,R,5472920,5473090,172,1364.2,944.3,3992,NA
37,1,continuous,33,93,trial,5473570.0,5474987.0,1417.0,33,R,5473296,5473726,432,973.4,511.1,4498,NA
37,1,continuous,33,93,trial,5473570.0,5474987.0,1417.0,33,R,5473780,5473988,210,603.8,573.9,4502,left
37,1,continuous,33,93,trial,5473570.0,5474987.0,1417.0,33,R,5474058,5474296,240,1452.8,519.2,3858,right
37,1,continuous,33,93,trial,5473570.0,5474987.0,1417.0,33,R,5474338,5474490,154,1391.9,873.5,3764,NA
37,1,continuous,33,93,postResponse,5473570.0,5474987.0,1417.0,33,R,5474516,5475320,806,1409.7,979.7,4350,NA
37,1,continuous,34,11,fixationCross,5476154.0,5477821.0,1667.0,34,R,5475420,5475730,312,1412.8,982.8,4670,NA
37,1,continuous,34,11,fixationCross,5476154.0,5477821.0,1667.0,34,R,5475804,5475852,50,926.2,511.9,4983,NA
37,1,continuous,34,11,trial,5476154.0,5477821.0,1667.0,34,R,5476004,5476312,310,964.8,528.7,4797,NA
37,1,continuous,34,11,trial,5476154.0,5477821.0,1667.0,34,R,5476352,5476480,130,625.9,493.1,4771,left
37,1,continuous,34,11,trial,5476154.0,5477821.0,1667.0,34,R,5476502,5476698,198,559.6,435.5,4309,left
37,1,continuous,34,11,trial,5476154.0,5477821.0,1667.0,34,R,5476770,5476976,208,1524.8,504.6,3841,right
37,1,continuous,34,11,trial,5476154.0,5477821.0,1667.0,34,R,5476994,5477180,188,1463.0,485.4,3756,right
37,1,continuous,34,11,trial,5476154.0,5477821.0,1667.0,34,R,5477252,5477400,150,601.6,446.3,3860,left
37,1,continuous,34,11,trial,5476154.0,5477821.0,1667.0,34,R,5477424,5477806,384,546.0,432.2,3864,left
37,1,continuous,34,11,postResponse,5476154.0,5477821.0,1667.0,34,R,5477860,5478154,296,686.3,974.9,4031,NA
37,1,continuous,35,55,fixationCross,5478887.0,5484437.0,5550.0,35,R,5478254,5478368,116,687.1,970.0,4253,NA
37,1,continuous,35,55,fixationCross,5478887.0,5484437.0,5550.0,35,R,5478426,5478588,164,813.8,605.4,4422,NA
37,1,continuous,35,55,trial,5478887.0,5484437.0,5550.0,35,R,5478618,5479062,446,978.4,527.2,4543,NA
37,1,continuous,35,55,trial,5478887.0,5484437.0,5550.0,35,R,5479104,5479328,226,653.9,514.9,4539,left
37,1,continuous,35,55,trial,5478887.0,5484437.0,5550.0,35,R,5479390,5479576,188,1465.9,506.0,3865,right
37,1,continuous,35,55,trial,5478887.0,5484437.0,5550.0,35,R,5479600,5479764,166,1554.5,499.6,3630,right
37,1,continuous,35,55,trial,5478887.0,5484437.0,5550.0,35,R,5479786,5479942,158,1487.2,407.2,3536,right
37,1,continuous,35,55,trial,5478887.0,5484437.0,5550.0,35,R,5479956,5480194,240,1468.8,384.5,3538,right
37,1,continuous,35,55,trial,5478887.0,5484437.0,5550.0,35,R,5480264,5480482,220,577.4,478.3,3762,left
37,1,continuous,35,55,trial,5478887.0,5484437.0,5550.0,35,R,5480506,5480742,238,498.2,499.9,3791,left
37,1,continuous,35,55,trial,5478887.0,5484437.0,5550.0,35,R,5480760,5480910,152,423.6,518.5,3699,left
37,1,continuous,35,55,trial,5478887.0,5484437.0,5550.0,35,R,5480928,5481364,438,416.3,529.6,3630,left
37,1,continuous,35,55,trial,5478887.0,5484437.0,5550.0,35,R,5481392,5481816,426,581.7,454.3,3691,left
37,1,continuous,35,55,trial,5478887.0,5484437.0,5550.0,35,R,5481848,5482112,266,480.6,527.6,3829,left
37,1,continuous,35,55,trial,5478887.0,5484437.0,5550.0,35,R,5482162,5482444,284,579.6,923.7,3915,NA
37,1,continuous,35,55,trial,5478887.0,5484437.0,5550.0,35,R,5482496,5482748,254,592.9,506.3,3819,left
37,1,continuous,35,55,trial,5478887.0,5484437.0,5550.0,35,R,5482768,5483032,266,582.9,438.1,3771,left
37,1,continuous,35,55,trial,5478887.0,5484437.0,5550.0,35,R,5483110,5483382,274,1472.0,479.5,3695,right
37,1,continuous,35,55,trial,5478887.0,5484437.0,5550.0,35,R,5483404,5483592,190,1567.4,473.7,3607,right
37,1,continuous,35,55,trial,5478887.0,5484437.0,5550.0,35,R,5483612,5483794,184,1614.0,473.7,3559,right
37,1,continuous,35,55,trial,5478887.0,5484437.0,5550.0,35,R,5483850,5483976,128,1333.1,903.2,3734,NA
37,1,continuous,35,55,trial,5478887.0,5484437.0,5550.0,35,R,5483996,5484184,190,1278.2,952.6,3888,NA
37,1,continuous,35,55,trial,5478887.0,5484437.0,5550.0,35,R,5484214,5484676,464,1055.2,950.6,4103,likertHorizontal
37,1,continuous,35,55,trial,5478887.0,5484437.0,5550.0,35,R,5484704,5484712,10,992.1,898.0,4213,likertHorizontal
37,1,continuous,36,1,trial,5485687.0,5487821.0,2134.0,36,R,5484936,5485856,922,872.0,490.7,4372,NA
37,1,continuous,36,1,trial,5485687.0,5487821.0,2134.0,36,R,5485896,5486048,154,575.7,420.7,4471,left
37,1,continuous,36,1,trial,5485687.0,5487821.0,2134.0,36,R,5486068,5486262,196,568.1,355.8,3981,left
37,1,continuous,36,1,trial,5485687.0,5487821.0,2134.0,36,R,5486328,5486590,264,1435.7,390.7,3616,right
37,1,continuous,36,1,trial,5485687.0,5487821.0,2134.0,36,R,5486616,5486786,172,1576.7,393.2,3620,right
37,1,continuous,36,1,trial,5485687.0,5487821.0,2134.0,36,R,5486864,5487036,174,568.8,368.8,3919,left
37,1,continuous,36,1,trial,5485687.0,5487821.0,2134.0,36,R,5487054,5487368,316,587.2,335.3,3909,NA
37,1,continuous,36,1,trial,5485687.0,5487821.0,2134.0,36,R,5487428,5487700,274,527.6,938.7,3959,NA
37,1,continuous,36,1,trial,5485687.0,5487821.0,2134.0,36,R,5487718,5487914,198,472.6,956.4,4020,NA
37,1,continuous,36,1,postResponse,5485687.0,5487821.0,2134.0,36,R,5487964,5488156,194,584.1,556.6,4063,left
37,1,continuous,37,77,fixationCross,5488987.0,5491921.0,2934.0,37,R,5488230,5488456,228,585.8,558.4,4015,left
37,1,continuous,37,77,fixationCross,5488987.0,5491921.0,2934.0,37,R,5488474,5488522,50,700.6,516.4,4145,left
37,1,continuous,37,77,trial,5488987.0,5491921.0,2934.0,37,R,5488706,5489152,448,941.5,527.0,4445,NA
37,1,continuous,37,77,trial,5488987.0,5491921.0,2934.0,37,R,5489196,5489480,286,611.9,513.4,4379,left
37,1,continuous,37,77,trial,5488987.0,5491921.0,2934.0,37,R,5489550,5489958,410,1522.3,480.5,3710,right
37,1,continuous,37,77,trial,5488987.0,5491921.0,2934.0,37,R,5490030,5490262,234,581.6,504.8,3756,left
37,1,continuous,37,77,trial,5488987.0,5491921.0,2934.0,37,R,5490272,5490726,456,611.0,505.5,3772,left
37,1,continuous,37,77,trial,5488987.0,5491921.0,2934.0,37,R,5490740,5490906,168,586.4,530.6,3785,left
37,1,continuous,37,77,trial,5488987.0,5491921.0,2934.0,37,R,5490976,5491390,416,1497.1,548.3,3699,right
37,1,continuous,37,77,trial,5488987.0,5491921.0,2934.0,37,R,5491416,5491702,288,1373.8,655.8,3639,right
37,1,continuous,37,77,postResponse,5488987.0,5491921.0,2934.0,37,R,5491748,5492254,508,1281.1,967.8,3678,NA
37,1,continuous,38,7,fixationCross,5493771.0,5497288.0,3517.0,38,R,5492412,5492446,36,915.3,648.1,3830,NA
37,1,continuous,38,7,fixationCross,5493771.0,5497288.0,3517.0,38,R,5492468,5492516,50,826.0,553.0,3909,NA
37,1,continuous,38,7,trial,5493771.0,5497288.0,3517.0,38,R,5492772,5493826,1056,852.9,536.1,4317,NA
37,1,continuous,38,7,trial,5493771.0,5497288.0,3517.0,38,R,5493852,5493970,120,951.5,525.3,4373,NA
37,1,continuous,38,7,trial,5493771.0,5497288.0,3517.0,38,R,5494014,5494264,252,579.6,480.8,4061,left
37,1,continuous,38,7,trial,5493771.0,5497288.0,3517.0,38,R,5494340,5494588,250,1402.1,411.5,3405,right
37,1,continuous,38,7,trial,5493771.0,5497288.0,3517.0,38,R,5494660,5494858,200,443.7,475.1,3314,left
37,1,continuous,38,7,trial,5493771.0,5497288.0,3517.0,38,R,5494882,5495130,250,354.1,534.5,3361,left
37,1,continuous,38,7,trial,5493771.0,5497288.0,3517.0,38,R,5495206,5495408,204,1348.6,400.2,3199,right
37,1,continuous,38,7,trial,5493771.0,5497288.0,3517.0,38,R,5495596,5495868,274,581.2,393.9,3364,left
37,1,continuous,38,7,trial,5493771.0,5497288.0,3517.0,38,R,5495894,5496066,174,524.4,476.6,3649,left
37,1,continuous,38,7,trial,5493771.0,5497288.0,3517.0,38,R,5496090,5496492,404,422.5,545.6,3742,left
37,1,continuous,38,7,trial,5493771.0,5497288.0,3517.0,38,R,5496544,5497204,662,550.0,934.2,3624,NA
37,1,continuous,38,7,postResponse,5493771.0,5497288.0,3517.0,38,R,5497282,5497622,342,1359.8,520.4,3668,right
37,1,continuous,39,5,fixationCross,5498171.0,5501137.0,2966.0,39,R,5497696,5497798,104,1351.1,523.5,3638,right
37,1,continuous,39,5,fixationCross,5498171.0,5501137.0,2966.0,39,R,5497854,5498034,182,886.1,544.7,3892,NA
37,1,continuous,39,5,trial,5498171.0,5501137.0,2966.0,39,R,5498060,5498336,278,968.1,501.4,4095,NA
37,1,continuous,39,5,trial,5498171.0,5501137.0,2966.0,39,R,5498378,5498690,314,624.6,478.1,3875,left
37,1,continuous,39,5,trial,5498171.0,5501137.0,2966.0,39,R,5498714,5498924,212,474.3,486.6,3436,left
37,1,continuous,39,5,trial,5498171.0,5501137.0,2966.0,39,R,5498994,5499274,282,1402.5,469.6,3209,right
37,1,continuous,39,5,trial,5498171.0,5501137.0,2966.0,39,R,5499344,5499564,222,529.3,478.9,3171,left
37,1,continuous,39,5,trial,5498171.0,5501137.0,2966.0,39,R,5499604,5499866,264,265.1,488.9,3147,left
37,1,continuous,39,5,trial,5498171.0,5501137.0,2966.0,39,R,5499912,5500178,268,638.5,542.5,3171,left
37,1,continuous,39,5,trial,5498171.0,5501137.0,2966.0,39,R,5500204,5500440,238,455.8,527.3,3207,left
37,1,continuous,39,5,trial,5498171.0,5501137.0,2966.0,39,R,5500456,5500758,304,448.9,592.1,3211,left
37,1,continuous,39,5,trial,5498171.0,5501137.0,2966.0,39,R,5500802,5501004,204,517.2,910.6,3221,NA
37,1,continuous,39,5,trial,5498171.0,5501137.0,2966.0,39,R,5501016,5501162,148,526.2,947.7,3255,NA
37,1,continuous,39,5,postResponse,5498171.0,5501137.0,2966.0,39,R,5501240,5501474,236,1507.0,565.8,3302,right
37,1,continuous,40,12,fixationCross,5502054.0,5504004.0,1950.0,40,R,5501586,5502030,446,900.6,520.9,3714,NA
37,1,continuous,40,12,trial,5502054.0,5504004.0,1950.0,40,R,5502054,5502260,208,962.9,515.1,4035,NA
37,1,continuous,40,12,trial,5502054.0,5504004.0,1950.0,40,R,5502306,5502484,180,1391.6,461.5,3851,right
37,1,continuous,40,12,trial,5502054.0,5504004.0,1950.0,40,R,5502506,5502772,268,1433.3,405.2,3329,right
37,1,continuous,40,12,trial,5502054.0,5504004.0,1950.0,40,R,5502840,5503446,608,542.6,496.0,3257,left
37,1,continuous,40,12,trial,5502054.0,5504004.0,1950.0,40,R,5503494,5503908,416,662.0,901.5,3366,NA
37,1,continuous,40,12,postResponse,5502054.0,5504004.0,1950.0,40,R,5503930,5504338,410,580.4,946.3,3717,NA
37,1,continuous,41,52,fixationCross,5505121.0,5508038.0,2917.0,41,R,5504412,5504432,22,582.9,946.5,3885,NA
37,1,continuous,41,52,fixationCross,5505121.0,5508038.0,2917.0,41,R,5504500,5504822,324,971.7,649.0,3994,NA
37,1,continuous,41,52,trial,5505121.0,5508038.0,2917.0,41,R,5504918,5505284,368,942.6,490.0,4253,NA
37,1,continuous,41,52,trial,5505121.0,5508038.0,2917.0,41,R,5505328,5505474,148,535.5,489.8,4328,left
37,1,continuous,41,52,trial,5505121.0,5508038.0,2917.0,41,R,5505544,5506042,500,1458.7,437.0,3587,right
37,1,continuous,41,52,trial,5505121.0,5508038.0,2917.0,41,R,5506056,5506198,144,1460.0,407.6,3485,right
37,1,continuous,41,52,trial,5505121.0,5508038.0,2917.0,41,R,5506270,5506450,182,488.6,515.7,3704,left
37,1,continuous,41,52,trial,5505121.0,5508038.0,2917.0,41,R,5506476,5506602,128,496.4,622.1,3754,left
37,1,continuous,41,52,trial,5505121.0,5508038.0,2917.0,41,R,5506612,5506760,150,504.3,646.7,3815,left
37,1,continuous,41,52,trial,5505121.0,5508038.0,2917.0,41,R,5506812,5507284,474,936.5,930.9,3844,likertHorizontal
37,1,continuous,41,52,trial,5505121.0,5508038.0,2917.0,41,R,5507318,5507468,152,1146.9,861.1,3914,likertHorizontal
37,1,continuous,41,52,trial,5505121.0,5508038.0,2917.0,41,R,5507492,5507896,406,1032.8,935.1,4067,likertHorizontal
37,1,continuous,41,52,postResponse,5505121.0,5508038.0,2917.0,41,R,5507956,5508372,418,1445.0,486.1,4100,right
37,1,continuous,42,100,fixationCross,5509154.0,5511187.0,2033.0,42,R,5508446,5508498,54,1445.6,478.2,3731,right
37,1,continuous,42,100,fixationCross,5509154.0,5511187.0,2033.0,42,R,5508566,5508836,272,945.4,841.7,3970,likertHorizontal
37,1,continuous,42,100,fixationCross,5509154.0,5511187.0,2033.0,42,R,5508888,5509082,196,975.3,447.9,4280,NA
37,1,continuous,42,100,trial,5509154.0,5511187.0,2033.0,42,R,5509098,5509324,228,953.4,499.4,4389,NA
37,1,continuous,42,100,trial,5509154.0,5511187.0,2033.0,42,R,5509364,5509576,214,658.9,503.2,4325,left
37,1,continuous,42,100,trial,5509154.0,5511187.0,2033.0,42,R,5509642,5509896,256,1446.7,429.6,3578,right
37,1,continuous,42,100,trial,5509154.0,5511187.0,2033.0,42,R,5509908,5510352,446,1436.6,451.5,3308,right
37,1,continuous,42,100,trial,5509154.0,5511187.0,2033.0,42,R,5510402,5510590,190,1456.3,981.9,3470,NA
37,1,continuous,42,100,trial,5509154.0,5511187.0,2033.0,42,R,5510602,5511412,812,1492.6,977.9,3830,NA
37,1,continuous,42,100,postResponse,5509154.0,5511187.0,2033.0,42,R,5511486,5511522,38,787.6,497.8,4151,NA
37,1,continuous,43,95,fixationCross,5512471.0,5514105.0,1634.0,43,R,5511622,5511768,148,791.9,500.7,4110,NA
37,1,continuous,43,95,fixationCross,5512471.0,5514105.0,1634.0,43,R,5511954,5512178,226,841.8,470.8,4258,NA
37,1,continuous,43,95,trial,5512471.0,5514105.0,1634.0,43,R,5512210,5512630,422,942.3,507.2,4386,NA
37,1,continuous,43,95,trial,5512471.0,5514105.0,1634.0,43,R,5512672,5513006,336,618.1,557.3,4183,left
37,1,continuous,43,95,trial,5512471.0,5514105.0,1634.0,43,R,5513074,5513318,246,1461.7,464.1,3546,right
37,1,continuous,43,95,trial,5512471.0,5514105.0,1634.0,43,R,5513330,5513706,378,1419.6,492.2,3457,right
37,1,continuous,43,95,trial,5512471.0,5514105.0,1634.0,43,R,5513780,5513916,138,512.2,475.9,3577,left
37,1,continuous,43,95,trial,5512471.0,5514105.0,1634.0,43,R,5513984,5514034,52,1299.5,841.5,3663,NA
37,1,continuous,43,95,postResponse,5512471.0,5514105.0,1634.0,43,R,5514062,5514440,380,1467.2,947.4,3671,NA
37,1,continuous,44,31,fixationCross,5515238.0,5517788.0,2550.0,44,R,5514514,5514646,134,1459.1,948.2,3998,NA
37,1,continuous,44,31,fixationCross,5515238.0,5517788.0,2550.0,44,R,5514720,5514988,270,844.4,506.7,4327,NA
37,1,continuous,44,31,trial,5515238.0,5517788.0,2550.0,44,R,5515010,5515440,432,902.1,499.2,4202,NA
37,1,continuous,44,31,trial,5515238.0,5517788.0,2550.0,44,R,5515488,5515680,194,1390.6,500.7,4084,right
37,1,continuous,44,31,trial,5515238.0,5517788.0,2550.0,44,R,5515702,5515852,152,1450.5,497.7,3667,right
37,1,continuous,44,31,trial,5515238.0,5517788.0,2550.0,44,R,5515920,5516488,570,589.9,504.8,3493,left
37,1,continuous,44,31,trial,5515238.0,5517788.0,2550.0,44,R,5516510,5516850,342,451.9,503.1,3432,left
37,1,continuous,44,31,trial,5515238.0,5517788.0,2550.0,44,R,5516900,5517028,130,788.9,860.5,3353,likertHorizontal
37,1,continuous,44,31,trial,5515238.0,5517788.0,2550.0,44,R,5517070,5517112,44,1126.8,826.2,3352,likertHorizontal
37,1,continuous,44,31,trial,5515238.0,5517788.0,2550.0,44,R,5517164,5517318,156,1459.4,532.1,3319,right
37,1,continuous,44,31,trial,5515238.0,5517788.0,2550.0,44,R,5517342,5517580,240,1438.9,490.2,3442,right
37,1,continuous,44,31,postResponse,5515238.0,5517788.0,2550.0,44,R,5517648,5518118,472,781.0,945.4,3624,likertHorizontal
37,1,continuous,45,90,fixationCross,5518687.0,5520388.0,1701.0,45,R,5518216,5518220,6,957.0,566.6,3645,NA
37,1,continuous,45,90,fixationCross,5518687.0,5520388.0,1701.0,45,R,5518418,5518590,174,927.5,501.5,3863,NA
37,1,continuous,45,90,trial,5518687.0,5520388.0,1701.0,45,R,5518618,5518906,290,987.3,519.3,4027,NA
37,1,continuous,45,90,trial,5518687.0,5520388.0,1701.0,45,R,5518950,5519186,238,598.9,472.6,3849,left
37,1,continuous,45,90,trial,5518687.0,5520388.0,1701.0,45,R,5519246,5519652,408,1339.9,511.1,3496,right
37,1,continuous,45,90,trial,5518687.0,5520388.0,1701.0,45,R,5519714,5520222,510,606.0,506.8,3583,left
37,1,continuous,45,90,trial,5518687.0,5520388.0,1701.0,45,R,5520284,5520412,130,1231.5,853.5,3661,NA
37,1,continuous,45,90,postResponse,5518687.0,5520388.0,1701.0,45,R,5520438,5520724,288,1393.3,948.3,3648,NA
37,1,continuous,46,48,fixationCross,5521571.0,5522837.0,1266.0,46,R,5520824,5521000,178,1090.4,681.0,3909,NA
37,1,continuous,46,48,fixationCross,5521571.0,5522837.0,1266.0,46,R,5521052,5521320,270,815.6,492.6,4114,NA
37,1,continuous,46,48,trial,5521571.0,5522837.0,1266.0,46,R,5521342,5521730,390,909.1,514.4,4171,NA
37,1,continuous,46,48,trial,5521571.0,5522837.0,1266.0,46,R,5521772,5521956,186,570.2,504.9,4189,left
37,1,continuous,46,48,trial,5521571.0,5522837.0,1266.0,46,R,5522022,5522208,188,1442.2,428.1,3619,right
37,1,continuous,46,48,trial,5521571.0,5522837.0,1266.0,46,R,5522226,5522412,188,1458.6,372.9,3393,right
37,1,continuous,46,48,trial,5521571.0,5522837.0,1266.0,46,R,5522474,5522726,254,983.6,947.0,3426,likertHorizontal
37,1,continuous,46,48,trial,5521571.0,5522837.0,1266.0,46,R,5522786,5522912,128,588.6,507.1,3591,left
37,1,continuous,46,48,postResponse,5521571.0,5522837.0,1266.0,46,R,5522934,5523172,240,524.4,482.6,3699,left
37,1,continuous,47,52,fixationCross,5523888.0,5528421.0,4533.0,47,R,5523248,5523300,54,525.7,484.3,3611,left
37,1,continuous,47,52,fixationCross,5523888.0,5528421.0,4533.0,47,R,5523346,5523584,240,873.5,618.1,3752,NA
37,1,continuous,47,52,fixationCross,5523888.0,5528421.0,4533.0,47,R,5523610,5523768,160,998.6,537.4,4032,NA
37,1,continuous,47,52,trial,5523888.0,5528421.0,4533.0,47,R,5523788,5524058,272,952.6,524.1,4212,NA
37,1,continuous,47,52,trial,5523888.0,5528421.0,4533.0,47,R,5524102,5524252,152,569.4,537.0,4239,left
37,1,continuous,47,52,trial,5523888.0,5528421.0,4533.0,47,R,5524278,5524474,198,414.5,515.8,3753,left
37,1,continuous,47,52,trial,5523888.0,5528421.0,4533.0,47,R,5524546,5524788,244,1410.6,500.2,3312,right
37,1,continuous,47,52,trial,5523888.0,5528421.0,4533.0,47,R,5524808,5525024,218,1335.7,493.5,3282,right
37,1,continuous,47,52,trial,5523888.0,5528421.0,4533.0,47,R,5525088,5525344,258,546.6,539.4,3423,left
37,1,continuous,47,52,trial,5523888.0,5528421.0,4533.0,47,R,5525392,5525514,124,974.3,897.0,3389,likertHorizontal
37,1,continuous,47,52,trial,5523888.0,5528421.0,4533.0,47,R,5525532,5526168,638,1000.2,948.6,3621,likertHorizontal
37,1,continuous,47,52,trial,5523888.0,5528421.0,4533.0,47,R,5526218,5526376,160,702.8,612.3,3871,left
37,1,continuous,47,52,trial,5523888.0,5528421.0,4533.0,47,R,5526402,5526538,138,559.6,580.3,3864,left
37,1,continuous,47,52,trial,5523888.0,5528421.0,4533.0,47,R,5526562,5526766,206,423.8,522.4,3634,left
37,1,continuous,47,52,trial,5523888.0,5528421.0,4533.0,47,R,5526848,5527160,314,1411.1,490.2,3268,right
37,1,continuous,47,52,trial,5523888.0,5528421.0,4533.0,47,R,5527184,5527412,230,1269.7,421.3,3370,right
37,1,continuous,47,52,trial,5523888.0,5528421.0,4533.0,47,R,5527426,5527996,572,1302.5,418.9,3493,right
37,1,continuous,47,52,trial,5523888.0,5528421.0,4533.0,47,R,5528298,5528362,66,879.8,756.9,3867,likertHorizontal
37,1,continuous,47,52,trial,5523888.0,5528421.0,4533.0,47,R,5528398,5528522,126,966.3,928.1,3765,likertHorizontal
37,1,continuous,47,52,postResponse,5523888.0,5528421.0,4533.0,47,R,5528540,5528788,250,988.4,945.4,3894,likertHorizontal
37,1,continuous,48,17,fixationCross,5529421.0,5532955.0,3534.0,48,R,5528886,5529118,234,987.5,942.4,4125,likertHorizontal
37,1,continuous,48,17,trial,5529421.0,5532955.0,3534.0,48,R,5529190,5529630,442,944.9,462.6,4199,NA
37,1,continuous,48,17,trial,5529421.0,5532955.0,3534.0,48,R,5529678,5529902,226,1377.3,467.9,3994,right
37,1,continuous,48,17,trial,5529421.0,5532955.0,3534.0,48,R,5529972,5530208,238,527.9,475.7,3898,left
37,1,continuous,48,17,trial,5529421.0,5532955.0,3534.0,48,R,5530274,5530540,268,1333.3,465.2,3762,right
37,1,continuous,48,17,trial,5529421.0,5532955.0,3534.0,48,R,5530564,5530888,326,1445.4,477.0,3835,right
37,1,continuous,48,17,trial,5529421.0,5532955.0,3534.0,48,R,5530976,5531214,240,446.8,486.8,3843,left
37,1,continuous,48,17,trial,5529421.0,5532955.0,3534.0,48,R,5531344,5531652,310,505.0,551.3,3847,left
37,1,continuous,48,17,trial,5529421.0,5532955.0,3534.0,48,R,5531730,5532064,336,1418.3,479.1,3925,right
37,1,continuous,48,17,trial,5529421.0,5532955.0,3534.0,48,R,5532090,5532380,292,1554.9,390.2,3694,right
37,1,continuous,48,17,trial,5529421.0,5532955.0,3534.0,48,R,5532446,5532606,162,926.3,882.7,3707,likertHorizontal
37,1,continuous,48,17,trial,5529421.0,5532955.0,3534.0,48,R,5532634,5532800,168,746.6,928.9,3772,likertHorizontal
37,1,continuous,48,17,postResponse,5529421.0,5532955.0,3534.0,48,R,5532822,5533290,470,643.5,939.0,3935,NA
37,1,continuous,49,54,trial,5533854.0,5540155.0,6301.0,49,R,5533578,5534020,444,980.0,506.0,4165,NA
37,1,continuous,49,54,trial,5533854.0,5540155.0,6301.0,49,R,5534078,5534302,226,485.9,519.8,4141,left
37,1,continuous,49,54,trial,5533854.0,5540155.0,6301.0,49,R,5534326,5534404,80,536.2,464.0,3738,left
37,1,continuous,49,54,trial,5533854.0,5540155.0,6301.0,49,R,5534470,5534816,348,1400.1,481.0,3406,right
37,1,continuous,49,54,trial,5533854.0,5540155.0,6301.0,49,R,5534884,5535012,130,518.3,388.2,3466,left
37,1,continuous,49,54,trial,5533854.0,5540155.0,6301.0,49,R,5535032,5535178,148,473.8,355.6,3462,left
37,1,continuous,49,54,trial,5533854.0,5540155.0,6301.0,49,R,5535196,5535478,284,407.3,364.6,3455,left
37,1,continuous,49,54,trial,5533854.0,5540155.0,6301.0,49,R,5535506,5535674,170,510.9,479.9,3520,left
37,1,continuous,49,54,trial,5533854.0,5540155.0,6301.0,49,R,5535682,5535972,292,521.7,467.9,3542,left
37,1,continuous,49,54,trial,5533854.0,5540155.0,6301.0,49,R,5536016,5536126,112,912.2,456.5,3486,NA
37,1,continuous,49,54,trial,5533854.0,5540155.0,6301.0,49,R,5536166,5536322,158,474.0,496.8,3485,left
37,1,continuous,49,54,trial,5533854.0,5540155.0,6301.0,49,R,5536334,5536698,366,438.0,497.4,3521,left
37,1,continuous,49,54,trial,5533854.0,5540155.0,6301.0,49,R,5536724,5536878,156,414.9,385.7,3477,left
37,1,continuous,49,54,trial,5533854.0,5540155.0,6301.0,49,R,5536890,5537462,574,404.5,361.0,3496,left
37,1,continuous,49,54,trial,5533854.0,5540155.0,6301.0,49,R,5537490,5538022,534,532.4,468.7,3553,left
37,1,continuous,49,54,trial,5533854.0,5540155.0,6301.0,49,R,5538046,5538252,208,509.9,365.4,3470,left
37,1,continuous,49,54,trial,5533854.0,5540155.0,6301.0,49,R,5538324,5538590,268,1450.3,443.4,3406,right
37,1,continuous,49,54,trial,5533854.0,5540155.0,6301.0,49,R,5538614,5538812,200,1418.3,527.5,3477,right
37,1,continuous,49,54,trial,5533854.0,5540155.0,6301.0,49,R,5538860,5538958,100,1067.4,762.4,3621,likertHorizontal
37,1,continuous,49,54,trial,5533854.0,5540155.0,6301.0,49,R,5538988,5539110,124,950.4,873.9,3602,likertHorizontal
37,1,continuous,49,54,trial,5533854.0,5540155.0,6301.0,49,R,5539132,5539398,268,987.9,923.5,3683,likertHorizontal
37,1,continuous,49,54,trial,5533854.0,5540155.0,6301.0,49,R,5539450,5539744,296,1344.7,658.3,3902,right
37,1,continuous,49,54,trial,5533854.0,5540155.0,6301.0,49,R,5539796,5540412,618,1026.3,942.8,3913,likertHorizontal
37,1,continuous,50,59,fixationCross,5541255.0,5544721.0,3466.0,50,R,5540562,5540784,224,837.2,376.3,3961,NA
37,1,continuous,50,59,trial,5541255.0,5544721.0,3466.0,50,R,5541010,5541400,392,985.1,550.4,4286,NA
37,1,continuous,50,59,trial,5541255.0,5544721.0,3466.0,50,R,5541458,5541744,288,564.7,495.3,3999,left
37,1,continuous,50,59,trial,5541255.0,5544721.0,3466.0,50,R,5541772,5541990,220,515.6,598.7,3551,left
37,1,continuous,50,59,trial,5541255.0,5544721.0,3466.0,50,R,5542062,5542288,228,1482.2,516.4,3386,right
37,1,continuous,50,59,trial,5541255.0,5544721.0,3466.0,50,R,5542314,5543020,708,1493.7,435.8,3489,right
37,1,continuous,50,59,trial,5541255.0,5544721.0,3466.0,50,R,5543042,5543330,290,1390.0,535.8,3696,right
37,1,continuous,50,59,trial,5541255.0,5544721.0,3466.0,50,R,5543360,5543662,304,1634.4,598.7,3682,right
37,1,continuous,50,59,trial,5541255.0,5544721.0,3466.0,50,R,5543730,5543918,190,762.5,498.6,3794,NA
37,1,continuous,50,59,trial,5541255.0,5544721.0,3466.0,50,R,5543946,5544234,290,571.1,497.4,3605,left
37,1,continuous,50,59,trial,5541255.0,5544721.0,3466.0,50,R,5544260,5544634,376,406.0,454.6,3364,left
37,1,continuous,50,59,postResponse,5541255.0,5544721.0,3466.0,50,R,5544664,5545056,394,495.7,624.6,3282,left
37,2,binary,1,2,fixationCross,5645206.0,5655439.0,10233.0,51,R,5644748,5645174,428,936.5,520.8,4791,NA
37,2,binary,1,2,trial,5645206.0,5655439.0,10233.0,51,R,5645184,5645390,208,935.4,550.9,4881,NA
37,2,binary,1,2,trial,5645206.0,5655439.0,10233.0,51,R,5645450,5645632,184,473.9,561.7,4733,left
37,2,binary,1,2,trial,5645206.0,5655439.0,10233.0,51,R,5645714,5645906,194,1470.3,473.7,4109,right
37,2,binary,1,2,trial,5645206.0,5655439.0,10233.0,51,R,5645954,5646056,104,1524.1,969.9,3870,NA
37,2,binary,1,2,trial,5645206.0,5655439.0,10233.0,51,R,5646076,5646276,202,1493.2,1026.6,3932,NA
37,2,binary,1,2,trial,5645206.0,5655439.0,10233.0,51,R,5646348,5646518,172,511.0,905.7,4373,NA
37,2,binary,1,2,trial,5645206.0,5655439.0,10233.0,51,R,5646552,5646828,278,517.8,680.8,4410,left
37,2,binary,1,2,trial,5645206.0,5655439.0,10233.0,51,R,5646866,5647594,730,466.7,1003.8,4403,NA
37,2,binary,1,2,trial,5645206.0,5655439.0,10233.0,51,R,5647646,5647780,136,1084.1,988.4,4505,likertHorizontal
37,2,binary,1,2,trial,5645206.0,5655439.0,10233.0,51,R,5647828,5648030,204,1445.8,1019.6,4451,NA
37,2,binary,1,2,trial,5645206.0,5655439.0,10233.0,51,R,5648054,5648284,232,1431.1,991.0,4595,NA
37,2,binary,1,2,trial,5645206.0,5655439.0,10233.0,51,R,5648354,5649026,674,577.0,988.7,4707,NA
37,2,binary,1,2,trial,5645206.0,5655439.0,10233.0,51,R,5649040,5649238,200,528.9,1016.3,4429,NA
37,2,binary,1,2,trial,5645206.0,5655439.0,10233.0,51,R,5649286,5649386,102,1005.0,1003.5,4594,likertHorizontal
37,2,binary,1,2,trial,5645206.0,5655439.0,10233.0,51,R,5649438,5649704,268,1479.1,1018.5,4537,NA
37,2,binary,1,2,trial,5645206.0,5655439.0,10233.0,51,R,5649774,5650400,628,813.4,991.6,4801,likertHorizontal
37,2,binary,1,2,trial,5645206.0,5655439.0,10233.0,51,R,5650428,5651206,780,998.1,1035.9,5010,likertHorizontal
37,2,binary,1,2,trial,5645206.0,5655439.0,10233.0,51,R,5651274,5651522,250,1332.7,608.3,4925,right
37,2,binary,1,2,trial,5645206.0,5655439.0,10233.0,51,R,5651588,5651808,222,906.4,998.5,4583,likertHorizontal
37,2,binary,1,2,trial,5645206.0,5655439.0,10233.0,51,R,5651926,5652130,206,615.9,982.5,4640,NA
37,2,binary,1,2,trial,5645206.0,5655439.0,10233.0,51,R,5652190,5652378,190,1322.7,985.5,4870,NA
37,2,binary,1,2,trial,5645206.0,5655439.0,10233.0,51,R,5652406,5652600,196,1486.0,1046.9,4874,NA
37,2,binary,1,2,trial,5645206.0,5655439.0,10233.0,51,R,5652660,5652916,258,1489.4,555.3,4867,right
37,2,binary,1,2,trial,5645206.0,5655439.0,10233.0,51,R,5652990,5653800,812,445.4,522.7,4051,left
37,2,binary,1,2,trial,5645206.0,5655439.0,10233.0,51,R,5653850,5653980,132,446.2,961.1,4080,NA
37,2,binary,1,2,trial,5645206.0,5655439.0,10233.0,51,R,5653996,5654160,166,480.5,1014.8,4238,NA
37,2,binary,1,2,trial,5645206.0,5655439.0,10233.0,51,R,5654210,5654598,390,465.5,531.7,4322,left
37,2,binary,1,2,trial,5645206.0,5655439.0,10233.0,51,R,5654750,5655346,598,1477.9,473.8,3875,right
37,2,binary,1,2,trial,5645206.0,5655439.0,10233.0,51,R,5655398,5655630,234,1485.8,953.4,4198,NA
37,2,binary,1,2,postResponse,5645206.0,5655439.0,10233.0,51,R,5655706,5655774,70,683.0,576.2,4436,left
37,2,binary,2,1,fixationCross,5656673.0,5661240.0,4567.0,52,R,5655876,5656166,292,691.6,596.3,4586,left
37,2,binary,2,1,fixationCross,5656673.0,5661240.0,4567.0,52,R,5656192,5656366,176,883.4,703.3,4732,NA
37,2,binary,2,1,trial,5656673.0,5661240.0,4567.0,52,R,5656392,5656908,518,945.9,576.2,4750,NA
37,2,binary,2,1,trial,5656673.0,5661240.0,4567.0,52,R,5656954,5657400,448,849.3,901.5,4269,likertHorizontal
37,2,binary,2,1,trial,5656673.0,5661240.0,4567.0,52,R,5657444,5658326,884,526.6,978.0,4372,NA
37,2,binary,2,1,trial,5656673.0,5661240.0,4567.0,52,R,5658378,5658522,146,408.3,490.5,4547,left
37,2,binary,2,1,trial,5656673.0,5661240.0,4567.0,52,R,5658544,5658690,148,367.0,441.7,4304,left
37,2,binary,2,1,trial,5656673.0,5661240.0,4567.0,52,R,5658768,5658992,226,1400.6,470.4,3757,right
37,2,binary,2,1,trial,5656673.0,5661240.0,4567.0,52,R,5659018,5659294,278,1553.0,452.7,3623,right
37,2,binary,2,1,trial,5656673.0,5661240.0,4567.0,52,R,5659380,5660090,712,339.9,439.5,3724,left
37,2,binary,2,1,trial,5656673.0,5661240.0,4567.0,52,R,5660112,5660314,204,446.9,399.4,3521,left
37,2,binary,2,1,trial,5656673.0,5661240.0,4567.0,52,R,5660326,5660486,162,402.9,397.6,3487,left
37,2,binary,2,1,trial,5656673.0,5661240.0,4567.0,52,R,5660568,5660820,254,1488.1,493.4,3589,right
37,2,binary,2,1,trial,5656673.0,5661240.0,4567.0,52,R,5660844,5661216,374,1595.6,473.9,3730,right
37,2,binary,2,1,postResponse,5656673.0,5661240.0,4567.0,52,R,5661306,5661574,270,450.7,1020.7,4018,NA
37,2,binary,3,2,fixationCross,5662323.0,5669223.0,6900.0,53,R,5661652,5662004,354,814.3,641.1,4065,NA
37,2,binary,3,2,fixationCross,5662323.0,5669223.0,6900.0,53,R,5662030,5662188,160,939.5,576.3,4358,NA
37,2,binary,3,2,trial,5662323.0,5669223.0,6900.0,53,R,5662198,5662548,352,932.0,562.6,4553,NA
37,2,binary,3,2,trial,5662323.0,5669223.0,6900.0,53,R,5662596,5662784,190,493.7,518.7,4209,left
37,2,binary,3,2,trial,5662323.0,5669223.0,6900.0,53,R,5662846,5663060,216,1304.6,557.0,3645,right
37,2,binary,3,2,trial,5662323.0,5669223.0,6900.0,53,R,5663098,5663252,156,1545.2,447.6,3415,right
37,2,binary,3,2,trial,5662323.0,5669223.0,6900.0,53,R,5663318,5663612,296,921.2,981.0,3394,likertHorizontal
37,2,binary,3,2,trial,5662323.0,5669223.0,6900.0,53,R,5663664,5663778,116,1446.8,983.5,3503,NA
37,2,binary,3,2,trial,5662323.0,5669223.0,6900.0,53,R,5663950,5664692,744,816.1,513.3,3999,NA
37,2,binary,3,2,trial,5662323.0,5669223.0,6900.0,53,R,5664734,5664956,224,474.4,534.1,4031,left
37,2,binary,3,2,trial,5662323.0,5669223.0,6900.0,53,R,5665034,5665352,320,1376.1,521.3,3748,right
37,2,binary,3,2,trial,5662323.0,5669223.0,6900.0,53,R,5665378,5665556,180,1558.6,488.3,3697,right
37,2,binary,3,2,trial,5662323.0,5669223.0,6900.0,53,R,5665686,5666134,450,632.1,917.8,3763,NA
37,2,binary,3,2,trial,5662323.0,5669223.0,6900.0,53,R,5666208,5666284,78,1430.5,644.5,3983,right
37,2,binary,3,2,trial,5662323.0,5669223.0,6900.0,53,R,5666410,5666800,392,1061.7,936.4,4109,likertHorizontal
37,2,binary,3,2,trial,5662323.0,5669223.0,6900.0,53,R,5666860,5667094,236,522.8,960.0,4330,NA
37,2,binary,3,2,trial,5662323.0,5669223.0,6900.0,53,R,5667132,5667374,244,943.8,1002.1,4540,likertHorizontal
37,2,binary,3,2,trial,5662323.0,5669223.0,6900.0,53,R,5667406,5667740,336,1007.6,996.1,4575,likertHorizontal
37,2,binary,3,2,trial,5662323.0,5669223.0,6900.0,53,R,5667804,5668268,466,1500.6,524.4,4465,right
37,2,binary,3,2,trial,5662323.0,5669223.0,6900.0,53,R,5668298,5668464,168,1278.4,611.4,3888,right
37,2,binary,3,2,trial,5662323.0,5669223.0,6900.0,53,R,5668532,5668794,264,469.1,555.2,3666,left
37,2,binary,3,2,trial,5662323.0,5669223.0,6900.0,53,R,5668822,5668998,178,287.6,581.3,3510,left
37,2,binary,3,2,trial,5662323.0,5669223.0,6900.0,53,R,5669090,5669230,142,1448.8,992.7,3490,NA
37,2,binary,3,2,postResponse,5662323.0,5669223.0,6900.0,53,R,5669246,5669558,314,1492.3,1000.2,3632,NA
37,2,binary,4,2,fixationCross,5670406.0,5672423.0,2017.0,54,R,5669814,5670098,286,786.5,450.2,4314,NA
37,2,binary,4,2,fixationCross,5670406.0,5672423.0,2017.0,54,R,5670126,5670244,120,936.8,538.6,4502,NA
37,2,binary,4,2,trial,5670406.0,5672423.0,2017.0,54,R,5670272,5670566,296,925.7,532.3,4572,NA
37,2,binary,4,2,trial,5670406.0,5672423.0,2017.0,54,R,5670608,5670972,366,571.7,546.2,4225,left
37,2,binary,4,2,trial,5670406.0,5672423.0,2017.0,54,R,5671042,5671456,416,1456.0,512.3,3638,right
37,2,binary,4,2,trial,5670406.0,5672423.0,2017.0,54,R,5671522,5671768,248,945.9,946.1,3909,likertHorizontal
37,2,binary,4,2,trial,5670406.0,5672423.0,2017.0,54,R,5671828,5671962,136,1370.4,727.1,3979,right
37,2,binary,4,2,trial,5670406.0,5672423.0,2017.0,54,R,5671996,5672232,238,1356.6,939.5,4151,NA
37,2,binary,4,2,trial,5670406.0,5672423.0,2017.0,54,R,5672256,5672456,202,1456.0,1002.5,4479,NA
37,2,binary,4,2,postResponse,5670406.0,5672423.0,2017.0,54,R,5672522,5672772,252,805.6,622.1,4762,NA
37,2,binary,5,1,fixationCross,5673506.0,5675206.0,1700.0,55,R,5672872,5673198,328,810.4,634.2,4703,NA
37,2,binary,5,1,trial,5673506.0,5675206.0,1700.0,55,R,5673224,5673678,456,947.3,577.5,4708,NA
37,2,binary,5,1,trial,5673506.0,5675206.0,1700.0,55,R,5673728,5673886,160,557.5,556.5,4573,left
37,2,binary,5,1,trial,5673506.0,5675206.0,1700.0,55,R,5673950,5674246,298,1320.1,514.9,3998,right
37,2,binary,5,1,trial,5673506.0,5675206.0,1700.0,55,R,5674268,5674442,176,1405.2,484.9,3745,right
37,2,binary,5,1,trial,5673506.0,5675206.0,1700.0,55,R,5674534,5674836,304,478.9,542.2,3705,left
37,2,binary,5,1,trial,5673506.0,5675206.0,1700.0,55,R,5674874,5675110,238,440.1,744.1,3726,NA
37,2,binary,5,1,trial,5673506.0,5675206.0,1700.0,55,R,5675142,5675262,122,463.7,943.3,3766,NA
37,2,binary,5,1,postResponse,5673506.0,5675206.0,1700.0,55,R,5675342,5675542,202,1355.6,518.3,3868,right
37,2,binary,6,2,fixationCross,5676090.0,5677573.0,1483.0,56,R,5675616,5675760,146,1342.4,528.4,3934,right
37,2,binary,6,2,fixationCross,5676090.0,5677573.0,1483.0,56,R,5675804,5676056,254,993.0,477.4,4237,NA
37,2,binary,6,2,trial,5676090.0,5677573.0,1483.0,56,R,5676080,5676250,172,902.9,526.3,4431,NA
37,2,binary,6,2,trial,5676090.0,5677573.0,1483.0,56,R,5676292,5676566,276,522.8,538.5,4291,left
37,2,binary,6,2,trial,5676090.0,5677573.0,1483.0,56,R,5676626,5676920,296,1294.5,512.4,3689,right
37,2,binary,6,2,trial,5676090.0,5677573.0,1483.0,56,R,5676940,5677104,166,1375.9,552.4,3554,right
37,2,binary,6,2,trial,5676090.0,5677573.0,1483.0,56,R,5677174,5677486,314,419.1,639.5,3585,left
37,2,binary,6,2,postResponse,5676090.0,5677573.0,1483.0,56,R,5677508,5677906,400,370.3,555.1,3501,left
37,2,binary,7,2,trial,5678457.0,5679857.0,1400.0,57,R,5678032,5678470,440,949.0,566.5,3669,NA
37,2,binary,7,2,trial,5678457.0,5679857.0,1400.0,57,R,5678490,5678624,136,895.9,522.2,4064,NA
37,2,binary,7,2,trial,5678457.0,5679857.0,1400.0,57,R,5678666,5678966,302,528.2,520.9,3992,left
37,2,binary,7,2,trial,5678457.0,5679857.0,1400.0,57,R,5679058,5679408,352,1301.3,447.6,3525,right
37,2,binary,7,2,trial,5678457.0,5679857.0,1400.0,57,R,5679426,5679562,138,1374.2,421.1,3565,right
37,2,binary,7,2,trial,5678457.0,5679857.0,1400.0,57,R,5679586,5679808,224,1418.5,559.4,3806,right
37,2,binary,7,2,postResponse,5678457.0,5679857.0,1400.0,57,R,5679824,5680192,370,1456.4,606.7,3998,right
37,2,binary,8,2,fixationCross,5680939.0,5684507.0,3568.0,58,R,5680266,5680418,154,1450.0,606.6,3942,right
37,2,binary,8,2,fixationCross,5680939.0,5684507.0,3568.0,58,R,5680498,5680686,190,785.2,572.9,4177,NA
37,2,binary,8,2,trial,5680939.0,5684507.0,3568.0,58,R,5680710,5681100,392,903.8,551.1,4413,NA
37,2,binary,8,2,trial,5680939.0,5684507.0,3568.0,58,R,5681144,5681364,222,529.3,534.7,4318,left
37,2,binary,8,2,trial,5680939.0,5684507.0,3568.0,58,R,5681386,5681506,122,413.0,512.8,3942,left
37,2,binary,8,2,trial,5680939.0,5684507.0,3568.0,58,R,5681578,5681878,302,1328.8,490.9,3656,right
37,2,binary,8,2,trial,5680939.0,5684507.0,3568.0,58,R,5681902,5682246,346,1474.5,450.7,3523,right
37,2,binary,8,2,trial,5680939.0,5684507.0,3568.0,58,R,5682262,5682454,194,1494.7,494.2,3479,right
37,2,binary,8,2,trial,5680939.0,5684507.0,3568.0,58,R,5682538,5682810,274,421.2,500.8,3621,left
37,2,binary,8,2,trial,5680939.0,5684507.0,3568.0,58,R,5682826,5683386,562,348.0,472.0,3508,left
37,2,binary,8,2,trial,5680939.0,5684507.0,3568.0,58,R,5683450,5683576,128,885.1,981.7,3615,likertHorizontal
37,2,binary,8,2,postResponse,5680939.0,5684507.0,3568.0,58,R,5683596,5684840,1246,957.2,979.2,4103,likertHorizontal
37,2,binary,9,1,fixationCross,5685457.0,5697657.0,12200.0,59,R,5684938,5684976,40,957.7,985.2,4559,likertHorizontal
37,2,binary,9,1,fixationCross,5685457.0,5697657.0,12200.0,59,R,5685024,5685298,276,902.3,617.1,4739,NA
37,2,binary,9,1,trial,5685457.0,5697657.0,12200.0,59,R,5685318,5685624,308,922.0,569.7,4695,NA
37,2,binary,9,1,trial,5685457.0,5697657.0,12200.0,59,R,5685670,5686090,422,557.7,515.5,4077,left
37,2,binary,9,1,trial,5685457.0,5697657.0,12200.0,59,R,5686164,5686396,234,1346.2,444.8,3490,right
37,2,binary,9,1,trial,5685457.0,5697657.0,12200.0,59,R,5686452,5686566,116,999.1,910.2,3456,likertHorizontal
37,2,binary,9,1,trial,5685457.0,5697657.0,12200.0,59,R,5686588,5687768,1182,941.7,983.1,3861,likertHorizontal
37,2,binary,9,1,trial,5685457.0,5697657.0,12200.0,59,R,5687812,5688298,488,862.4,706.8,4306,NA
37,2,binary,9,1,trial,5685457.0,5697657.0,12200.0,59,R,5688330,5688568,240,907.6,918.5,4420,likertHorizontal
37,2,binary,9,1,trial,5685457.0,5697657.0,12200.0,59,R,5688588,5695860,7274,970.9,1000.8,4995,likertHorizontal
37,2,binary,9,1,trial,5685457.0,5697657.0,12200.0,59,R,5695906,5696490,586,1215.8,804.1,5007,NA
37,2,binary,9,1,trial,5685457.0,5697657.0,12200.0,59,R,5696522,5696646,126,986.7,936.0,4637,likertHorizontal
37,2,binary,9,1,trial,5685457.0,5697657.0,12200.0,59,R,5696864,5697054,192,492.4,538.0,4556,left
37,2,binary,9,1,trial,5685457.0,5697657.0,12200.0,59,R,5697070,5697432,364,495.2,490.4,4037,left
37,2,binary,9,1,postResponse,5685457.0,5697657.0,12200.0,59,R,5697452,5697990,540,568.0,510.2,3575,left
37,2,binary,10,1,fixationCross,5699207.0,5704040.0,4833.0,60,R,5698552,5698882,332,996.8,804.6,4460,likertHorizontal
37,2,binary,10,1,fixationCross,5699207.0,5704040.0,4833.0,60,R,5698918,5699064,148,935.6,615.2,4599,NA
37,2,binary,10,1,trial,5699207.0,5704040.0,4833.0,60,R,5699086,5699392,308,917.3,562.9,4554,NA
37,2,binary,10,1,trial,5699207.0,5704040.0,4833.0,60,R,5699432,5699590,160,601.5,544.3,4418,left
37,2,binary,10,1,trial,5699207.0,5704040.0,4833.0,60,R,5699610,5699788,180,547.8,561.5,4005,left
37,2,binary,10,1,trial,5699207.0,5704040.0,4833.0,60,R,5699840,5699952,114,909.6,922.0,3839,likertHorizontal
37,2,binary,10,1,trial,5699207.0,5704040.0,4833.0,60,R,5699972,5700170,200,945.5,977.6,3771,likertHorizontal
37,2,binary,10,1,trial,5699207.0,5704040.0,4833.0,60,R,5700226,5700246,22,1322.9,633.4,3956,right
37,2,binary,10,1,trial,5699207.0,5704040.0,4833.0,60,R,5700370,5700596,228,1320.5,517.6,4037,right
37,2,binary,10,1,trial,5699207.0,5704040.0,4833.0,60,R,5700654,5700780,128,911.2,922.5,3941,likertHorizontal
37,2,binary,10,1,trial,5699207.0,5704040.0,4833.0,60,R,5700806,5701166,362,948.7,963.3,4144,likertHorizontal
37,2,binary,10,1,trial,5699207.0,5704040.0,4833.0,60,R,5701222,5701510,290,1287.9,621.7,4452,right
37,2,binary,10,1,trial,5699207.0,5704040.0,4833.0,60,R,5701570,5701698,130,1030.3,985.7,4270,likertHorizontal
37,2,binary,10,1,trial,5699207.0,5704040.0,4833.0,60,R,5701714,5701888,176,987.2,994.7,4224,likertHorizontal
37,2,binary,10,1,trial,5699207.0,5704040.0,4833.0,60,R,5701936,5702092,158,1445.3,996.0,4335,NA
37,2,binary,10,1,trial,5699207.0,5704040.0,4833.0,60,R,5702150,5702342,194,1393.8,564.3,4532,right
37,2,binary,10,1,trial,5699207.0,5704040.0,4833.0,60,R,5702366,5702420,56,1299.5,552.5,4524,right
37,2,binary,10,1,trial,5699207.0,5704040.0,4833.0,60,R,5702482,5702804,324,547.8,534.8,4046,left
37,2,binary,10,1,trial,5699207.0,5704040.0,4833.0,60,R,5702928,5703204,278,411.6,498.9,3644,left
37,2,binary,10,1,trial,5699207.0,5704040.0,4833.0,60,R,5703230,5703454,226,598.8,536.0,3646,left
37,2,binary,10,1,trial,5699207.0,5704040.0,4833.0,60,R,5703466,5703854,390,551.6,542.9,3603,left
37,2,binary,10,1,postResponse,5699207.0,5704040.0,4833.0,60,R,5703924,5704376,454,1380.7,539.2,3582,right
37,2,binary,11,1,fixationCross,5705107.0,5708223.0,3116.0,61,R,5704470,5704770,302,794.1,980.9,3966,likertHorizontal
37,2,binary,11,1,fixationCross,5705107.0,5708223.0,3116.0,61,R,5704816,5704988,174,913.8,599.5,4317,NA
37,2,binary,11,1,trial,5705107.0,5708223.0,3116.0,61,R,5705012,5705324,314,937.5,535.2,4395,NA
37,2,binary,11,1,trial,5705107.0,5708223.0,3116.0,61,R,5705376,5705504,130,1427.9,510.1,4236,right
37,2,binary,11,1,trial,5705107.0,5708223.0,3116.0,61,R,5705556,5705612,58,721.6,506.4,3910,left
37,2,binary,11,1,trial,5705107.0,5708223.0,3116.0,61,R,5705650,5705986,338,421.3,532.2,3621,left
37,2,binary,11,1,trial,5705107.0,5708223.0,3116.0,61,R,5706042,5706396,356,945.2,930.7,3344,likertHorizontal
37,2,binary,11,1,trial,5705107.0,5708223.0,3116.0,61,R,5706456,5706652,198,448.4,923.5,3586,NA
37,2,binary,11,1,trial,5705107.0,5708223.0,3116.0,61,R,5706704,5706818,116,366.3,497.9,3773,left
37,2,binary,11,1,trial,5705107.0,5708223.0,3116.0,61,R,5706896,5707212,318,1469.8,460.3,3538,right
37,2,binary,11,1,trial,5705107.0,5708223.0,3116.0,61,R,5707228,5707552,326,1412.6,479.9,3561,right
37,2,binary,11,1,trial,5705107.0,5708223.0,3116.0,61,R,5707632,5708024,394,364.6,503.8,3709,left
37,2,binary,11,1,postResponse,5705107.0,5708223.0,3116.0,61,R,5708044,5708558,516,432.5,506.6,3410,left
37,2,binary,12,1,fixationCross,5709357.0,5711956.0,2599.0,62,R,5708660,5708702,44,438.3,511.1,3553,left
37,2,binary,12,1,fixationCross,5709357.0,5711956.0,2599.0,62,R,5708736,5708912,178,638.0,576.1,3731,left
37,2,binary,12,1,fixationCross,5709357.0,5711956.0,2599.0,62,R,5708932,5708968,38,707.9,547.9,3903,left
37,2,binary,12,1,fixationCross,5709357.0,5711956.0,2599.0,62,R,5709006,5709096,92,981.2,615.2,3859,NA
37,2,binary,12,1,trial,5709357.0,5711956.0,2599.0,62,R,5709252,5709614,364,946.8,537.6,4242,NA
37,2,binary,12,1,trial,5709357.0,5711956.0,2599.0,62,R,5709662,5709860,200,484.5,521.4,4089,left
37,2,binary,12,1,trial,5709357.0,5711956.0,2599.0,62,R,5709888,5710180,294,309.7,550.6,3626,left
37,2,binary,12,1,trial,5709357.0,5711956.0,2599.0,62,R,5710238,5710368,132,816.8,822.3,3491,likertHorizontal
37,2,binary,12,1,trial,5709357.0,5711956.0,2599.0,62,R,5710434,5710848,416,1349.7,544.6,3623,right
37,2,binary,12,1,trial,5709357.0,5711956.0,2599.0,62,R,5710926,5711122,198,390.7,535.3,3607,left
37,2,binary,12,1,trial,5709357.0,5711956.0,2599.0,62,R,5711142,5711904,764,283.7,550.2,3486,left
37,2,binary,12,1,postResponse,5709357.0,5711956.0,2599.0,62,R,5711992,5712292,302,1432.9,581.6,3510,right
37,2,binary,13,1,fixationCross,5712923.0,5716924.0,4001.0,63,R,5712392,5712462,72,1417.4,582.2,3559,right
37,2,binary,13,1,fixationCross,5712923.0,5716924.0,4001.0,63,R,5712518,5712672,156,919.3,471.4,3825,NA
37,2,binary,13,1,trial,5712923.0,5716924.0,4001.0,63,R,5712830,5713170,342,935.0,516.3,4088,NA
37,2,binary,13,1,trial,5712923.0,5716924.0,4001.0,63,R,5713216,5713552,338,554.7,518.0,3847,left
37,2,binary,13,1,trial,5712923.0,5716924.0,4001.0,63,R,5713618,5714076,460,1365.0,461.1,3360,right
37,2,binary,13,1,trial,5712923.0,5716924.0,4001.0,63,R,5714148,5714482,336,495.2,540.7,3406,left
37,2,binary,13,1,trial,5712923.0,5716924.0,4001.0,63,R,5714560,5714848,290,1434.3,488.9,3397,right
37,2,binary,13,1,trial,5712923.0,5716924.0,4001.0,63,R,5714872,5715984,1114,1314.2,552.4,3748,right
37,2,binary,13,1,trial,5712923.0,5716924.0,4001.0,63,R,5716006,5716182,178,1400.8,514.3,3922,right
37,2,binary,13,1,trial,5712923.0,5716924.0,4001.0,63,R,5716256,5716642,388,471.5,606.4,3848,left
37,2,binary,13,1,postResponse,5712923.0,5716924.0,4001.0,63,R,5716690,5717270,582,450.5,964.7,3655,NA
37,2,binary,14,1,fixationCross,5717823.0,5719690.0,1867.0,64,R,5717356,5717708,354,971.0,545.7,3862,NA
37,2,binary,14,1,trial,5717823.0,5719690.0,1867.0,64,R,5717728,5717976,250,918.5,554.0,4146,NA
37,2,binary,14,1,trial,5717823.0,5719690.0,1867.0,64,R,5718024,5718460,438,482.6,552.3,3921,left
37,2,binary,14,1,trial,5717823.0,5719690.0,1867.0,64,R,5718526,5718730,206,1330.4,507.7,3432,right
37,2,binary,14,1,trial,5717823.0,5719690.0,1867.0,64,R,5718778,5718868,92,1027.3,796.8,3380,likertHorizontal
37,2,binary,14,1,trial,5717823.0,5719690.0,1867.0,64,R,5718894,5719120,228,910.3,928.5,3356,likertHorizontal
37,2,binary,14,1,trial,5717823.0,5719690.0,1867.0,64,R,5719168,5719438,272,482.9,962.8,3639,NA
37,2,binary,14,1,trial,5717823.0,5719690.0,1867.0,64,R,5719452,5719596,146,457.5,981.8,3827,NA
37,2,binary,14,1,postResponse,5717823.0,5719690.0,1867.0,64,R,5719648,5720024,378,454.4,592.4,3801,left
37,2,binary,15,2,fixationCross,5720807.0,5723341.0,2534.0,65,R,5720144,5720150,8,605.3,550.8,3735,left
37,2,binary,15,2,fixationCross,5720807.0,5723341.0,2534.0,65,R,5720166,5720476,312,695.5,519.3,3803,left
37,2,binary,15,2,fixationCross,5720807.0,5723341.0,2534.0,65,R,5720506,5720646,142,883.8,529.1,4020,NA
37,2,binary,15,2,trial,5720807.0,5723341.0,2534.0,65,R,5720660,5720978,320,930.3,539.2,4159,NA
37,2,binary,15,2,trial,5720807.0,5723341.0,2534.0,65,R,5721022,5721248,228,575.2,527.7,4085,left
37,2,binary,15,2,trial,5720807.0,5723341.0,2534.0,65,R,5721270,5721404,136,517.4,540.0,3568,left
37,2,binary,15,2,trial,5720807.0,5723341.0,2534.0,65,R,5721476,5721836,362,1443.7,525.5,3189,right
37,2,binary,15,2,trial,5720807.0,5723341.0,2534.0,65,R,5721862,5722110,250,1293.5,423.9,3052,right
37,2,binary,15,2,trial,5720807.0,5723341.0,2534.0,65,R,5722136,5722556,422,1453.3,483.4,2971,right
37,2,binary,15,2,trial,5720807.0,5723341.0,2534.0,65,R,5722578,5723104,528,1342.8,510.7,3119,right
37,2,binary,15,2,trial,5720807.0,5723341.0,2534.0,65,R,5723126,5723588,464,1444.5,512.0,3189,right
37,2,binary,16,1,fixationCross,5724407.0,5726190.0,1783.0,66,R,5723826,5724090,266,783.2,508.1,3450,NA
37,2,binary,16,1,trial,5724407.0,5726190.0,1783.0,66,R,5724116,5724578,464,922.7,523.1,3775,NA
