participantNo,block,task,blockTrial,response,trialStage,trialStartTime,trialFinishTime,rt,trial,eye,fixStart,fixEnd,fixLength,fixPosX,fixPosY,dilation,aoi
54,1,binary,1,1,fixationCross,1082825.0,1094359.0,11534.0,1,R,1082157,1082569,414,978.4,477.3,3719,NA
54,1,binary,1,1,trial,1082825.0,1094359.0,11534.0,1,R,1082589,1083081,494,960.3,544.0,3734,NA
54,1,binary,1,1,trial,1082825.0,1094359.0,11534.0,1,R,1083127,1083369,244,596.7,510.6,3637,left
54,1,binary,1,1,trial,1082825.0,1094359.0,11534.0,1,R,1083419,1083663,246,499.4,973.4,3385,NA
54,1,binary,1,1,trial,1082825.0,1094359.0,11534.0,1,R,1083717,1083899,184,578.6,516.3,3289,left
54,1,binary,1,1,trial,1082825.0,1094359.0,11534.0,1,R,1083957,1084119,164,1426.1,502.6,3156,right
54,1,binary,1,1,trial,1082825.0,1094359.0,11534.0,1,R,1084139,1084365,228,1364.6,547.4,3215,right
54,1,binary,1,1,trial,1082825.0,1094359.0,11534.0,1,R,1084421,1084585,166,578.5,514.0,3461,left
54,1,binary,1,1,trial,1082825.0,1094359.0,11534.0,1,R,1084603,1084827,226,632.1,477.6,3383,left
54,1,binary,1,1,trial,1082825.0,1094359.0,11534.0,1,R,1084885,1084997,114,533.7,979.8,3334,NA
54,1,binary,1,1,trial,1082825.0,1094359.0,11534.0,1,R,1085019,1085103,86,439.7,1005.6,3339,NA
54,1,binary,1,1,trial,1082825.0,1094359.0,11534.0,1,R,1085149,1085333,186,967.2,969.4,3342,likertHorizontal
54,1,binary,1,1,trial,1082825.0,1094359.0,11534.0,1,R,1085387,1085595,210,1457.7,1012.3,3304,NA
54,1,binary,1,1,trial,1082825.0,1094359.0,11534.0,1,R,1085649,1085819,172,936.6,937.3,3544,likertHorizontal
54,1,binary,1,1,trial,1082825.0,1094359.0,11534.0,1,R,1085867,1086119,254,934.5,939.1,3667,likertHorizontal
54,1,binary,1,1,trial,1082825.0,1094359.0,11534.0,1,R,1086173,1086435,264,444.2,894.1,3870,NA
54,1,binary,1,1,trial,1082825.0,1094359.0,11534.0,1,R,1086489,1086785,298,600.2,538.5,3817,left
54,1,binary,1,1,trial,1082825.0,1094359.0,11534.0,1,R,1086807,1087061,256,627.8,470.7,3682,left
54,1,binary,1,1,trial,1082825.0,1094359.0,11534.0,1,R,1087071,1087575,506,629.7,494.7,3678,left
54,1,binary,1,1,trial,1082825.0,1094359.0,11534.0,1,R,1087591,1087813,224,572.5,495.0,3711,left
54,1,binary,1,1,trial,1082825.0,1094359.0,11534.0,1,R,1087831,1088071,242,635.5,491.7,3647,left
54,1,binary,1,1,trial,1082825.0,1094359.0,11534.0,1,R,1088141,1088381,242,1475.3,559.3,3430,right
54,1,binary,1,1,trial,1082825.0,1094359.0,11534.0,1,R,1088439,1088767,330,596.7,497.0,3539,left
54,1,binary,1,1,trial,1082825.0,1094359.0,11534.0,1,R,1088781,1088963,184,634.0,467.5,3480,left
54,1,binary,1,1,trial,1082825.0,1094359.0,11534.0,1,R,1089027,1089229,204,1373.7,530.6,3401,right
54,1,binary,1,1,trial,1082825.0,1094359.0,11534.0,1,R,1089245,1089505,262,1366.9,573.1,3460,right
54,1,binary,1,1,trial,1082825.0,1094359.0,11534.0,1,R,1089517,1089925,410,1335.9,557.7,3467,right
54,1,binary,1,1,trial,1082825.0,1094359.0,11534.0,1,R,1090199,1090357,160,559.8,528.5,3369,left
54,1,binary,1,1,trial,1082825.0,1094359.0,11534.0,1,R,1090379,1090787,410,636.5,480.9,3334,left
54,1,binary,1,1,trial,1082825.0,1094359.0,11534.0,1,R,1090833,1091407,576,342.3,575.1,3280,left
54,1,binary,1,1,trial,1082825.0,1094359.0,11534.0,1,R,1091451,1091669,220,486.0,961.4,3290,NA
54,1,binary,1,1,trial,1082825.0,1094359.0,11534.0,1,R,1091721,1092189,470,465.7,563.2,3365,left
54,1,binary,1,1,trial,1082825.0,1094359.0,11534.0,1,R,1092211,1092589,380,360.9,530.1,3543,left
54,1,binary,1,1,trial,1082825.0,1094359.0,11534.0,1,R,1092617,1092765,150,541.0,477.7,3644,left
54,1,binary,1,1,trial,1082825.0,1094359.0,11534.0,1,R,1092851,1093057,208,1686.4,493.0,3495,right
54,1,binary,1,1,trial,1082825.0,1094359.0,11534.0,1,R,1093129,1093393,266,550.8,574.1,3666,left
54,1,binary,1,1,trial,1082825.0,1094359.0,11534.0,1,R,1093437,1093619,184,491.9,928.4,3678,NA
54,1,binary,1,1,trial,1082825.0,1094359.0,11534.0,1,R,1093641,1093935,296,484.8,985.6,3734,NA
54,1,binary,1,1,trial,1082825.0,1094359.0,11534.0,1,R,1093991,1094403,414,628.6,549.9,3886,left
54,1,binary,1,1,postResponse,1082825.0,1094359.0,11534.0,1,R,1094423,1094719,298,651.3,629.0,4384,left
54,1,binary,2,1,fixationCross,1096775.0,1107059.0,10284.0,2,R,1096631,1096711,82,950.6,591.0,4439,NA
54,1,binary,2,1,trial,1096775.0,1107059.0,10284.0,2,R,1097193,1097331,140,502.7,532.0,4059,left
54,1,binary,2,1,trial,1096775.0,1107059.0,10284.0,2,R,1097347,1097477,132,510.5,562.6,3768,left
54,1,binary,2,1,trial,1096775.0,1107059.0,10284.0,2,R,1097537,1098037,502,1422.6,575.9,3268,right
54,1,binary,2,1,trial,1096775.0,1107059.0,10284.0,2,R,1098087,1098129,44,1423.1,997.8,3256,NA
54,1,binary,2,1,trial,1096775.0,1107059.0,10284.0,2,R,1098197,1098287,92,1422.4,995.0,3296,NA
54,1,binary,2,1,trial,1096775.0,1107059.0,10284.0,2,R,1098331,1098461,132,1468.7,590.3,3269,right
54,1,binary,2,1,trial,1096775.0,1107059.0,10284.0,2,R,1098521,1098885,366,534.5,530.8,3479,left
54,1,binary,2,1,trial,1096775.0,1107059.0,10284.0,2,R,1098949,1099203,256,1465.8,561.7,3244,right
54,1,binary,2,1,trial,1096775.0,1107059.0,10284.0,2,R,1099229,1099619,392,1389.7,441.6,3154,right
54,1,binary,2,1,trial,1096775.0,1107059.0,10284.0,2,R,1099649,1099923,276,1541.3,618.8,3104,right
54,1,binary,2,1,trial,1096775.0,1107059.0,10284.0,2,R,1099943,1100143,202,1423.5,602.7,3143,right
54,1,binary,2,1,trial,1096775.0,1107059.0,10284.0,2,R,1100205,1100435,232,447.4,546.7,3354,left
54,1,binary,2,1,trial,1096775.0,1107059.0,10284.0,2,R,1100461,1100823,364,632.7,596.2,3246,left
54,1,binary,2,1,trial,1096775.0,1107059.0,10284.0,2,R,1100881,1101291,412,1451.8,553.6,3045,right
54,1,binary,2,1,trial,1096775.0,1107059.0,10284.0,2,R,1101309,1101829,522,1397.2,592.7,3339,right
54,1,binary,2,1,trial,1096775.0,1107059.0,10284.0,2,R,1101847,1102199,354,1461.0,590.5,3502,right
54,1,binary,2,1,trial,1096775.0,1107059.0,10284.0,2,R,1102215,1102591,378,1505.1,617.3,3502,right
54,1,binary,2,1,trial,1096775.0,1107059.0,10284.0,2,R,1102621,1103051,432,1385.9,465.8,3426,right
54,1,binary,2,1,trial,1096775.0,1107059.0,10284.0,2,R,1103115,1103339,226,463.9,537.3,3377,left
54,1,binary,2,1,trial,1096775.0,1107059.0,10284.0,2,R,1103365,1103665,302,616.9,559.8,3277,left
54,1,binary,2,1,trial,1096775.0,1107059.0,10284.0,2,R,1103683,1103957,276,553.7,555.3,3210,left
54,1,binary,2,1,trial,1096775.0,1107059.0,10284.0,2,R,1103969,1104973,1006,517.0,537.0,3175,left
54,1,binary,2,1,trial,1096775.0,1107059.0,10284.0,2,R,1104993,1105189,198,395.7,510.7,3146,left
54,1,binary,2,1,trial,1096775.0,1107059.0,10284.0,2,R,1105233,1105455,224,467.7,937.8,3202,NA
54,1,binary,2,1,trial,1096775.0,1107059.0,10284.0,2,R,1105499,1106127,630,429.6,597.9,3279,left
54,1,binary,2,1,trial,1096775.0,1107059.0,10284.0,2,R,1106151,1106381,232,529.6,510.8,3366,left
54,1,binary,2,1,trial,1096775.0,1107059.0,10284.0,2,R,1106403,1106687,286,396.6,471.2,3333,left
54,1,binary,2,1,trial,1096775.0,1107059.0,10284.0,2,R,1106713,1106869,158,584.8,492.5,3229,left
54,1,binary,2,1,trial,1096775.0,1107059.0,10284.0,2,R,1106889,1107309,422,535.0,557.3,3180,left
54,1,binary,2,1,postResponse,1096775.0,1107059.0,10284.0,2,R,1107343,1107407,66,521.4,358.0,3195,left
54,1,binary,3,1,fixationCross,1108192.0,1116142.0,7950.0,3,R,1107483,1107603,122,515.7,358.9,3229,left
54,1,binary,3,1,fixationCross,1108192.0,1116142.0,7950.0,3,R,1107655,1107853,200,967.2,415.4,3270,NA
54,1,binary,3,1,fixationCross,1108192.0,1116142.0,7950.0,3,R,1107877,1108091,216,962.1,524.6,3367,NA
54,1,binary,3,1,trial,1108192.0,1116142.0,7950.0,3,R,1108099,1108373,276,955.2,552.9,3529,NA
54,1,binary,3,1,trial,1108192.0,1116142.0,7950.0,3,R,1108417,1108667,252,512.5,514.7,3609,left
54,1,binary,3,1,trial,1108192.0,1116142.0,7950.0,3,R,1108689,1108781,94,466.3,428.9,3337,left
54,1,binary,3,1,trial,1108192.0,1116142.0,7950.0,3,R,1108841,1108905,66,460.7,423.2,3238,left
54,1,binary,3,1,trial,1108192.0,1116142.0,7950.0,3,R,1108971,1109313,344,1532.0,550.8,3030,right
54,1,binary,3,1,trial,1108192.0,1116142.0,7950.0,3,R,1109323,1109635,314,1503.1,526.0,3000,right
54,1,binary,3,1,trial,1108192.0,1116142.0,7950.0,3,R,1109701,1109949,250,483.9,443.7,3114,left
54,1,binary,3,1,trial,1108192.0,1116142.0,7950.0,3,R,1109963,1110155,194,479.9,421.9,3115,left
54,1,binary,3,1,trial,1108192.0,1116142.0,7950.0,3,R,1110193,1110221,30,460.1,425.0,3156,left
54,1,binary,3,1,trial,1108192.0,1116142.0,7950.0,3,R,1110243,1110513,272,436.0,424.7,3186,left
54,1,binary,3,1,trial,1108192.0,1116142.0,7950.0,3,R,1110673,1110865,194,1559.4,536.3,3108,right
54,1,binary,3,1,trial,1108192.0,1116142.0,7950.0,3,R,1110877,1111219,344,1515.3,522.7,3065,right
54,1,binary,3,1,trial,1108192.0,1116142.0,7950.0,3,R,1111229,1111797,570,1482.2,518.1,2972,right
54,1,binary,3,1,trial,1108192.0,1116142.0,7950.0,3,R,1111857,1112053,198,575.0,457.0,3171,left
54,1,binary,3,1,trial,1108192.0,1116142.0,7950.0,3,R,1112071,1112293,224,504.1,433.8,3297,left
54,1,binary,3,1,trial,1108192.0,1116142.0,7950.0,3,R,1112305,1112415,112,466.0,418.3,3335,left
54,1,binary,3,1,trial,1108192.0,1116142.0,7950.0,3,R,1112459,1112545,88,465.6,418.4,3317,left
54,1,binary,3,1,trial,1108192.0,1116142.0,7950.0,3,R,1112653,1112819,168,1481.9,493.2,3166,right
54,1,binary,3,1,trial,1108192.0,1116142.0,7950.0,3,R,1112829,1113235,408,1485.1,518.7,3130,right
54,1,binary,3,1,trial,1108192.0,1116142.0,7950.0,3,R,1113301,1113485,186,484.2,557.0,3299,left
54,1,binary,3,1,trial,1108192.0,1116142.0,7950.0,3,R,1113541,1113967,428,466.4,1014.5,3405,NA
54,1,binary,3,1,trial,1108192.0,1116142.0,7950.0,3,R,1114035,1114081,48,483.7,447.4,3446,left
54,1,binary,3,1,trial,1108192.0,1116142.0,7950.0,3,R,1114137,1114243,108,481.5,444.8,3428,left
54,1,binary,3,1,trial,1108192.0,1116142.0,7950.0,3,R,1114257,1114597,342,479.5,416.3,3365,left
54,1,binary,3,1,trial,1108192.0,1116142.0,7950.0,3,R,1114611,1114855,246,436.8,425.4,3368,left
54,1,binary,3,1,trial,1108192.0,1116142.0,7950.0,3,R,1114865,1115157,294,463.7,423.5,3396,left
54,1,binary,3,1,trial,1108192.0,1116142.0,7950.0,3,R,1115181,1115385,206,461.8,431.1,3435,left
54,1,binary,3,1,trial,1108192.0,1116142.0,7950.0,3,R,1115395,1115951,558,477.4,425.8,3511,left
54,1,binary,3,1,trial,1108192.0,1116142.0,7950.0,3,R,1115971,1116451,482,547.5,451.7,3475,left
54,1,binary,4,2,fixationCross,1117309.0,1120742.0,3433.0,4,R,1116579,1116739,162,846.4,372.1,3411,NA
54,1,binary,4,2,fixationCross,1117309.0,1120742.0,3433.0,4,R,1116777,1116985,210,1043.3,349.1,3498,NA
54,1,binary,4,2,trial,1117309.0,1120742.0,3433.0,4,R,1117015,1117463,450,955.1,546.1,3772,NA
54,1,binary,4,2,trial,1117309.0,1120742.0,3433.0,4,R,1117509,1117777,270,558.6,498.5,3813,left
54,1,binary,4,2,trial,1117309.0,1120742.0,3433.0,4,R,1117835,1118119,286,1402.3,479.5,3072,right
54,1,binary,4,2,trial,1117309.0,1120742.0,3433.0,4,R,1118139,1118339,202,1458.4,519.0,2912,right
54,1,binary,4,2,trial,1117309.0,1120742.0,3433.0,4,R,1118363,1118545,184,1295.1,489.3,2905,right
54,1,binary,4,2,trial,1117309.0,1120742.0,3433.0,4,R,1118601,1118763,164,560.5,468.7,2999,left
54,1,binary,4,2,trial,1117309.0,1120742.0,3433.0,4,R,1118789,1119001,214,370.1,461.8,3043,left
54,1,binary,4,2,trial,1117309.0,1120742.0,3433.0,4,R,1119011,1119269,260,330.0,471.5,3158,left
54,1,binary,4,2,trial,1117309.0,1120742.0,3433.0,4,R,1119341,1119585,246,1380.9,449.4,3123,right
54,1,binary,4,2,trial,1117309.0,1120742.0,3433.0,4,R,1119601,1119925,326,1398.0,488.6,3188,right
54,1,binary,4,2,trial,1117309.0,1120742.0,3433.0,4,R,1119945,1120199,256,1483.1,498.4,3190,right
54,1,binary,4,2,trial,1117309.0,1120742.0,3433.0,4,R,1120223,1120405,184,1522.8,567.8,3169,right
54,1,binary,4,2,postResponse,1117309.0,1120742.0,3433.0,4,R,1120443,1121101,660,1345.2,489.4,3115,right
54,1,binary,5,1,fixationCross,1121725.0,1127942.0,6217.0,5,R,1121203,1121291,90,1337.1,489.7,3116,right
54,1,binary,5,1,fixationCross,1121725.0,1127942.0,6217.0,5,R,1121343,1121567,226,887.0,513.4,3384,NA
54,1,binary,5,1,trial,1121725.0,1127942.0,6217.0,5,R,1121589,1121813,226,961.6,546.9,3558,NA
54,1,binary,5,1,trial,1121725.0,1127942.0,6217.0,5,R,1121939,1122107,170,1339.7,486.7,3529,right
54,1,binary,5,1,trial,1121725.0,1127942.0,6217.0,5,R,1122129,1122287,160,1454.7,515.3,3200,right
54,1,binary,5,1,trial,1121725.0,1127942.0,6217.0,5,R,1122357,1122675,320,453.0,453.5,3107,left
54,1,binary,5,1,trial,1121725.0,1127942.0,6217.0,5,R,1122691,1123183,494,408.2,470.2,2966,left
54,1,binary,5,1,trial,1121725.0,1127942.0,6217.0,5,R,1123201,1123405,206,487.0,487.9,2843,left
54,1,binary,5,1,trial,1121725.0,1127942.0,6217.0,5,R,1123467,1123627,162,1476.9,496.6,2714,right
54,1,binary,5,1,trial,1121725.0,1127942.0,6217.0,5,R,1123661,1123703,44,1477.7,498.6,2695,right
54,1,binary,5,1,trial,1121725.0,1127942.0,6217.0,5,R,1123999,1124091,94,494.3,442.8,2914,left
54,1,binary,5,1,trial,1121725.0,1127942.0,6217.0,5,R,1124175,1124251,78,418.4,452.9,2966,left
54,1,binary,5,1,trial,1121725.0,1127942.0,6217.0,5,R,1124341,1124363,24,417.6,451.6,2990,left
54,1,binary,5,1,trial,1121725.0,1127942.0,6217.0,5,R,1124385,1124547,164,416.4,454.3,2990,left
54,1,binary,5,1,trial,1121725.0,1127942.0,6217.0,5,R,1124595,1124621,28,417.2,455.4,2968,left
54,1,binary,5,1,trial,1121725.0,1127942.0,6217.0,5,R,1124631,1125481,852,390.1,463.4,2953,left
54,1,binary,5,1,trial,1121725.0,1127942.0,6217.0,5,R,1125505,1125869,366,393.9,474.7,3117,left
54,1,binary,5,1,trial,1121725.0,1127942.0,6217.0,5,R,1125917,1126047,132,388.6,454.4,3234,left
54,1,binary,5,1,trial,1121725.0,1127942.0,6217.0,5,R,1126111,1126707,598,1398.7,482.5,3219,right
54,1,binary,5,1,trial,1121725.0,1127942.0,6217.0,5,R,1126767,1127275,510,453.3,468.6,3240,left
54,1,binary,5,1,trial,1121725.0,1127942.0,6217.0,5,R,1127293,1127789,498,421.6,490.9,3177,left
54,1,binary,5,1,trial,1121725.0,1127942.0,6217.0,5,R,1127893,1128183,292,527.0,481.8,3195,left
54,1,binary,5,1,postResponse,1121725.0,1127942.0,6217.0,5,R,1128229,1128283,56,907.6,357.0,3192,NA
54,1,binary,6,2,fixationCross,1128942.0,1135425.0,6483.0,6,R,1128383,1128531,150,900.6,359.5,3322,NA
54,1,binary,6,2,fixationCross,1128942.0,1135425.0,6483.0,6,R,1128565,1128595,32,979.0,483.3,3403,NA
54,1,binary,6,2,fixationCross,1128942.0,1135425.0,6483.0,6,R,1128695,1128751,58,975.8,490.5,3495,NA
54,1,binary,6,2,trial,1128942.0,1135425.0,6483.0,6,R,1128769,1129093,326,956.2,543.5,3618,NA
54,1,binary,6,2,trial,1128942.0,1135425.0,6483.0,6,R,1129135,1129385,252,518.9,484.9,3754,left
54,1,binary,6,2,trial,1128942.0,1135425.0,6483.0,6,R,1129443,1129471,30,1395.4,489.2,3373,right
54,1,binary,6,2,trial,1128942.0,1135425.0,6483.0,6,R,1129513,1129553,42,1389.7,495.9,3268,right
54,1,binary,6,2,trial,1128942.0,1135425.0,6483.0,6,R,1129575,1129665,92,1390.0,500.0,3194,right
54,1,binary,6,2,trial,1128942.0,1135425.0,6483.0,6,R,1129689,1129715,28,1392.2,502.6,3152,right
54,1,binary,6,2,trial,1128942.0,1135425.0,6483.0,6,R,1129733,1130235,504,1381.2,424.3,3134,right
54,1,binary,6,2,trial,1128942.0,1135425.0,6483.0,6,R,1130247,1130357,112,1367.2,401.0,3144,right
54,1,binary,6,2,trial,1128942.0,1135425.0,6483.0,6,R,1130417,1130749,334,511.6,478.5,3344,left
54,1,binary,6,2,trial,1128942.0,1135425.0,6483.0,6,R,1130817,1131053,238,1389.6,468.6,3200,right
54,1,binary,6,2,trial,1128942.0,1135425.0,6483.0,6,R,1131067,1131949,884,1373.3,435.2,3163,right
54,1,binary,6,2,trial,1128942.0,1135425.0,6483.0,6,R,1131967,1132083,118,1414.9,489.2,3352,right
54,1,binary,6,2,trial,1128942.0,1135425.0,6483.0,6,R,1132295,1132655,362,1402.0,541.0,3543,right
54,1,binary,6,2,trial,1128942.0,1135425.0,6483.0,6,R,1132681,1133071,392,1356.3,684.5,3492,right
54,1,binary,6,2,trial,1128942.0,1135425.0,6483.0,6,R,1133095,1133479,386,1497.7,691.8,3256,right
54,1,binary,6,2,trial,1128942.0,1135425.0,6483.0,6,R,1133549,1133713,166,449.9,513.3,3448,left
54,1,binary,6,2,trial,1128942.0,1135425.0,6483.0,6,R,1133735,1134039,306,499.1,425.1,3448,left
54,1,binary,6,2,trial,1128942.0,1135425.0,6483.0,6,R,1134053,1134319,268,523.4,380.3,3291,left
54,1,binary,6,2,trial,1128942.0,1135425.0,6483.0,6,R,1134521,1134681,162,1387.0,466.6,3055,right
54,1,binary,6,2,trial,1128942.0,1135425.0,6483.0,6,R,1134699,1134993,296,1360.4,405.8,3160,right
54,1,binary,6,2,trial,1128942.0,1135425.0,6483.0,6,R,1135045,1135259,216,1461.7,919.9,3330,NA
54,1,binary,6,2,trial,1128942.0,1135425.0,6483.0,6,R,1135315,1135685,372,1361.4,489.5,3396,right
54,1,binary,7,2,fixationCross,1136508.0,1142892.0,6384.0,7,R,1135859,1136193,336,662.8,375.3,3694,left
54,1,binary,7,2,trial,1136508.0,1142892.0,6384.0,7,R,1136227,1136647,422,948.8,550.6,3822,NA
54,1,binary,7,2,trial,1136508.0,1142892.0,6384.0,7,R,1136685,1136921,238,547.2,477.3,3908,left
54,1,binary,7,2,trial,1136508.0,1142892.0,6384.0,7,R,1136935,1137033,100,524.1,455.1,3706,left
54,1,binary,7,2,trial,1136508.0,1142892.0,6384.0,7,R,1137093,1137437,346,1447.2,511.7,3259,right
54,1,binary,7,2,trial,1136508.0,1142892.0,6384.0,7,R,1137457,1137801,346,1385.4,567.4,3292,right
54,1,binary,7,2,trial,1136508.0,1142892.0,6384.0,7,R,1137857,1138001,146,626.7,471.1,3547,left
54,1,binary,7,2,trial,1136508.0,1142892.0,6384.0,7,R,1138021,1138373,354,529.7,464.6,3508,left
54,1,binary,7,2,trial,1136508.0,1142892.0,6384.0,7,R,1138385,1138693,310,504.2,463.8,3331,left
54,1,binary,7,2,trial,1136508.0,1142892.0,6384.0,7,R,1138759,1139223,466,1474.2,482.5,3116,right
54,1,binary,7,2,trial,1136508.0,1142892.0,6384.0,7,R,1139239,1139659,422,1407.2,509.2,3273,right
54,1,binary,7,2,trial,1136508.0,1142892.0,6384.0,7,R,1139675,1140153,480,1341.3,545.2,3423,right
54,1,binary,7,2,trial,1136508.0,1142892.0,6384.0,7,R,1141039,1141429,392,1348.6,563.4,3643,right
54,1,binary,7,2,trial,1136508.0,1142892.0,6384.0,7,R,1141455,1141635,182,1456.3,432.5,3491,right
54,1,binary,7,2,trial,1136508.0,1142892.0,6384.0,7,R,1141657,1141957,302,1367.4,479.9,3459,right
54,1,binary,7,2,trial,1136508.0,1142892.0,6384.0,7,R,1141993,1142271,280,1354.7,582.6,3538,right
54,1,binary,7,2,trial,1136508.0,1142892.0,6384.0,7,R,1142291,1142619,330,1398.4,643.9,3611,right
54,1,binary,7,2,trial,1136508.0,1142892.0,6384.0,7,R,1142657,1143129,474,1484.0,467.0,3648,right
54,1,binary,7,2,postResponse,1136508.0,1142892.0,6384.0,7,R,1143181,1143229,50,893.3,456.9,3843,NA
54,1,binary,8,2,fixationCross,1143976.0,1156225.0,12249.0,8,R,1143303,1143661,360,886.0,457.2,3826,NA
54,1,binary,8,2,trial,1143976.0,1156225.0,12249.0,8,R,1143685,1144151,468,944.5,557.6,3890,NA
54,1,binary,8,2,trial,1143976.0,1156225.0,12249.0,8,R,1144195,1144553,360,563.5,529.6,3757,left
54,1,binary,8,2,trial,1143976.0,1156225.0,12249.0,8,R,1144613,1144979,368,1443.1,603.8,3040,right
54,1,binary,8,2,trial,1143976.0,1156225.0,12249.0,8,R,1145039,1145343,306,496.6,527.7,3077,left
54,1,binary,8,2,trial,1143976.0,1156225.0,12249.0,8,R,1145367,1145795,430,413.1,444.4,2986,left
54,1,binary,8,2,trial,1143976.0,1156225.0,12249.0,8,R,1145819,1146097,280,562.0,485.2,2978,left
54,1,binary,8,2,trial,1143976.0,1156225.0,12249.0,8,R,1146131,1146359,230,266.5,474.5,3024,left
54,1,binary,8,2,trial,1143976.0,1156225.0,12249.0,8,R,1146435,1146707,274,1392.4,553.8,2942,right
54,1,binary,8,2,trial,1143976.0,1156225.0,12249.0,8,R,1146731,1146985,256,1369.6,656.0,2962,right
54,1,binary,8,2,trial,1143976.0,1156225.0,12249.0,8,R,1147009,1147343,336,1488.0,617.4,2969,right
54,1,binary,8,2,trial,1143976.0,1156225.0,12249.0,8,R,1147363,1148183,822,1435.6,546.7,3014,right
54,1,binary,8,2,trial,1143976.0,1156225.0,12249.0,8,R,1148241,1148705,466,527.7,498.8,3139,left
54,1,binary,8,2,trial,1143976.0,1156225.0,12249.0,8,R,1148721,1149029,310,453.3,490.2,3083,left
54,1,binary,8,2,trial,1143976.0,1156225.0,12249.0,8,R,1149047,1149307,262,379.4,522.2,3131,left
54,1,binary,8,2,trial,1143976.0,1156225.0,12249.0,8,R,1149333,1149829,498,526.2,507.7,3251,left
54,1,binary,8,2,trial,1143976.0,1156225.0,12249.0,8,R,1149845,1150055,212,457.4,503.2,3323,left
54,1,binary,8,2,trial,1143976.0,1156225.0,12249.0,8,R,1150083,1150561,480,254.3,472.8,3256,left
54,1,binary,8,2,trial,1143976.0,1156225.0,12249.0,8,R,1150573,1150781,210,209.6,463.5,3139,NA
54,1,binary,8,2,trial,1143976.0,1156225.0,12249.0,8,R,1150825,1151023,200,433.6,591.2,3178,left
54,1,binary,8,2,trial,1143976.0,1156225.0,12249.0,8,R,1151083,1151267,186,485.4,975.9,3248,NA
54,1,binary,8,2,trial,1143976.0,1156225.0,12249.0,8,R,1151323,1151533,212,492.7,490.0,3230,left
54,1,binary,8,2,trial,1143976.0,1156225.0,12249.0,8,R,1151595,1151807,214,1430.9,567.0,3101,right
54,1,binary,8,2,trial,1143976.0,1156225.0,12249.0,8,R,1151865,1152167,304,489.3,467.4,3145,left
54,1,binary,8,2,trial,1143976.0,1156225.0,12249.0,8,R,1152243,1152693,452,1439.5,560.6,2991,right
54,1,binary,8,2,trial,1143976.0,1156225.0,12249.0,8,R,1152703,1153013,312,1437.1,539.8,3107,right
54,1,binary,8,2,trial,1143976.0,1156225.0,12249.0,8,R,1153073,1153377,306,509.6,477.1,3204,left
54,1,binary,8,2,trial,1143976.0,1156225.0,12249.0,8,R,1153443,1154217,776,1441.5,542.4,3026,right
54,1,binary,8,2,trial,1143976.0,1156225.0,12249.0,8,R,1154231,1154495,266,1357.8,542.9,3149,right
54,1,binary,8,2,trial,1143976.0,1156225.0,12249.0,8,R,1154515,1154751,238,1421.3,577.2,3192,right
54,1,binary,8,2,trial,1143976.0,1156225.0,12249.0,8,R,1154775,1155017,244,1311.8,592.7,3235,right
54,1,binary,8,2,trial,1143976.0,1156225.0,12249.0,8,R,1155039,1155381,344,1423.8,622.2,3197,right
54,1,binary,8,2,trial,1143976.0,1156225.0,12249.0,8,R,1155401,1156027,628,1508.2,609.4,3144,right
54,1,binary,8,2,trial,1143976.0,1156225.0,12249.0,8,R,1156047,1156449,404,1420.1,549.3,3052,right
54,1,binary,8,2,postResponse,1143976.0,1156225.0,12249.0,8,R,1156503,1156559,58,953.8,372.4,3195,NA
54,1,binary,9,2,fixationCross,1157142.0,1163942.0,6800.0,9,R,1156659,1156821,164,945.5,371.5,3258,NA
54,1,binary,9,2,fixationCross,1157142.0,1163942.0,6800.0,9,R,1156847,1157011,166,984.9,493.3,3381,NA
54,1,binary,9,2,trial,1157142.0,1163942.0,6800.0,9,R,1157035,1157195,162,943.4,606.4,3541,NA
54,1,binary,9,2,trial,1157142.0,1163942.0,6800.0,9,R,1157215,1157345,132,953.2,544.1,3641,NA
54,1,binary,9,2,trial,1157142.0,1163942.0,6800.0,9,R,1157387,1157721,336,537.4,512.9,3599,left
54,1,binary,9,2,trial,1157142.0,1163942.0,6800.0,9,R,1157741,1157835,96,454.4,481.6,3320,left
54,1,binary,9,2,trial,1157142.0,1163942.0,6800.0,9,R,1157895,1158185,292,1428.9,517.3,3040,right
54,1,binary,9,2,trial,1157142.0,1163942.0,6800.0,9,R,1158199,1158573,376,1365.6,520.1,3010,right
54,1,binary,9,2,trial,1157142.0,1163942.0,6800.0,9,R,1158593,1158879,288,1450.0,493.3,2888,right
54,1,binary,9,2,trial,1157142.0,1163942.0,6800.0,9,R,1158895,1159369,476,1366.9,482.8,2886,right
54,1,binary,9,2,trial,1157142.0,1163942.0,6800.0,9,R,1159387,1159723,338,1449.6,521.4,2915,right
54,1,binary,9,2,trial,1157142.0,1163942.0,6800.0,9,R,1159737,1160011,276,1397.5,529.2,2958,right
54,1,binary,9,2,trial,1157142.0,1163942.0,6800.0,9,R,1160067,1160213,148,549.4,563.4,3160,left
54,1,binary,9,2,trial,1157142.0,1163942.0,6800.0,9,R,1160277,1160657,382,1486.5,495.2,3008,right
54,1,binary,9,2,trial,1157142.0,1163942.0,6800.0,9,R,1160677,1161107,432,1375.1,464.5,2968,right
54,1,binary,9,2,trial,1157142.0,1163942.0,6800.0,9,R,1161323,1161363,42,1330.6,416.5,2904,right
54,1,binary,9,2,trial,1157142.0,1163942.0,6800.0,9,R,1161517,1161857,342,497.1,546.4,3188,left
54,1,binary,9,2,trial,1157142.0,1163942.0,6800.0,9,R,1161923,1162241,320,1414.6,493.2,3053,right
54,1,binary,9,2,trial,1157142.0,1163942.0,6800.0,9,R,1162263,1162635,374,1353.5,427.3,2973,right
54,1,binary,9,2,trial,1157142.0,1163942.0,6800.0,9,R,1162653,1163167,516,1391.6,512.6,2993,right
54,1,binary,9,2,trial,1157142.0,1163942.0,6800.0,9,R,1163177,1163395,220,1348.7,508.7,3110,right
54,1,binary,9,2,trial,1157142.0,1163942.0,6800.0,9,R,1163419,1163655,238,1476.4,548.1,3177,right
54,1,binary,9,2,trial,1157142.0,1163942.0,6800.0,9,R,1163675,1164255,582,1373.0,508.5,3152,right
54,1,binary,10,2,fixationCross,1164975.0,1174226.0,9251.0,10,R,1164351,1164551,202,1135.5,464.5,3155,NA
54,1,binary,10,2,fixationCross,1164975.0,1174226.0,9251.0,10,R,1164593,1164743,152,841.2,468.8,3349,NA
54,1,binary,10,2,trial,1164975.0,1174226.0,9251.0,10,R,1164771,1165149,380,949.6,554.5,3506,NA
54,1,binary,10,2,trial,1164975.0,1174226.0,9251.0,10,R,1165193,1165399,208,540.9,555.0,3594,left
54,1,binary,10,2,trial,1164975.0,1174226.0,9251.0,10,R,1165459,1165781,324,1408.9,528.0,3055,right
54,1,binary,10,2,trial,1164975.0,1174226.0,9251.0,10,R,1165817,1166079,264,1597.1,496.8,2899,right
54,1,binary,10,2,trial,1164975.0,1174226.0,9251.0,10,R,1166103,1166445,344,1454.7,566.9,2837,right
54,1,binary,10,2,trial,1164975.0,1174226.0,9251.0,10,R,1166465,1166815,352,1489.5,644.1,2824,right
54,1,binary,10,2,trial,1164975.0,1174226.0,9251.0,10,R,1166877,1167113,238,491.4,581.5,2933,left
54,1,binary,10,2,trial,1164975.0,1174226.0,9251.0,10,R,1167127,1167515,390,502.5,537.2,2911,left
54,1,binary,10,2,trial,1164975.0,1174226.0,9251.0,10,R,1167583,1167809,228,1532.6,488.1,2879,right
54,1,binary,10,2,trial,1164975.0,1174226.0,9251.0,10,R,1167829,1168293,466,1434.1,501.7,2952,right
54,1,binary,10,2,trial,1164975.0,1174226.0,9251.0,10,R,1168321,1168647,328,1488.4,661.8,2935,right
54,1,binary,10,2,trial,1164975.0,1174226.0,9251.0,10,R,1168849,1169225,378,1479.7,651.2,3066,right
54,1,binary,10,2,trial,1164975.0,1174226.0,9251.0,10,R,1169243,1169985,744,1464.4,593.1,2972,right
54,1,binary,10,2,trial,1164975.0,1174226.0,9251.0,10,R,1170015,1170269,256,1610.5,486.5,2938,right
54,1,binary,10,2,trial,1164975.0,1174226.0,9251.0,10,R,1170297,1170431,136,1423.5,467.0,2993,right
54,1,binary,10,2,trial,1164975.0,1174226.0,9251.0,10,R,1170829,1171429,602,1374.0,463.2,3214,right
54,1,binary,10,2,trial,1164975.0,1174226.0,9251.0,10,R,1171447,1171719,274,1327.1,504.7,3332,right
54,1,binary,10,2,trial,1164975.0,1174226.0,9251.0,10,R,1171743,1172217,476,1389.4,480.7,3299,right
54,1,binary,10,2,trial,1164975.0,1174226.0,9251.0,10,R,1172233,1172509,278,1337.4,523.3,3420,right
54,1,binary,10,2,trial,1164975.0,1174226.0,9251.0,10,R,1172529,1172985,458,1412.3,548.9,3425,right
54,1,binary,10,2,trial,1164975.0,1174226.0,9251.0,10,R,1172997,1173459,464,1363.5,561.2,3395,right
54,1,binary,10,2,trial,1164975.0,1174226.0,9251.0,10,R,1173477,1174095,620,1422.9,519.3,3300,right
54,1,binary,10,2,trial,1164975.0,1174226.0,9251.0,10,R,1174109,1174447,340,1364.2,516.0,3367,right
54,1,binary,10,2,postResponse,1164975.0,1174226.0,9251.0,10,R,1174505,1174559,56,850.6,379.3,3466,NA
54,1,binary,11,2,fixationCross,1175326.0,1183326.0,8000.0,11,R,1174635,1174661,28,841.1,378.7,3437,NA
54,1,binary,11,2,fixationCross,1175326.0,1183326.0,8000.0,11,R,1174711,1174981,272,517.8,245.4,3479,NA
54,1,binary,11,2,fixationCross,1175326.0,1183326.0,8000.0,11,R,1175029,1175143,116,915.5,472.8,3519,NA
54,1,binary,11,2,trial,1175326.0,1183326.0,8000.0,11,R,1175165,1175479,316,935.3,539.7,3456,NA
54,1,binary,11,2,trial,1175326.0,1183326.0,8000.0,11,R,1175525,1175767,244,483.2,482.4,3515,left
54,1,binary,11,2,trial,1175326.0,1183326.0,8000.0,11,R,1175791,1176235,446,375.9,537.9,3101,left
54,1,binary,11,2,trial,1175326.0,1183326.0,8000.0,11,R,1176301,1176663,364,1506.9,515.9,2804,right
54,1,binary,11,2,trial,1175326.0,1183326.0,8000.0,11,R,1176685,1177053,370,1620.2,490.6,2823,right
54,1,binary,11,2,trial,1175326.0,1183326.0,8000.0,11,R,1177079,1177415,338,1445.4,473.2,2953,right
54,1,binary,11,2,trial,1175326.0,1183326.0,8000.0,11,R,1177435,1177695,262,1550.2,491.6,2985,right
54,1,binary,11,2,trial,1175326.0,1183326.0,8000.0,11,R,1177733,1178169,438,1265.0,457.7,3114,right
54,1,binary,11,2,trial,1175326.0,1183326.0,8000.0,11,R,1178209,1178617,410,1580.0,532.0,3053,right
54,1,binary,11,2,trial,1175326.0,1183326.0,8000.0,11,R,1178643,1179031,390,1550.4,644.0,3066,right
54,1,binary,11,2,trial,1175326.0,1183326.0,8000.0,11,R,1179063,1179245,184,1640.9,498.6,3008,right
54,1,binary,11,2,trial,1175326.0,1183326.0,8000.0,11,R,1179263,1179577,316,1684.9,509.7,2984,right
54,1,binary,11,2,trial,1175326.0,1183326.0,8000.0,11,R,1179651,1180073,424,468.3,544.4,3146,left
54,1,binary,11,2,trial,1175326.0,1183326.0,8000.0,11,R,1180265,1180469,206,1509.2,436.8,2797,right
54,1,binary,11,2,trial,1175326.0,1183326.0,8000.0,11,R,1180493,1180857,366,1383.7,474.3,2916,right
54,1,binary,11,2,trial,1175326.0,1183326.0,8000.0,11,R,1180881,1181159,280,1524.5,503.7,3096,right
54,1,binary,11,2,trial,1175326.0,1183326.0,8000.0,11,R,1181179,1181531,354,1457.9,475.4,3264,right
54,1,binary,11,2,trial,1175326.0,1183326.0,8000.0,11,R,1181591,1181863,274,1363.8,948.3,3304,NA
54,1,binary,11,2,trial,1175326.0,1183326.0,8000.0,11,R,1181917,1182303,388,1452.7,542.4,3321,right
54,1,binary,11,2,trial,1175326.0,1183326.0,8000.0,11,R,1182321,1182563,244,1371.1,579.2,3448,right
54,1,binary,11,2,trial,1175326.0,1183326.0,8000.0,11,R,1182607,1182833,228,1437.7,953.6,3558,NA
54,1,binary,11,2,trial,1175326.0,1183326.0,8000.0,11,R,1182891,1183533,644,1445.5,494.2,3477,right
54,1,binary,11,2,postResponse,1175326.0,1183326.0,8000.0,11,R,1183587,1183659,74,816.5,421.7,3590,NA
54,1,binary,12,2,fixationCross,1184376.0,1189742.0,5366.0,12,R,1183735,1184067,334,813.0,421.9,3638,NA
54,1,binary,12,2,trial,1184376.0,1189742.0,5366.0,12,R,1184095,1184519,426,942.7,534.5,3635,NA
54,1,binary,12,2,trial,1184376.0,1189742.0,5366.0,12,R,1184563,1184883,322,504.1,522.0,3643,left
54,1,binary,12,2,trial,1184376.0,1189742.0,5366.0,12,R,1184905,1185253,350,422.2,511.4,3251,left
54,1,binary,12,2,trial,1184376.0,1189742.0,5366.0,12,R,1185323,1185929,608,1404.8,488.6,2879,right
54,1,binary,12,2,trial,1184376.0,1189742.0,5366.0,12,R,1186083,1186281,200,366.3,491.3,3039,left
54,1,binary,12,2,trial,1184376.0,1189742.0,5366.0,12,R,1186307,1186565,260,491.1,505.5,3045,left
54,1,binary,12,2,trial,1184376.0,1189742.0,5366.0,12,R,1186627,1186951,326,1398.2,499.1,2859,right
54,1,binary,12,2,trial,1184376.0,1189742.0,5366.0,12,R,1186973,1187139,168,1522.3,514.3,2783,right
54,1,binary,12,2,trial,1184376.0,1189742.0,5366.0,12,R,1187201,1187867,668,478.0,502.0,2939,left
54,1,binary,12,2,trial,1184376.0,1189742.0,5366.0,12,R,1187889,1188215,328,447.8,433.8,2888,left
54,1,binary,12,2,trial,1184376.0,1189742.0,5366.0,12,R,1188425,1188509,86,1038.9,419.3,2837,NA
54,1,binary,12,2,trial,1184376.0,1189742.0,5366.0,12,R,1188553,1189937,1386,1456.0,504.3,3085,right
54,1,binary,12,2,postResponse,1184376.0,1189742.0,5366.0,12,R,1189997,1190077,82,817.6,363.5,3219,NA
54,1,binary,13,2,fixationCross,1190826.0,1195076.0,4250.0,13,R,1190177,1190241,66,812.7,365.3,3271,NA
54,1,binary,13,2,fixationCross,1190826.0,1195076.0,4250.0,13,R,1190265,1190519,256,991.1,422.1,3325,NA
54,1,binary,13,2,trial,1190826.0,1195076.0,4250.0,13,R,1190545,1190969,426,960.3,536.7,3502,NA
54,1,binary,13,2,trial,1190826.0,1195076.0,4250.0,13,R,1191023,1191415,394,490.6,475.0,3428,left
54,1,binary,13,2,trial,1190826.0,1195076.0,4250.0,13,R,1191477,1191683,208,1460.2,517.4,2812,right
54,1,binary,13,2,trial,1190826.0,1195076.0,4250.0,13,R,1191701,1191999,300,1434.8,579.2,2725,right
54,1,binary,13,2,trial,1190826.0,1195076.0,4250.0,13,R,1192023,1192179,158,1385.6,445.1,2707,right
54,1,binary,13,2,trial,1190826.0,1195076.0,4250.0,13,R,1192241,1192501,262,455.6,458.5,2810,left
54,1,binary,13,2,trial,1190826.0,1195076.0,4250.0,13,R,1192523,1192887,366,419.5,408.2,2819,left
54,1,binary,13,2,trial,1190826.0,1195076.0,4250.0,13,R,1192965,1193167,204,1490.3,559.9,2722,right
54,1,binary,13,2,trial,1190826.0,1195076.0,4250.0,13,R,1193249,1193503,256,467.0,591.0,2855,left
54,1,binary,13,2,trial,1190826.0,1195076.0,4250.0,13,R,1193531,1193735,206,653.4,691.2,2825,left
54,1,binary,13,2,trial,1190826.0,1195076.0,4250.0,13,R,1193807,1194133,328,1556.2,551.8,2701,right
54,1,binary,13,2,trial,1190826.0,1195076.0,4250.0,13,R,1194159,1194429,272,1493.6,444.1,2722,right
54,1,binary,13,2,trial,1190826.0,1195076.0,4250.0,13,R,1194449,1194829,382,1373.5,444.5,2754,right
54,1,binary,13,2,postResponse,1190826.0,1195076.0,4250.0,13,R,1194849,1195409,562,1459.5,497.7,2844,right
54,1,binary,14,1,fixationCross,1196142.0,1198743.0,2601.0,14,R,1195523,1195811,290,782.7,460.2,3150,NA
54,1,binary,14,1,trial,1196142.0,1198743.0,2601.0,14,R,1195839,1196331,494,959.3,537.9,3232,NA
54,1,binary,14,1,trial,1196142.0,1198743.0,2601.0,14,R,1196373,1196581,210,492.2,542.4,3264,left
54,1,binary,14,1,trial,1196142.0,1198743.0,2601.0,14,R,1196641,1196927,288,1399.0,547.5,2810,right
54,1,binary,14,1,trial,1196142.0,1198743.0,2601.0,14,R,1196949,1197187,240,1564.4,580.3,2704,right
54,1,binary,14,1,trial,1196142.0,1198743.0,2601.0,14,R,1197253,1197645,394,461.4,565.6,2874,left
54,1,binary,14,1,trial,1196142.0,1198743.0,2601.0,14,R,1197657,1198013,358,417.3,579.8,2852,left
54,1,binary,14,1,trial,1196142.0,1198743.0,2601.0,14,R,1198059,1198355,298,472.8,988.6,2859,NA
54,1,binary,14,1,trial,1196142.0,1198743.0,2601.0,14,R,1198403,1199041,640,470.9,602.3,3048,left
54,1,binary,15,1,fixationCross,1199826.0,1202893.0,3067.0,15,R,1199151,1199503,354,1070.8,634.3,3115,NA
54,1,binary,15,1,fixationCross,1199826.0,1202893.0,3067.0,15,R,1199527,1199769,244,958.0,553.9,3369,NA
54,1,binary,15,1,trial,1199826.0,1202893.0,3067.0,15,R,1199779,1200009,232,958.2,530.9,3467,NA
54,1,binary,15,1,trial,1199826.0,1202893.0,3067.0,15,R,1200057,1200381,326,1441.3,510.0,3172,right
54,1,binary,15,1,trial,1199826.0,1202893.0,3067.0,15,R,1200445,1200719,276,407.0,539.9,2939,left
54,1,binary,15,1,trial,1199826.0,1202893.0,3067.0,15,R,1200741,1201087,348,514.3,539.0,2865,left
54,1,binary,15,1,trial,1199826.0,1202893.0,3067.0,15,R,1201109,1201445,338,419.9,476.7,2842,left
54,1,binary,15,1,trial,1199826.0,1202893.0,3067.0,15,R,1201513,1201781,270,1471.5,475.4,2717,right
54,1,binary,15,1,trial,1199826.0,1202893.0,3067.0,15,R,1201807,1202035,230,1656.4,473.9,2718,right
54,1,binary,15,1,trial,1199826.0,1202893.0,3067.0,15,R,1202101,1202725,626,488.4,502.0,2892,left
54,1,binary,15,1,trial,1199826.0,1202893.0,3067.0,15,R,1202747,1203139,394,379.2,485.5,2910,left
54,1,binary,16,1,fixationCross,1203876.0,1213627.0,9751.0,16,R,1203327,1203479,154,983.8,414.8,2928,NA
54,1,binary,16,1,fixationCross,1203876.0,1213627.0,9751.0,16,R,1203569,1203783,216,1054.9,535.4,3095,NA
54,1,binary,16,1,trial,1203876.0,1213627.0,9751.0,16,R,1203807,1203959,154,961.7,546.9,3281,NA
54,1,binary,16,1,trial,1203876.0,1213627.0,9751.0,16,R,1204073,1204273,202,679.7,494.5,3363,left
54,1,binary,16,1,trial,1203876.0,1213627.0,9751.0,16,R,1204301,1204559,260,408.4,547.3,3105,left
54,1,binary,16,1,trial,1203876.0,1213627.0,9751.0,16,R,1204627,1204877,252,1367.6,479.8,2772,right
54,1,binary,16,1,trial,1203876.0,1213627.0,9751.0,16,R,1204903,1205297,396,1596.8,561.9,2676,right
54,1,binary,16,1,trial,1203876.0,1213627.0,9751.0,16,R,1205339,1205625,288,1331.6,457.3,2707,right
54,1,binary,16,1,trial,1203876.0,1213627.0,9751.0,16,R,1205683,1206299,618,442.4,534.9,2861,left
54,1,binary,16,1,trial,1203876.0,1213627.0,9751.0,16,R,1206317,1206545,230,363.5,518.6,2714,left
54,1,binary,16,1,trial,1203876.0,1213627.0,9751.0,16,R,1206557,1206959,404,325.1,505.5,2690,left
54,1,binary,16,1,trial,1203876.0,1213627.0,9751.0,16,R,1206977,1207383,408,397.4,532.2,2704,left
54,1,binary,16,1,trial,1203876.0,1213627.0,9751.0,16,R,1207447,1208045,600,1350.4,492.8,2532,right
54,1,binary,16,1,trial,1203876.0,1213627.0,9751.0,16,R,1208067,1208433,368,1483.3,510.1,2532,right
54,1,binary,16,1,trial,1203876.0,1213627.0,9751.0,16,R,1208455,1208715,262,1351.6,491.2,2600,right
54,1,binary,16,1,trial,1203876.0,1213627.0,9751.0,16,R,1208733,1209687,956,1307.1,499.2,2764,right
54,1,binary,16,1,trial,1203876.0,1213627.0,9751.0,16,R,1209715,1209955,242,1478.7,565.2,2898,right
54,1,binary,16,1,trial,1203876.0,1213627.0,9751.0,16,R,1209981,1210175,196,1309.4,470.6,2979,right
54,1,binary,16,1,trial,1203876.0,1213627.0,9751.0,16,R,1210239,1210661,424,408.3,560.2,3065,left
54,1,binary,16,1,trial,1203876.0,1213627.0,9751.0,16,R,1210685,1210845,162,567.0,553.8,2955,left
54,1,binary,16,1,trial,1203876.0,1213627.0,9751.0,16,R,1210907,1211223,318,1423.0,489.7,2835,right
54,1,binary,16,1,trial,1203876.0,1213627.0,9751.0,16,R,1211249,1211443,196,1252.8,391.3,2954,right
54,1,binary,16,1,trial,1203876.0,1213627.0,9751.0,16,R,1211641,1211759,120,1363.7,487.0,2965,right
54,1,binary,16,1,trial,1203876.0,1213627.0,9751.0,16,R,1211813,1212085,274,559.2,511.7,3144,left
54,1,binary,16,1,trial,1203876.0,1213627.0,9751.0,16,R,1212107,1212667,562,418.3,559.4,3171,left
54,1,binary,16,1,trial,1203876.0,1213627.0,9751.0,16,R,1212707,1212995,290,558.2,374.5,3039,left
54,1,binary,16,1,trial,1203876.0,1213627.0,9751.0,16,R,1213017,1213387,372,480.8,417.7,3060,left
54,1,binary,16,1,trial,1203876.0,1213627.0,9751.0,16,R,1213437,1213765,330,472.5,954.3,3069,NA
54,1,binary,16,1,postResponse,1203876.0,1213627.0,9751.0,16,R,1213833,1213961,130,732.3,455.3,3064,left
54,1,binary,17,1,fixationCross,1214676.0,1221910.0,7234.0,17,R,1214035,1214153,120,205.3,221.1,3145,NA
54,1,binary,17,1,fixationCross,1214676.0,1221910.0,7234.0,17,R,1214215,1214349,136,994.4,456.8,3271,NA
54,1,binary,17,1,fixationCross,1214676.0,1221910.0,7234.0,17,R,1214543,1214605,64,1062.3,586.8,3463,NA
54,1,binary,17,1,trial,1214676.0,1221910.0,7234.0,17,R,1214627,1214833,208,979.5,556.4,3579,NA
54,1,binary,17,1,trial,1214676.0,1221910.0,7234.0,17,R,1214881,1215087,208,597.6,522.1,3696,left
54,1,binary,17,1,trial,1214676.0,1221910.0,7234.0,17,R,1215155,1215609,456,1501.7,614.9,3030,right
54,1,binary,17,1,trial,1214676.0,1221910.0,7234.0,17,R,1215667,1215875,210,558.5,497.0,2980,left
54,1,binary,17,1,trial,1214676.0,1221910.0,7234.0,17,R,1215899,1216167,270,449.0,523.4,3045,left
54,1,binary,17,1,trial,1214676.0,1221910.0,7234.0,17,R,1216181,1216413,234,478.2,499.4,3122,left
54,1,binary,17,1,trial,1214676.0,1221910.0,7234.0,17,R,1216439,1216685,248,650.4,513.7,3077,left
54,1,binary,17,1,trial,1214676.0,1221910.0,7234.0,17,R,1216709,1216873,166,523.6,460.5,3020,left
54,1,binary,17,1,trial,1214676.0,1221910.0,7234.0,17,R,1216933,1217055,124,456.1,1013.8,3028,NA
54,1,binary,17,1,trial,1214676.0,1221910.0,7234.0,17,R,1217119,1217369,252,1476.9,650.1,2908,right
54,1,binary,17,1,trial,1214676.0,1221910.0,7234.0,17,R,1217395,1217735,342,1539.4,543.2,2924,right
54,1,binary,17,1,trial,1214676.0,1221910.0,7234.0,17,R,1217755,1217997,244,1456.5,557.0,2908,right
54,1,binary,17,1,trial,1214676.0,1221910.0,7234.0,17,R,1218027,1218311,286,1370.6,412.5,2949,right
54,1,binary,17,1,trial,1214676.0,1221910.0,7234.0,17,R,1218351,1218561,212,1571.1,523.8,3045,right
54,1,binary,17,1,trial,1214676.0,1221910.0,7234.0,17,R,1218587,1218821,236,1479.1,637.6,3108,right
54,1,binary,17,1,trial,1214676.0,1221910.0,7234.0,17,R,1218843,1219163,322,1399.5,670.1,2989,right
54,1,binary,17,1,trial,1214676.0,1221910.0,7234.0,17,R,1219223,1219683,462,556.3,488.6,2959,left
54,1,binary,17,1,trial,1214676.0,1221910.0,7234.0,17,R,1219865,1219997,134,507.7,425.5,2902,left
54,1,binary,17,1,trial,1214676.0,1221910.0,7234.0,17,R,1220059,1220429,372,1438.0,557.7,2852,right
54,1,binary,17,1,trial,1214676.0,1221910.0,7234.0,17,R,1220455,1220773,320,1545.2,519.1,2929,right
54,1,binary,17,1,trial,1214676.0,1221910.0,7234.0,17,R,1220839,1220979,142,576.0,919.6,3189,NA
54,1,binary,17,1,trial,1214676.0,1221910.0,7234.0,17,R,1221049,1221351,304,1515.3,624.6,3008,right
54,1,binary,17,1,trial,1214676.0,1221910.0,7234.0,17,R,1221373,1221557,186,1536.9,486.2,2978,right
54,1,binary,17,1,trial,1214676.0,1221910.0,7234.0,17,R,1221579,1221893,316,1406.1,427.5,2962,right
54,1,binary,17,1,trial,1214676.0,1221910.0,7234.0,17,R,1221935,1222177,244,1417.1,662.3,2959,right
54,1,binary,18,2,fixationCross,1222976.0,1226309.0,3333.0,18,R,1222319,1222439,122,532.2,685.5,3097,left
54,1,binary,18,2,fixationCross,1222976.0,1226309.0,3333.0,18,R,1222487,1222663,178,729.2,411.2,3143,left
54,1,binary,18,2,trial,1222976.0,1226309.0,3333.0,18,R,1222691,1223161,472,950.4,534.3,3293,NA
54,1,binary,18,2,trial,1222976.0,1226309.0,3333.0,18,R,1223207,1223435,230,493.2,557.7,3360,left
54,1,binary,18,2,trial,1222976.0,1226309.0,3333.0,18,R,1223449,1223663,216,517.6,573.8,3022,left
54,1,binary,18,2,trial,1222976.0,1226309.0,3333.0,18,R,1223727,1223945,220,1443.5,513.5,2726,right
54,1,binary,18,2,trial,1222976.0,1226309.0,3333.0,18,R,1223969,1224403,436,1635.8,543.2,2682,right
54,1,binary,18,2,trial,1222976.0,1226309.0,3333.0,18,R,1224441,1224523,84,1367.7,475.5,2710,right
54,1,binary,18,2,trial,1222976.0,1226309.0,3333.0,18,R,1224581,1224793,214,532.0,546.9,2853,left
54,1,binary,18,2,trial,1222976.0,1226309.0,3333.0,18,R,1224807,1225047,242,500.6,559.9,2854,left
54,1,binary,18,2,trial,1222976.0,1226309.0,3333.0,18,R,1225121,1225383,264,1495.3,549.2,2703,right
54,1,binary,18,2,trial,1222976.0,1226309.0,3333.0,18,R,1225405,1225569,166,1621.0,534.9,2710,right
54,1,binary,18,2,trial,1222976.0,1226309.0,3333.0,18,R,1225603,1226023,422,1330.0,393.9,2809,right
54,1,binary,18,2,postResponse,1222976.0,1226309.0,3333.0,18,R,1226045,1226629,586,1425.9,415.1,2874,right
54,1,binary,19,1,fixationCross,1227377.0,1232210.0,4833.0,19,R,1226717,1227053,338,1210.5,414.3,3126,right
54,1,binary,19,1,trial,1227377.0,1232210.0,4833.0,19,R,1227083,1227553,472,969.7,539.8,3416,NA
54,1,binary,19,1,trial,1227377.0,1232210.0,4833.0,19,R,1227593,1227859,268,598.4,534.7,3434,left
54,1,binary,19,1,trial,1227377.0,1232210.0,4833.0,19,R,1227883,1228045,164,488.4,604.3,3120,left
54,1,binary,19,1,trial,1227377.0,1232210.0,4833.0,19,R,1228103,1228473,372,1400.9,534.4,2808,right
54,1,binary,19,1,trial,1227377.0,1232210.0,4833.0,19,R,1228527,1228953,428,598.5,578.3,3074,left
54,1,binary,19,1,trial,1227377.0,1232210.0,4833.0,19,R,1228975,1229269,296,509.6,602.1,3046,left
54,1,binary,19,1,trial,1227377.0,1232210.0,4833.0,19,R,1229295,1229505,212,615.6,531.4,3001,left
54,1,binary,19,1,trial,1227377.0,1232210.0,4833.0,19,R,1229527,1229547,22,487.1,515.5,3018,left
54,1,binary,19,1,trial,1227377.0,1232210.0,4833.0,19,R,1229917,1230231,316,537.4,570.6,3221,left
54,1,binary,19,1,trial,1227377.0,1232210.0,4833.0,19,R,1230267,1230551,286,440.8,483.9,3280,left
54,1,binary,19,1,trial,1227377.0,1232210.0,4833.0,19,R,1230593,1230911,320,629.9,575.8,3121,left
54,1,binary,19,1,trial,1227377.0,1232210.0,4833.0,19,R,1230937,1231679,744,523.5,576.4,2975,left
54,1,binary,19,1,trial,1227377.0,1232210.0,4833.0,19,R,1231707,1232063,358,384.5,431.6,2877,left
54,1,binary,19,1,trial,1227377.0,1232210.0,4833.0,19,R,1232107,1232487,382,649.8,444.3,2916,left
54,1,binary,20,1,fixationCross,1233126.0,1236293.0,3167.0,20,R,1232643,1232763,122,426.8,396.5,3033,left
54,1,binary,20,1,fixationCross,1233126.0,1236293.0,3167.0,20,R,1232823,1233027,206,945.3,519.4,3085,NA
54,1,binary,20,1,trial,1233126.0,1236293.0,3167.0,20,R,1233041,1233275,236,966.4,540.1,3208,NA
54,1,binary,20,1,trial,1233126.0,1236293.0,3167.0,20,R,1233327,1233497,172,541.6,499.2,3398,left
54,1,binary,20,1,trial,1233126.0,1236293.0,3167.0,20,R,1233527,1233853,328,519.5,367.8,3118,left
54,1,binary,20,1,trial,1233126.0,1236293.0,3167.0,20,R,1233917,1234161,246,1523.8,517.3,2879,right
54,1,binary,20,1,trial,1233126.0,1236293.0,3167.0,20,R,1234181,1234821,642,1538.0,479.3,2970,right
54,1,binary,20,1,trial,1233126.0,1236293.0,3167.0,20,R,1234843,1235163,322,1552.4,560.5,3184,right
54,1,binary,20,1,trial,1233126.0,1236293.0,3167.0,20,R,1235179,1235385,208,1522.5,531.6,3264,right
54,1,binary,20,1,trial,1233126.0,1236293.0,3167.0,20,R,1235453,1235619,168,543.3,534.0,3413,left
54,1,binary,20,1,postResponse,1233126.0,1236293.0,3167.0,20,R,1235649,1236627,980,511.9,382.5,3200,left
54,1,binary,21,1,fixationCross,1237327.0,1245126.0,7799.0,21,R,1236731,1237017,288,987.5,546.3,3167,NA
54,1,binary,21,1,fixationCross,1237327.0,1245126.0,7799.0,21,R,1237043,1237175,134,813.9,510.0,3361,NA
54,1,binary,21,1,trial,1237327.0,1245126.0,7799.0,21,R,1237203,1237479,278,963.0,532.5,3454,NA
54,1,binary,21,1,trial,1237327.0,1245126.0,7799.0,21,R,1237523,1237983,462,1371.4,552.5,3182,right
54,1,binary,21,1,trial,1237327.0,1245126.0,7799.0,21,R,1238039,1238299,262,521.4,616.7,2969,left
54,1,binary,21,1,trial,1237327.0,1245126.0,7799.0,21,R,1238323,1238521,200,418.7,546.9,2922,left
54,1,binary,21,1,trial,1237327.0,1245126.0,7799.0,21,R,1238543,1238805,264,534.0,566.6,2933,left
54,1,binary,21,1,trial,1237327.0,1245126.0,7799.0,21,R,1238875,1239027,154,1459.9,554.3,2800,right
54,1,binary,21,1,trial,1237327.0,1245126.0,7799.0,21,R,1239045,1240075,1032,1376.5,561.8,2875,right
54,1,binary,21,1,trial,1237327.0,1245126.0,7799.0,21,R,1240095,1240635,542,1457.3,557.9,2890,right
54,1,binary,21,1,trial,1237327.0,1245126.0,7799.0,21,R,1240645,1240845,202,1404.6,580.4,2889,right
54,1,binary,21,1,trial,1237327.0,1245126.0,7799.0,21,R,1240857,1242151,1296,1374.4,556.5,2976,right
54,1,binary,21,1,trial,1237327.0,1245126.0,7799.0,21,R,1242175,1242265,92,1592.7,632.9,3049,right
54,1,binary,21,1,trial,1237327.0,1245126.0,7799.0,21,R,1242329,1242729,402,546.0,590.1,3137,left
54,1,binary,21,1,trial,1237327.0,1245126.0,7799.0,21,R,1242751,1243161,412,647.5,627.6,2973,left
54,1,binary,21,1,trial,1237327.0,1245126.0,7799.0,21,R,1243203,1243523,322,436.4,537.8,3003,left
54,1,binary,21,1,trial,1237327.0,1245126.0,7799.0,21,R,1243537,1243809,274,483.2,525.6,2978,left
54,1,binary,21,1,trial,1237327.0,1245126.0,7799.0,21,R,1243829,1244865,1038,558.0,574.0,2992,left
54,1,binary,21,1,trial,1237327.0,1245126.0,7799.0,21,R,1244883,1245335,454,652.6,582.5,3046,left
54,1,binary,21,1,postResponse,1237327.0,1245126.0,7799.0,21,R,1245387,1245459,74,350.2,258.9,3100,NA
54,1,binary,22,2,fixationCross,1246209.0,1255110.0,8901.0,22,R,1245535,1245565,32,343.5,240.2,3141,NA
54,1,binary,22,2,fixationCross,1246209.0,1255110.0,8901.0,22,R,1245631,1245877,248,987.3,330.3,3096,NA
54,1,binary,22,2,trial,1246209.0,1255110.0,8901.0,22,R,1245905,1246385,482,963.5,534.4,3244,NA
54,1,binary,22,2,trial,1246209.0,1255110.0,8901.0,22,R,1246429,1246699,272,516.1,507.1,3351,left
54,1,binary,22,2,trial,1246209.0,1255110.0,8901.0,22,R,1246719,1247003,286,412.5,516.4,2995,left
54,1,binary,22,2,trial,1246209.0,1255110.0,8901.0,22,R,1247071,1247215,146,1507.1,556.0,2737,right
54,1,binary,22,2,trial,1246209.0,1255110.0,8901.0,22,R,1247231,1248039,810,1458.0,507.9,2736,right
54,1,binary,22,2,trial,1246209.0,1255110.0,8901.0,22,R,1248223,1248263,42,1475.9,526.8,2722,right
54,1,binary,22,2,trial,1246209.0,1255110.0,8901.0,22,R,1248323,1248613,292,522.7,560.9,2943,left
54,1,binary,22,2,trial,1246209.0,1255110.0,8901.0,22,R,1248637,1249355,720,466.3,481.8,2902,left
54,1,binary,22,2,trial,1246209.0,1255110.0,8901.0,22,R,1249509,1249775,268,573.9,507.5,2872,left
54,1,binary,22,2,trial,1246209.0,1255110.0,8901.0,22,R,1249797,1249947,152,439.0,517.8,2915,left
54,1,binary,22,2,trial,1246209.0,1255110.0,8901.0,22,R,1250163,1250463,302,420.7,467.8,2909,left
54,1,binary,22,2,trial,1246209.0,1255110.0,8901.0,22,R,1250471,1250723,254,394.2,472.3,2923,left
54,1,binary,22,2,trial,1246209.0,1255110.0,8901.0,22,R,1250749,1251045,298,571.6,497.3,2883,left
54,1,binary,22,2,trial,1246209.0,1255110.0,8901.0,22,R,1251067,1251317,252,471.4,518.1,2929,left
54,1,binary,22,2,trial,1246209.0,1255110.0,8901.0,22,R,1251333,1251745,414,416.7,509.2,2977,left
54,1,binary,22,2,trial,1246209.0,1255110.0,8901.0,22,R,1251773,1252025,254,576.4,547.0,2916,left
54,1,binary,22,2,trial,1246209.0,1255110.0,8901.0,22,R,1252057,1252287,232,495.2,677.3,2923,left
54,1,binary,22,2,trial,1246209.0,1255110.0,8901.0,22,R,1252325,1252637,314,490.8,497.2,2974,left
54,1,binary,22,2,trial,1246209.0,1255110.0,8901.0,22,R,1252655,1253001,348,421.0,484.2,2942,left
54,1,binary,22,2,trial,1246209.0,1255110.0,8901.0,22,R,1253073,1253229,158,1511.5,539.7,2750,right
54,1,binary,22,2,trial,1246209.0,1255110.0,8901.0,22,R,1253241,1254013,774,1465.6,511.0,2670,right
54,1,binary,22,2,trial,1246209.0,1255110.0,8901.0,22,R,1254037,1254383,348,1500.0,640.1,2655,right
54,1,binary,22,2,trial,1246209.0,1255110.0,8901.0,22,R,1254401,1254671,272,1450.4,570.9,2807,right
54,1,binary,22,2,postResponse,1246209.0,1255110.0,8901.0,22,R,1254693,1255445,754,1446.6,509.5,2954,right
54,1,binary,23,2,fixationCross,1256194.0,1274493.0,18299.0,23,R,1255519,1255609,92,1437.6,514.9,3027,right
54,1,binary,23,2,fixationCross,1256194.0,1274493.0,18299.0,23,R,1255657,1255877,222,1058.3,444.7,3203,NA
54,1,binary,23,2,trial,1256194.0,1274493.0,18299.0,23,R,1255903,1256353,452,951.2,539.8,3329,NA
54,1,binary,23,2,trial,1256194.0,1274493.0,18299.0,23,R,1256397,1256585,190,522.4,539.9,3355,left
54,1,binary,23,2,trial,1256194.0,1274493.0,18299.0,23,R,1256609,1256755,148,379.7,534.7,3050,left
54,1,binary,23,2,trial,1256194.0,1274493.0,18299.0,23,R,1256781,1257111,332,577.5,441.2,2844,left
54,1,binary,23,2,trial,1256194.0,1274493.0,18299.0,23,R,1257171,1257389,220,1495.0,495.6,2666,right
54,1,binary,23,2,trial,1256194.0,1274493.0,18299.0,23,R,1257409,1257741,334,1535.3,501.5,2729,right
54,1,binary,23,2,trial,1256194.0,1274493.0,18299.0,23,R,1257763,1258215,454,1427.3,591.0,2733,right
54,1,binary,23,2,trial,1256194.0,1274493.0,18299.0,23,R,1258239,1258481,244,1557.1,499.3,2740,right
54,1,binary,23,2,trial,1256194.0,1274493.0,18299.0,23,R,1258507,1258635,130,1533.2,369.9,2768,right
54,1,binary,23,2,trial,1256194.0,1274493.0,18299.0,23,R,1258839,1258999,162,1517.6,406.7,2830,right
54,1,binary,23,2,trial,1256194.0,1274493.0,18299.0,23,R,1259031,1259491,462,1527.2,517.5,2920,right
54,1,binary,23,2,trial,1256194.0,1274493.0,18299.0,23,R,1259549,1259791,244,666.0,487.4,2984,left
54,1,binary,23,2,trial,1256194.0,1274493.0,18299.0,23,R,1259813,1260317,506,585.0,449.1,2873,left
54,1,binary,23,2,trial,1256194.0,1274493.0,18299.0,23,R,1260349,1260633,286,403.8,533.7,2973,left
54,1,binary,23,2,trial,1256194.0,1274493.0,18299.0,23,R,1260701,1261045,346,1478.5,490.1,3069,right
54,1,binary,23,2,trial,1256194.0,1274493.0,18299.0,23,R,1261097,1261289,194,1261.8,840.8,3213,NA
54,1,binary,23,2,trial,1256194.0,1274493.0,18299.0,23,R,1261333,1261519,188,1205.7,602.4,3299,right
54,1,binary,23,2,trial,1256194.0,1274493.0,18299.0,23,R,1261577,1261889,314,502.4,502.9,3509,left
54,1,binary,23,2,trial,1256194.0,1274493.0,18299.0,23,R,1261961,1262331,372,1467.0,459.7,3353,right
54,1,binary,23,2,trial,1256194.0,1274493.0,18299.0,23,R,1262543,1262595,54,693.2,436.3,3430,left
54,1,binary,23,2,trial,1256194.0,1274493.0,18299.0,23,R,1262619,1262785,168,542.2,469.4,3405,left
54,1,binary,23,2,trial,1256194.0,1274493.0,18299.0,23,R,1262841,1263037,198,1418.8,474.2,3294,right
54,1,binary,23,2,trial,1256194.0,1274493.0,18299.0,23,R,1263213,1263249,38,1491.8,452.8,3211,right
54,1,binary,23,2,trial,1256194.0,1274493.0,18299.0,23,R,1263457,1263625,170,1529.9,460.5,3252,right
54,1,binary,23,2,trial,1256194.0,1274493.0,18299.0,23,R,1263649,1264037,390,1502.1,533.2,3269,right
54,1,binary,23,2,trial,1256194.0,1274493.0,18299.0,23,R,1264053,1264235,184,1517.0,571.9,3102,right
54,1,binary,23,2,trial,1256194.0,1274493.0,18299.0,23,R,1264245,1264567,324,1542.3,554.3,2958,right
54,1,binary,23,2,trial,1256194.0,1274493.0,18299.0,23,R,1264613,1264701,90,1093.2,565.0,2963,NA
54,1,binary,23,2,trial,1256194.0,1274493.0,18299.0,23,R,1264743,1265007,266,549.0,476.8,3027,left
54,1,binary,23,2,trial,1256194.0,1274493.0,18299.0,23,R,1265019,1265269,252,582.5,468.0,3086,left
54,1,binary,23,2,trial,1256194.0,1274493.0,18299.0,23,R,1265287,1265529,244,561.4,442.5,3110,left
54,1,binary,23,2,trial,1256194.0,1274493.0,18299.0,23,R,1265549,1265711,164,467.1,504.3,3187,left
54,1,binary,23,2,trial,1256194.0,1274493.0,18299.0,23,R,1265767,1265905,140,595.0,952.3,3251,NA
54,1,binary,23,2,trial,1256194.0,1274493.0,18299.0,23,R,1265929,1266071,144,478.1,988.5,3230,NA
54,1,binary,23,2,trial,1256194.0,1274493.0,18299.0,23,R,1266125,1266477,354,460.6,489.9,3123,left
54,1,binary,23,2,trial,1256194.0,1274493.0,18299.0,23,R,1266543,1266941,400,1533.7,441.2,2950,right
54,1,binary,23,2,trial,1256194.0,1274493.0,18299.0,23,R,1267151,1267209,60,1459.1,482.7,3029,right
54,1,binary,23,2,trial,1256194.0,1274493.0,18299.0,23,R,1267477,1267699,224,1497.3,494.5,3130,right
54,1,binary,23,2,trial,1256194.0,1274493.0,18299.0,23,R,1267713,1268047,336,1465.1,523.8,3204,right
54,1,binary,23,2,trial,1256194.0,1274493.0,18299.0,23,R,1268273,1268371,100,1428.0,535.2,3127,right
54,1,binary,23,2,trial,1256194.0,1274493.0,18299.0,23,R,1268437,1268751,316,484.7,548.5,3359,left
54,1,binary,23,2,trial,1256194.0,1274493.0,18299.0,23,R,1268831,1269155,326,1674.0,1066.8,3287,NA
54,1,binary,23,2,trial,1256194.0,1274493.0,18299.0,23,R,1269369,1269505,138,1475.4,426.2,3444,right
54,1,binary,23,2,trial,1256194.0,1274493.0,18299.0,23,R,1269533,1269637,106,1203.9,465.1,3585,right
54,1,binary,23,2,trial,1256194.0,1274493.0,18299.0,23,R,1269697,1269985,290,518.8,527.9,3705,left
54,1,binary,23,2,trial,1256194.0,1274493.0,18299.0,23,R,1270007,1270203,198,417.6,555.9,3631,left
54,1,binary,23,2,trial,1256194.0,1274493.0,18299.0,23,R,1270269,1270581,314,1448.1,558.4,3366,right
54,1,binary,23,2,trial,1256194.0,1274493.0,18299.0,23,R,1270601,1270959,360,1519.8,518.4,3355,right
54,1,binary,23,2,trial,1256194.0,1274493.0,18299.0,23,R,1270975,1271089,116,1497.6,542.5,3368,right
54,1,binary,23,2,trial,1256194.0,1274493.0,18299.0,23,R,1271245,1271407,164,463.8,524.6,3589,left
54,1,binary,23,2,trial,1256194.0,1274493.0,18299.0,23,R,1271431,1271739,310,594.1,494.6,3450,left
54,1,binary,23,2,trial,1256194.0,1274493.0,18299.0,23,R,1271757,1271901,146,565.3,471.4,3363,left
54,1,binary,23,2,trial,1256194.0,1274493.0,18299.0,23,R,1271959,1272227,270,1475.0,501.6,3165,right
54,1,binary,23,2,trial,1256194.0,1274493.0,18299.0,23,R,1272283,1272561,280,577.6,560.7,3321,left
54,1,binary,23,2,trial,1256194.0,1274493.0,18299.0,23,R,1272579,1272897,320,566.8,491.4,3199,left
54,1,binary,23,2,trial,1256194.0,1274493.0,18299.0,23,R,1272929,1273387,460,366.9,575.2,3287,left
54,1,binary,23,2,trial,1256194.0,1274493.0,18299.0,23,R,1273459,1273933,476,1476.0,634.0,3416,right
54,1,binary,23,2,trial,1256194.0,1274493.0,18299.0,23,R,1273977,1274199,224,1458.6,982.9,3691,NA
54,1,binary,23,2,trial,1256194.0,1274493.0,18299.0,23,R,1274253,1274687,436,1476.2,526.8,3684,right
54,1,binary,23,2,postResponse,1256194.0,1274493.0,18299.0,23,R,1274745,1274827,84,880.7,354.6,3720,NA
54,1,binary,24,1,fixationCross,1275727.0,1279428.0,3701.0,24,R,1274903,1274925,24,879.2,357.0,3717,NA
54,1,binary,24,1,fixationCross,1275727.0,1279428.0,3701.0,24,R,1274987,1275201,216,1086.0,870.1,3801,likertHorizontal
54,1,binary,24,1,fixationCross,1275727.0,1279428.0,3701.0,24,R,1275251,1275387,138,769.1,483.5,3935,NA
54,1,binary,24,1,fixationCross,1275727.0,1279428.0,3701.0,24,R,1275415,1275653,240,954.6,560.2,3987,NA
54,1,binary,24,1,trial,1275727.0,1279428.0,3701.0,24,R,1275663,1275891,230,963.7,575.4,4029,NA
54,1,binary,24,1,trial,1275727.0,1279428.0,3701.0,24,R,1275927,1276205,280,558.1,529.5,3945,left
54,1,binary,24,1,trial,1275727.0,1279428.0,3701.0,24,R,1276261,1276573,314,1407.0,596.8,3283,right
54,1,binary,24,1,trial,1275727.0,1279428.0,3701.0,24,R,1276587,1276763,178,1443.4,591.6,3222,right
54,1,binary,24,1,trial,1275727.0,1279428.0,3701.0,24,R,1276823,1277109,288,504.1,497.9,3336,left
54,1,binary,24,1,trial,1275727.0,1279428.0,3701.0,24,R,1277133,1277343,212,486.6,395.8,3295,left
54,1,binary,24,1,trial,1275727.0,1279428.0,3701.0,24,R,1277353,1277501,150,471.0,403.0,3300,left
54,1,binary,24,1,trial,1275727.0,1279428.0,3701.0,24,R,1277561,1277695,136,1392.5,574.0,3133,right
54,1,binary,24,1,trial,1275727.0,1279428.0,3701.0,24,R,1277713,1278359,648,1448.1,595.3,3067,right
54,1,binary,24,1,trial,1275727.0,1279428.0,3701.0,24,R,1278379,1278619,242,1349.5,632.2,3023,right
54,1,binary,24,1,trial,1275727.0,1279428.0,3701.0,24,R,1278677,1279149,474,486.6,532.1,3192,left
54,1,binary,24,1,trial,1275727.0,1279428.0,3701.0,24,R,1279173,1279685,514,456.6,449.9,3100,left
54,1,binary,24,1,postResponse,1275727.0,1279428.0,3701.0,24,R,1279725,1279761,38,666.6,317.1,3088,NA
54,1,binary,25,1,fixationCross,1280527.0,1283243.0,2716.0,25,R,1279861,1279913,54,664.9,318.7,3103,NA
54,1,binary,25,1,fixationCross,1280527.0,1283243.0,2716.0,25,R,1279963,1280211,250,1072.2,507.7,3152,NA
54,1,binary,25,1,fixationCross,1280527.0,1283243.0,2716.0,25,R,1280233,1280491,260,966.3,553.0,3366,NA
54,1,binary,25,1,trial,1280527.0,1283243.0,2716.0,25,R,1280499,1280717,220,952.4,542.0,3501,NA
54,1,binary,25,1,trial,1280527.0,1283243.0,2716.0,25,R,1280763,1281071,310,466.1,541.8,3388,left
54,1,binary,25,1,trial,1280527.0,1283243.0,2716.0,25,R,1281089,1281345,258,419.1,485.5,3070,left
54,1,binary,25,1,trial,1280527.0,1283243.0,2716.0,25,R,1281409,1281605,198,1453.8,514.5,2805,right
54,1,binary,25,1,trial,1280527.0,1283243.0,2716.0,25,R,1281625,1281889,266,1448.8,594.1,2794,right
54,1,binary,25,1,trial,1280527.0,1283243.0,2716.0,25,R,1281951,1282243,294,457.4,562.0,3045,left
54,1,binary,25,1,trial,1280527.0,1283243.0,2716.0,25,R,1282269,1282645,378,616.0,615.3,3049,left
54,1,binary,25,1,trial,1280527.0,1283243.0,2716.0,25,R,1282665,1282879,216,588.5,546.5,3037,left
54,1,binary,25,1,trial,1280527.0,1283243.0,2716.0,25,R,1282919,1283129,212,345.8,512.0,3024,left
54,1,binary,25,1,postResponse,1280527.0,1283243.0,2716.0,25,R,1283141,1283577,438,334.4,483.9,2971,left
54,1,binary,26,1,fixationCross,1316727.0,1319544.0,2817.0,26,R,1315955,1316227,274,132.6,13.5,3161,NA
54,1,binary,26,1,fixationCross,1316727.0,1319544.0,2817.0,26,R,1316249,1316349,102,128.4,-71.9,3124,NA
54,1,binary,26,1,fixationCross,1316727.0,1319544.0,2817.0,26,R,1316407,1316561,156,924.7,479.6,3235,NA
54,1,binary,26,1,trial,1316727.0,1319544.0,2817.0,26,R,1316583,1316951,370,958.6,539.8,3404,NA
54,1,binary,26,1,trial,1316727.0,1319544.0,2817.0,26,R,1316995,1317177,184,512.8,536.9,3562,left
54,1,binary,26,1,trial,1316727.0,1319544.0,2817.0,26,R,1317233,1317385,154,490.7,946.5,3248,NA
54,1,binary,26,1,trial,1316727.0,1319544.0,2817.0,26,R,1317455,1317561,108,1493.8,703.4,2926,right
54,1,binary,26,1,trial,1316727.0,1319544.0,2817.0,26,R,1317587,1317803,218,1428.0,540.2,2859,right
54,1,binary,26,1,trial,1316727.0,1319544.0,2817.0,26,R,1317861,1318115,256,495.0,502.4,3049,left
54,1,binary,26,1,trial,1316727.0,1319544.0,2817.0,26,R,1318137,1318321,186,392.4,451.8,3026,left
54,1,binary,26,1,trial,1316727.0,1319544.0,2817.0,26,R,1318385,1318723,340,1393.3,549.8,2746,right
54,1,binary,26,1,trial,1316727.0,1319544.0,2817.0,26,R,1318789,1319265,478,375.9,517.2,2911,left
54,1,binary,26,1,trial,1316727.0,1319544.0,2817.0,26,R,1319293,1319755,464,504.1,515.6,2950,left
54,1,binary,26,1,postResponse,1316727.0,1319544.0,2817.0,26,R,1319789,1319877,90,552.7,313.2,2955,NA
54,1,binary,27,2,fixationCross,1320795.0,1324878.0,4083.0,27,R,1319997,1320141,146,82.7,172.0,2999,NA
54,1,binary,27,2,fixationCross,1320795.0,1324878.0,4083.0,27,R,1320189,1320323,136,148.5,-161.2,3061,NA
54,1,binary,27,2,fixationCross,1320795.0,1324878.0,4083.0,27,R,1320383,1320511,130,905.6,441.7,3129,NA
54,1,binary,27,2,trial,1320795.0,1324878.0,4083.0,27,R,1320533,1320967,436,959.8,535.5,3159,NA
54,1,binary,27,2,trial,1320795.0,1324878.0,4083.0,27,R,1321009,1321201,194,609.7,489.2,3207,left
54,1,binary,27,2,trial,1320795.0,1324878.0,4083.0,27,R,1321257,1321717,462,1414.9,516.6,2857,right
54,1,binary,27,2,trial,1320795.0,1324878.0,4083.0,27,R,1321775,1322055,282,555.3,484.3,2881,left
54,1,binary,27,2,trial,1320795.0,1324878.0,4083.0,27,R,1322079,1322263,186,413.5,480.4,2824,left
54,1,binary,27,2,trial,1320795.0,1324878.0,4083.0,27,R,1322337,1322865,530,1492.7,488.3,2577,right
54,1,binary,27,2,trial,1320795.0,1324878.0,4083.0,27,R,1323039,1323169,132,1469.3,966.0,2522,NA
54,1,binary,27,2,trial,1320795.0,1324878.0,4083.0,27,R,1323213,1323501,290,1477.4,605.2,2544,right
54,1,binary,27,2,trial,1320795.0,1324878.0,4083.0,27,R,1323525,1323995,472,1335.8,551.2,2618,right
54,1,binary,27,2,trial,1320795.0,1324878.0,4083.0,27,R,1324017,1324417,402,1443.5,544.3,2753,right
54,1,binary,27,2,trial,1320795.0,1324878.0,4083.0,27,R,1324437,1324609,174,1525.9,513.1,2786,right
54,1,binary,27,2,trial,1320795.0,1324878.0,4083.0,27,R,1324737,1324869,134,1474.0,938.1,2815,NA
54,1,binary,27,2,trial,1320795.0,1324878.0,4083.0,27,R,1324923,1325143,222,1465.0,436.3,2895,right
54,1,binary,28,2,fixationCross,1326027.0,1329911.0,3884.0,28,R,1325297,1325413,118,504.0,240.1,3049,NA
54,1,binary,28,2,fixationCross,1326027.0,1329911.0,3884.0,28,R,1325459,1325577,120,244.6,95.5,3121,NA
54,1,binary,28,2,fixationCross,1326027.0,1329911.0,3884.0,28,R,1325639,1325767,130,1102.1,603.0,3158,NA
54,1,binary,28,2,trial,1326027.0,1329911.0,3884.0,28,R,1325791,1326233,444,961.3,530.0,3249,NA
54,1,binary,28,2,trial,1326027.0,1329911.0,3884.0,28,R,1326275,1326601,328,528.5,531.2,3325,left
54,1,binary,28,2,trial,1326027.0,1329911.0,3884.0,28,R,1326617,1326731,116,456.0,526.8,3113,left
54,1,binary,28,2,trial,1326027.0,1329911.0,3884.0,28,R,1326791,1327167,378,1406.7,509.3,2870,right
54,1,binary,28,2,trial,1326027.0,1329911.0,3884.0,28,R,1327225,1327469,246,547.8,525.0,2964,left
54,1,binary,28,2,trial,1326027.0,1329911.0,3884.0,28,R,1327493,1327731,240,392.7,566.6,2930,left
54,1,binary,28,2,trial,1326027.0,1329911.0,3884.0,28,R,1327745,1328125,382,441.3,539.2,2901,left
54,1,binary,28,2,trial,1326027.0,1329911.0,3884.0,28,R,1328187,1329187,1002,1423.6,505.1,2762,right
54,1,binary,28,2,trial,1326027.0,1329911.0,3884.0,28,R,1329247,1329575,330,501.2,571.2,3044,left
54,1,binary,28,2,trial,1326027.0,1329911.0,3884.0,28,R,1329607,1329861,256,447.8,484.3,3057,left
54,1,binary,28,2,trial,1326027.0,1329911.0,3884.0,28,R,1329925,1330119,196,1397.6,511.5,2888,right
54,1,binary,29,2,fixationCross,1331028.0,1335244.0,4216.0,29,R,1330325,1330459,136,1490.0,321.9,2912,NA
54,1,binary,29,2,fixationCross,1331028.0,1335244.0,4216.0,29,R,1330505,1330685,182,1072.2,175.6,3133,NA
54,1,binary,29,2,trial,1331028.0,1335244.0,4216.0,29,R,1330729,1331207,480,978.9,538.2,3360,NA
54,1,binary,29,2,trial,1331028.0,1335244.0,4216.0,29,R,1331239,1331307,70,1115.9,467.1,3364,NA
54,1,binary,29,2,trial,1331028.0,1335244.0,4216.0,29,R,1331339,1331701,364,1397.9,460.2,2987,right
54,1,binary,29,2,trial,1331028.0,1335244.0,4216.0,29,R,1331759,1332135,378,517.1,502.6,2867,left
54,1,binary,29,2,trial,1331028.0,1335244.0,4216.0,29,R,1332203,1332469,268,1495.4,523.6,2707,right
54,1,binary,29,2,trial,1331028.0,1335244.0,4216.0,29,R,1332495,1332899,406,1397.3,451.9,2768,right
54,1,binary,29,2,trial,1331028.0,1335244.0,4216.0,29,R,1332933,1333283,352,1663.8,664.8,2770,right
54,1,binary,29,2,trial,1331028.0,1335244.0,4216.0,29,R,1333343,1333453,112,707.1,650.4,2965,left
54,1,binary,29,2,trial,1331028.0,1335244.0,4216.0,29,R,1333491,1333749,260,494.3,543.9,2981,left
54,1,binary,29,2,trial,1331028.0,1335244.0,4216.0,29,R,1333811,1334031,222,1476.2,464.4,2822,right
54,1,binary,29,2,trial,1331028.0,1335244.0,4216.0,29,R,1334049,1335503,1456,1381.8,463.9,2882,right
54,1,binary,30,1,fixationCross,1336360.0,1344511.0,8151.0,30,R,1335679,1335839,162,733.1,565.6,3161,left
54,1,binary,30,1,fixationCross,1336360.0,1344511.0,8151.0,30,R,1335875,1336045,172,806.2,439.4,3269,NA
54,1,binary,30,1,trial,1336360.0,1344511.0,8151.0,30,R,1336071,1336509,440,953.7,537.9,3385,NA
54,1,binary,30,1,trial,1336360.0,1344511.0,8151.0,30,R,1336551,1336709,160,586.1,509.1,3544,left
54,1,binary,30,1,trial,1336360.0,1344511.0,8151.0,30,R,1336741,1337021,282,386.9,382.8,3287,left
54,1,binary,30,1,trial,1336360.0,1344511.0,8151.0,30,R,1337047,1337461,416,411.5,506.8,3075,left
54,1,binary,30,1,trial,1336360.0,1344511.0,8151.0,30,R,1337489,1337603,116,599.6,543.6,3086,left
54,1,binary,30,1,trial,1336360.0,1344511.0,8151.0,30,R,1337659,1337969,312,1397.4,545.8,2957,right
54,1,binary,30,1,trial,1336360.0,1344511.0,8151.0,30,R,1337993,1338399,408,1568.0,594.2,3027,right
54,1,binary,30,1,trial,1336360.0,1344511.0,8151.0,30,R,1338425,1338779,356,1388.9,630.4,2960,right
54,1,binary,30,1,trial,1336360.0,1344511.0,8151.0,30,R,1338801,1339007,208,1302.1,539.8,2915,right
54,1,binary,30,1,trial,1336360.0,1344511.0,8151.0,30,R,1339035,1339321,288,1511.0,475.8,2843,right
54,1,binary,30,1,trial,1336360.0,1344511.0,8151.0,30,R,1339347,1339559,214,1575.5,598.5,2815,right
54,1,binary,30,1,trial,1336360.0,1344511.0,8151.0,30,R,1339575,1339965,392,1608.7,654.7,2867,right
54,1,binary,30,1,trial,1336360.0,1344511.0,8151.0,30,R,1339989,1340259,272,1550.2,587.6,2872,right
54,1,binary,30,1,trial,1336360.0,1344511.0,8151.0,30,R,1340283,1340447,166,1466.6,471.3,2857,right
54,1,binary,30,1,trial,1336360.0,1344511.0,8151.0,30,R,1340509,1341039,532,562.9,451.6,3050,left
54,1,binary,30,1,trial,1336360.0,1344511.0,8151.0,30,R,1341067,1341507,442,375.4,373.0,2950,left
54,1,binary,30,1,trial,1336360.0,1344511.0,8151.0,30,R,1341581,1341849,270,1516.7,536.2,2767,right
54,1,binary,30,1,trial,1336360.0,1344511.0,8151.0,30,R,1341871,1342113,244,1438.0,457.0,2812,right
54,1,binary,30,1,trial,1336360.0,1344511.0,8151.0,30,R,1342149,1342381,234,1336.3,592.3,2888,right
54,1,binary,30,1,trial,1336360.0,1344511.0,8151.0,30,R,1342405,1342565,162,1452.1,650.5,2969,right
54,1,binary,30,1,trial,1336360.0,1344511.0,8151.0,30,R,1342587,1343061,476,1604.3,670.7,2973,right
54,1,binary,30,1,trial,1336360.0,1344511.0,8151.0,30,R,1343075,1343401,328,1572.0,633.6,2876,right
54,1,binary,30,1,trial,1336360.0,1344511.0,8151.0,30,R,1343465,1343783,320,560.9,511.3,3016,left
54,1,binary,30,1,trial,1336360.0,1344511.0,8151.0,30,R,1343807,1344003,198,408.6,523.1,3018,left
54,1,binary,30,1,trial,1336360.0,1344511.0,8151.0,30,R,1344017,1344399,384,419.3,488.8,3017,left
54,1,binary,30,1,trial,1336360.0,1344511.0,8151.0,30,R,1344427,1344697,272,373.5,373.1,2959,left
54,1,binary,30,1,postResponse,1336360.0,1344511.0,8151.0,30,R,1344789,1344843,56,1230.0,381.3,2841,right
54,1,binary,31,2,fixationCross,1345727.0,1352962.0,7235.0,31,R,1344917,1345009,94,1222.4,387.2,2897,right
54,1,binary,31,2,fixationCross,1345727.0,1352962.0,7235.0,31,R,1345157,1345281,126,1614.3,637.3,2972,right
54,1,binary,31,2,fixationCross,1345727.0,1352962.0,7235.0,31,R,1345325,1345407,84,1014.1,584.7,3216,NA
54,1,binary,31,2,fixationCross,1345727.0,1352962.0,7235.0,31,R,1345595,1345691,98,967.5,509.3,3384,NA
54,1,binary,31,2,trial,1345727.0,1352962.0,7235.0,31,R,1345707,1345799,94,964.8,548.4,3453,NA
54,1,binary,31,2,trial,1345727.0,1352962.0,7235.0,31,R,1345939,1345995,58,746.7,476.1,3559,NA
54,1,binary,31,2,trial,1345727.0,1352962.0,7235.0,31,R,1346027,1346309,284,468.2,528.2,3456,left
54,1,binary,31,2,trial,1345727.0,1352962.0,7235.0,31,R,1346373,1346475,104,1503.3,556.5,3028,right
54,1,binary,31,2,trial,1345727.0,1352962.0,7235.0,31,R,1346685,1346889,206,1424.7,489.8,2916,right
54,1,binary,31,2,trial,1345727.0,1352962.0,7235.0,31,R,1346957,1347341,386,407.7,570.4,3260,left
54,1,binary,31,2,trial,1345727.0,1352962.0,7235.0,31,R,1347375,1347731,358,498.7,452.7,3312,left
54,1,binary,31,2,trial,1345727.0,1352962.0,7235.0,31,R,1347755,1347901,148,434.8,547.2,3301,left
54,1,binary,31,2,trial,1345727.0,1352962.0,7235.0,31,R,1347973,1348319,348,1510.3,552.3,3083,right
54,1,binary,31,2,trial,1345727.0,1352962.0,7235.0,31,R,1348343,1348543,202,1529.0,446.2,2994,right
54,1,binary,31,2,trial,1345727.0,1352962.0,7235.0,31,R,1348605,1348911,308,425.4,535.4,3155,left
54,1,binary,31,2,trial,1345727.0,1352962.0,7235.0,31,R,1348979,1349335,358,1470.2,536.1,3038,right
54,1,binary,31,2,trial,1345727.0,1352962.0,7235.0,31,R,1349361,1349619,260,1528.8,443.3,3010,right
54,1,binary,31,2,trial,1345727.0,1352962.0,7235.0,31,R,1349643,1349931,290,1355.9,459.3,3060,right
54,1,binary,31,2,trial,1345727.0,1352962.0,7235.0,31,R,1349961,1350229,270,1473.8,615.6,3056,right
54,1,binary,31,2,trial,1345727.0,1352962.0,7235.0,31,R,1350263,1350493,232,1342.1,444.8,3091,right
54,1,binary,31,2,trial,1345727.0,1352962.0,7235.0,31,R,1350503,1351175,674,1342.6,462.8,3099,right
54,1,binary,31,2,trial,1345727.0,1352962.0,7235.0,31,R,1351203,1351597,396,1458.6,615.0,3173,right
54,1,binary,31,2,trial,1345727.0,1352962.0,7235.0,31,R,1351623,1351873,252,1410.3,730.2,3174,right
54,1,binary,31,2,trial,1345727.0,1352962.0,7235.0,31,R,1351913,1352121,210,1464.7,515.2,3143,right
54,1,binary,31,2,trial,1345727.0,1352962.0,7235.0,31,R,1352139,1352529,392,1509.6,459.9,3087,right
54,1,binary,31,2,trial,1345727.0,1352962.0,7235.0,31,R,1352551,1352869,320,1376.7,440.8,3003,right
54,1,binary,31,2,trial,1345727.0,1352962.0,7235.0,31,R,1352913,1353181,270,1550.8,699.0,2980,right
54,1,binary,32,1,fixationCross,1354061.0,1363728.0,9667.0,32,R,1353395,1353743,350,855.8,419.8,3203,NA
54,1,binary,32,1,trial,1354061.0,1363728.0,9667.0,32,R,1353769,1354215,448,946.8,547.0,3362,NA
54,1,binary,32,1,trial,1354061.0,1363728.0,9667.0,32,R,1354263,1354425,164,469.0,546.0,3444,left
54,1,binary,32,1,trial,1354061.0,1363728.0,9667.0,32,R,1354451,1354695,246,373.3,486.8,3142,left
54,1,binary,32,1,trial,1354061.0,1363728.0,9667.0,32,R,1354761,1355191,432,1418.8,521.1,2786,right
54,1,binary,32,1,trial,1354061.0,1363728.0,9667.0,32,R,1355215,1355451,238,1424.7,603.6,2789,right
54,1,binary,32,1,trial,1354061.0,1363728.0,9667.0,32,R,1355519,1355749,232,381.9,515.5,2887,left
54,1,binary,32,1,trial,1354061.0,1363728.0,9667.0,32,R,1355767,1356123,358,378.6,447.8,2831,left
54,1,binary,32,1,trial,1354061.0,1363728.0,9667.0,32,R,1356133,1356425,294,405.4,432.5,2793,left
54,1,binary,32,1,trial,1354061.0,1363728.0,9667.0,32,R,1356495,1356779,286,1550.8,467.9,2737,right
54,1,binary,32,1,trial,1354061.0,1363728.0,9667.0,32,R,1356797,1357079,284,1453.0,511.0,2845,right
54,1,binary,32,1,trial,1354061.0,1363728.0,9667.0,32,R,1357101,1357363,264,1434.9,586.1,2822,right
54,1,binary,32,1,trial,1354061.0,1363728.0,9667.0,32,R,1357391,1357655,266,1346.4,444.1,2793,right
54,1,binary,32,1,trial,1354061.0,1363728.0,9667.0,32,R,1357795,1357993,200,353.3,500.0,2931,left
54,1,binary,32,1,trial,1354061.0,1363728.0,9667.0,32,R,1358049,1358227,180,464.1,954.6,3036,NA
54,1,binary,32,1,trial,1354061.0,1363728.0,9667.0,32,R,1358417,1358779,364,453.1,485.3,3149,left
54,1,binary,32,1,trial,1354061.0,1363728.0,9667.0,32,R,1358851,1359197,348,1435.5,524.5,3153,right
54,1,binary,32,1,trial,1354061.0,1363728.0,9667.0,32,R,1359253,1359409,158,678.1,454.4,3385,left
54,1,binary,32,1,trial,1354061.0,1363728.0,9667.0,32,R,1359439,1360155,718,380.4,436.8,3411,left
54,1,binary,32,1,trial,1354061.0,1363728.0,9667.0,32,R,1360215,1360387,174,1165.3,427.4,3393,NA
54,1,binary,32,1,trial,1354061.0,1363728.0,9667.0,32,R,1360421,1360675,256,1433.8,516.6,3411,right
54,1,binary,32,1,trial,1354061.0,1363728.0,9667.0,32,R,1360725,1360851,128,934.6,834.7,3676,likertHorizontal
54,1,binary,32,1,trial,1354061.0,1363728.0,9667.0,32,R,1360901,1361113,214,415.2,521.2,3695,left
54,1,binary,32,1,trial,1354061.0,1363728.0,9667.0,32,R,1361131,1361661,532,383.2,459.8,3570,left
54,1,binary,32,1,trial,1354061.0,1363728.0,9667.0,32,R,1361683,1362111,430,478.7,479.6,3396,left
54,1,binary,32,1,trial,1354061.0,1363728.0,9667.0,32,R,1362133,1363543,1412,386.0,458.8,3303,left
54,1,binary,32,1,trial,1354061.0,1363728.0,9667.0,32,R,1363563,1363931,370,481.4,467.1,3392,left
54,1,binary,32,1,postResponse,1354061.0,1363728.0,9667.0,32,R,1363979,1364063,86,800.8,274.4,3383,NA
54,1,binary,33,2,fixationCross,1364928.0,1370378.0,5450.0,33,R,1364195,1364351,158,1900.4,383.0,3216,NA
54,1,binary,33,2,fixationCross,1364928.0,1370378.0,5450.0,33,R,1364419,1364605,188,825.0,319.4,3531,NA
54,1,binary,33,2,trial,1364928.0,1370378.0,5450.0,33,R,1364645,1364961,318,966.7,549.1,3599,NA
54,1,binary,33,2,trial,1364928.0,1370378.0,5450.0,33,R,1364975,1365073,100,925.6,541.2,3628,NA
54,1,binary,33,2,trial,1364928.0,1370378.0,5450.0,33,R,1365125,1365287,164,469.5,482.1,3709,left
54,1,binary,33,2,trial,1364928.0,1370378.0,5450.0,33,R,1365309,1365603,296,371.7,451.3,3272,left
54,1,binary,33,2,trial,1364928.0,1370378.0,5450.0,33,R,1365667,1365999,334,1452.4,611.0,2830,right
54,1,binary,33,2,trial,1364928.0,1370378.0,5450.0,33,R,1366061,1366223,164,436.3,441.5,2908,left
54,1,binary,33,2,trial,1364928.0,1370378.0,5450.0,33,R,1366241,1366553,314,358.3,422.6,2852,left
54,1,binary,33,2,trial,1364928.0,1370378.0,5450.0,33,R,1366571,1366777,208,424.0,389.7,2811,left
54,1,binary,33,2,trial,1364928.0,1370378.0,5450.0,33,R,1366843,1367133,292,1497.7,532.4,2757,right
54,1,binary,33,2,trial,1364928.0,1370378.0,5450.0,33,R,1367147,1367461,316,1455.6,564.9,2834,right
54,1,binary,33,2,trial,1364928.0,1370378.0,5450.0,33,R,1367473,1367877,406,1502.7,575.6,2762,right
54,1,binary,33,2,trial,1364928.0,1370378.0,5450.0,33,R,1367941,1368083,144,491.7,367.3,2873,left
54,1,binary,33,2,trial,1364928.0,1370378.0,5450.0,33,R,1368107,1368355,250,373.1,406.8,2851,left
54,1,binary,33,2,trial,1364928.0,1370378.0,5450.0,33,R,1368365,1368753,390,352.7,423.5,2825,left
54,1,binary,33,2,trial,1364928.0,1370378.0,5450.0,33,R,1368831,1370223,1394,1498.9,566.2,2726,right
54,1,binary,33,2,trial,1364928.0,1370378.0,5450.0,33,R,1370285,1370559,276,527.6,483.7,3106,left
54,1,binary,33,2,postResponse,1364928.0,1370378.0,5450.0,33,R,1370621,1370713,94,1037.9,336.9,2999,NA
54,1,binary,34,2,fixationCross,1371512.0,1379811.0,8299.0,34,R,1370789,1370819,32,1031.3,340.1,2978,NA
54,1,binary,34,2,fixationCross,1371512.0,1379811.0,8299.0,34,R,1370875,1371075,202,439.2,255.3,3080,NA
54,1,binary,34,2,fixationCross,1371512.0,1379811.0,8299.0,34,R,1371139,1371257,120,1078.5,614.1,3131,NA
54,1,binary,34,2,trial,1371512.0,1379811.0,8299.0,34,R,1371283,1371707,426,952.1,540.6,3213,NA
54,1,binary,34,2,trial,1371512.0,1379811.0,8299.0,34,R,1371755,1372055,302,433.9,592.9,3323,left
54,1,binary,34,2,trial,1371512.0,1379811.0,8299.0,34,R,1372119,1372353,236,1488.0,489.0,2872,right
54,1,binary,34,2,trial,1371512.0,1379811.0,8299.0,34,R,1372379,1372677,300,1678.7,435.3,2772,right
54,1,binary,34,2,trial,1371512.0,1379811.0,8299.0,34,R,1372689,1372825,138,1653.3,426.4,2799,right
54,1,binary,34,2,trial,1371512.0,1379811.0,8299.0,34,R,1372895,1373045,152,452.7,434.8,3024,left
54,1,binary,34,2,trial,1371512.0,1379811.0,8299.0,34,R,1373071,1373261,192,330.8,428.8,3062,left
54,1,binary,34,2,trial,1371512.0,1379811.0,8299.0,34,R,1373287,1373437,152,373.5,573.6,3058,left
54,1,binary,34,2,trial,1371512.0,1379811.0,8299.0,34,R,1373463,1373743,282,509.5,620.2,3010,left
54,1,binary,34,2,trial,1371512.0,1379811.0,8299.0,34,R,1373765,1374427,664,396.2,572.1,3018,left
54,1,binary,34,2,trial,1371512.0,1379811.0,8299.0,34,R,1374443,1374697,256,328.8,539.6,3010,left
54,1,binary,34,2,trial,1371512.0,1379811.0,8299.0,34,R,1374723,1374899,178,489.0,625.6,3024,left
54,1,binary,34,2,trial,1371512.0,1379811.0,8299.0,34,R,1374965,1375141,178,1477.6,534.6,2856,right
54,1,binary,34,2,trial,1371512.0,1379811.0,8299.0,34,R,1375169,1375407,240,1642.5,431.1,2813,right
54,1,binary,34,2,trial,1371512.0,1379811.0,8299.0,34,R,1375417,1375667,252,1672.2,432.3,2780,right
54,1,binary,34,2,trial,1371512.0,1379811.0,8299.0,34,R,1375705,1376099,396,1297.1,513.4,2828,right
54,1,binary,34,2,trial,1371512.0,1379811.0,8299.0,34,R,1376113,1376377,266,1249.4,499.3,2912,right
54,1,binary,34,2,trial,1371512.0,1379811.0,8299.0,34,R,1376413,1377145,734,1520.5,494.7,2902,right
54,1,binary,34,2,trial,1371512.0,1379811.0,8299.0,34,R,1377165,1377413,250,1433.5,514.1,2955,right
54,1,binary,34,2,trial,1371512.0,1379811.0,8299.0,34,R,1377441,1377981,542,1494.3,664.9,2949,right
54,1,binary,34,2,trial,1371512.0,1379811.0,8299.0,34,R,1378043,1378169,128,740.3,926.1,3083,likertHorizontal
54,1,binary,34,2,trial,1371512.0,1379811.0,8299.0,34,R,1378207,1378309,104,417.3,1000.1,3090,NA
54,1,binary,34,2,trial,1371512.0,1379811.0,8299.0,34,R,1378359,1378629,272,399.5,553.8,3068,left
54,1,binary,34,2,trial,1371512.0,1379811.0,8299.0,34,R,1378655,1378933,280,524.4,628.0,3002,left
54,1,binary,34,2,trial,1371512.0,1379811.0,8299.0,34,R,1379001,1379159,160,1587.5,491.5,2818,right
54,1,binary,34,2,trial,1371512.0,1379811.0,8299.0,34,R,1379181,1380033,854,1654.9,435.0,2879,right
54,1,binary,35,2,fixationCross,1380994.0,1387012.0,6018.0,35,R,1380219,1380555,338,781.8,547.3,3204,NA
54,1,binary,35,2,fixationCross,1380994.0,1387012.0,6018.0,35,R,1380583,1380701,120,969.1,548.3,3296,NA
54,1,binary,35,2,trial,1380994.0,1387012.0,6018.0,35,R,1380861,1381149,290,933.1,482.5,3386,NA
54,1,binary,35,2,trial,1380994.0,1387012.0,6018.0,35,R,1381187,1381433,248,536.6,508.1,3435,left
54,1,binary,35,2,trial,1380994.0,1387012.0,6018.0,35,R,1381505,1381807,304,1585.5,421.3,2959,right
54,1,binary,35,2,trial,1380994.0,1387012.0,6018.0,35,R,1381819,1382183,366,1588.2,385.0,2823,right
54,1,binary,35,2,trial,1380994.0,1387012.0,6018.0,35,R,1382193,1382401,210,1617.4,379.5,2840,right
54,1,binary,35,2,trial,1380994.0,1387012.0,6018.0,35,R,1382467,1382683,218,543.7,498.4,3101,left
54,1,binary,35,2,trial,1380994.0,1387012.0,6018.0,35,R,1382707,1383111,406,396.4,527.2,3037,left
54,1,binary,35,2,trial,1380994.0,1387012.0,6018.0,35,R,1383181,1383375,196,1537.7,434.6,2740,right
54,1,binary,35,2,trial,1380994.0,1387012.0,6018.0,35,R,1383395,1383699,306,1607.4,408.5,2739,right
54,1,binary,35,2,trial,1380994.0,1387012.0,6018.0,35,R,1383739,1383861,124,1256.6,518.2,2902,right
54,1,binary,35,2,trial,1380994.0,1387012.0,6018.0,35,R,1383917,1384091,176,474.1,624.7,3037,left
54,1,binary,35,2,trial,1380994.0,1387012.0,6018.0,35,R,1384123,1384511,390,411.7,511.8,3025,left
54,1,binary,35,2,trial,1380994.0,1387012.0,6018.0,35,R,1384531,1384891,362,333.5,491.8,2915,left
54,1,binary,35,2,trial,1380994.0,1387012.0,6018.0,35,R,1384915,1385235,322,500.0,537.0,2871,left
54,1,binary,35,2,trial,1380994.0,1387012.0,6018.0,35,R,1385257,1385775,520,407.3,481.1,2839,left
54,1,binary,35,2,trial,1380994.0,1387012.0,6018.0,35,R,1385847,1386337,492,1515.5,459.7,2716,right
54,1,binary,35,2,trial,1380994.0,1387012.0,6018.0,35,R,1386363,1386895,534,1640.7,560.8,2878,right
54,1,binary,35,2,trial,1380994.0,1387012.0,6018.0,35,R,1386945,1387189,246,1411.3,986.8,3116,NA
54,1,binary,35,2,postResponse,1380994.0,1387012.0,6018.0,35,R,1387249,1387343,96,786.9,486.1,3326,NA
54,1,binary,36,2,fixationCross,1388095.0,1390512.0,2417.0,36,R,1387443,1387791,350,783.3,487.4,3463,NA
54,1,binary,36,2,trial,1388095.0,1390512.0,2417.0,36,R,1387817,1388259,444,937.9,557.7,3650,NA
54,1,binary,36,2,trial,1388095.0,1390512.0,2417.0,36,R,1388305,1388533,230,474.7,527.0,3655,left
54,1,binary,36,2,trial,1388095.0,1390512.0,2417.0,36,R,1388555,1388983,430,366.8,510.1,3067,left
54,1,binary,36,2,trial,1388095.0,1390512.0,2417.0,36,R,1389051,1389601,552,1521.7,583.4,2686,right
54,1,binary,36,2,trial,1388095.0,1390512.0,2417.0,36,R,1389621,1390095,476,1393.0,569.5,3025,right
54,1,binary,36,2,trial,1388095.0,1390512.0,2417.0,36,R,1390117,1390735,620,1507.9,599.8,3262,right
54,1,binary,37,1,fixationCross,1391579.0,1400662.0,9083.0,37,R,1390945,1391279,336,1301.0,520.9,3343,right
54,1,binary,37,1,fixationCross,1391579.0,1400662.0,9083.0,37,R,1391311,1391451,142,997.2,551.8,3514,NA
54,1,binary,37,1,trial,1391579.0,1400662.0,9083.0,37,R,1391599,1391755,158,985.9,535.1,3561,NA
54,1,binary,37,1,trial,1391579.0,1400662.0,9083.0,37,R,1391797,1392021,226,552.3,568.9,3522,left
54,1,binary,37,1,trial,1391579.0,1400662.0,9083.0,37,R,1392045,1392209,166,455.2,645.4,3239,left
54,1,binary,37,1,trial,1391579.0,1400662.0,9083.0,37,R,1392221,1392351,132,489.0,653.5,3064,left
54,1,binary,37,1,trial,1391579.0,1400662.0,9083.0,37,R,1392413,1392715,304,1438.1,619.6,2748,right
54,1,binary,37,1,trial,1391579.0,1400662.0,9083.0,37,R,1392733,1393069,338,1498.9,621.1,2772,right
54,1,binary,37,1,trial,1391579.0,1400662.0,9083.0,37,R,1393083,1393357,276,1430.6,614.9,2802,right
54,1,binary,37,1,trial,1391579.0,1400662.0,9083.0,37,R,1393699,1393801,104,1503.3,607.9,3061,right
54,1,binary,37,1,trial,1391579.0,1400662.0,9083.0,37,R,1393867,1394073,208,443.5,618.4,3321,left
54,1,binary,37,1,trial,1391579.0,1400662.0,9083.0,37,R,1394271,1394519,250,535.2,555.1,3036,left
54,1,binary,37,1,trial,1391579.0,1400662.0,9083.0,37,R,1394543,1395001,460,446.2,593.2,2975,left
54,1,binary,37,1,trial,1391579.0,1400662.0,9083.0,37,R,1395067,1395399,334,1449.7,582.6,2743,right
54,1,binary,37,1,trial,1391579.0,1400662.0,9083.0,37,R,1395461,1395723,264,520.5,527.7,2930,left
54,1,binary,37,1,trial,1391579.0,1400662.0,9083.0,37,R,1395747,1396339,594,348.8,517.1,2912,left
54,1,binary,37,1,trial,1391579.0,1400662.0,9083.0,37,R,1396377,1396457,82,480.1,365.9,2812,left
54,1,binary,37,1,trial,1391579.0,1400662.0,9083.0,37,R,1396525,1397047,524,1496.4,569.1,2689,right
54,1,binary,37,1,trial,1391579.0,1400662.0,9083.0,37,R,1397075,1397677,604,1378.4,511.5,2775,right
54,1,binary,37,1,trial,1391579.0,1400662.0,9083.0,37,R,1397739,1398017,280,475.0,570.9,3042,left
54,1,binary,37,1,trial,1391579.0,1400662.0,9083.0,37,R,1398039,1398331,294,423.3,599.1,2994,left
54,1,binary,37,1,trial,1391579.0,1400662.0,9083.0,37,R,1398353,1398613,262,524.7,589.2,2895,left
54,1,binary,37,1,trial,1391579.0,1400662.0,9083.0,37,R,1398665,1398795,132,989.5,449.9,2812,NA
54,1,binary,37,1,trial,1391579.0,1400662.0,9083.0,37,R,1398837,1399155,320,542.1,419.2,2875,left
54,1,binary,37,1,trial,1391579.0,1400662.0,9083.0,37,R,1399193,1399585,394,371.9,478.4,2875,left
54,1,binary,37,1,trial,1391579.0,1400662.0,9083.0,37,R,1399627,1399845,220,657.2,584.8,2870,left
54,1,binary,37,1,trial,1391579.0,1400662.0,9083.0,37,R,1399855,1400107,254,629.0,569.9,2954,left
54,1,binary,37,1,trial,1391579.0,1400662.0,9083.0,37,R,1400131,1400937,808,454.3,540.6,2919,left
54,1,binary,38,2,fixationCross,1401578.0,1405212.0,3634.0,38,R,1401071,1401449,380,1016.5,479.0,2888,NA
54,1,binary,38,2,trial,1401578.0,1405212.0,3634.0,38,R,1401469,1401721,254,964.1,536.6,3176,NA
54,1,binary,38,2,trial,1401578.0,1405212.0,3634.0,38,R,1401765,1402085,322,474.4,532.0,3205,left
54,1,binary,38,2,trial,1401578.0,1405212.0,3634.0,38,R,1402099,1402293,196,422.6,512.1,2840,left
54,1,binary,38,2,trial,1401578.0,1405212.0,3634.0,38,R,1402359,1402587,230,1456.8,528.2,2596,right
54,1,binary,38,2,trial,1401578.0,1405212.0,3634.0,38,R,1402603,1403421,820,1412.9,577.4,2597,right
54,1,binary,38,2,trial,1401578.0,1405212.0,3634.0,38,R,1403449,1403677,230,1605.3,633.5,2710,right
54,1,binary,38,2,trial,1401578.0,1405212.0,3634.0,38,R,1403703,1404033,332,1425.3,546.6,2867,right
54,1,binary,38,2,trial,1401578.0,1405212.0,3634.0,38,R,1404051,1404343,294,1507.4,519.1,2864,right
54,1,binary,38,2,postResponse,1401578.0,1405212.0,3634.0,38,R,1404365,1405545,1182,1391.4,536.7,2905,right
54,1,binary,39,2,fixationCross,1406278.0,1419045.0,12767.0,39,R,1405621,1405691,72,1381.5,544.9,2999,right
54,1,binary,39,2,fixationCross,1406278.0,1419045.0,12767.0,39,R,1405735,1405979,246,1129.7,542.2,3123,NA
54,1,binary,39,2,trial,1406278.0,1419045.0,12767.0,39,R,1406005,1406473,470,960.9,559.1,3249,NA
54,1,binary,39,2,trial,1406278.0,1419045.0,12767.0,39,R,1406519,1406779,262,513.3,463.6,3171,left
54,1,binary,39,2,trial,1406278.0,1419045.0,12767.0,39,R,1406833,1407001,170,1268.8,447.1,2791,right
54,1,binary,39,2,trial,1406278.0,1419045.0,12767.0,39,R,1407015,1407349,336,1329.1,441.6,2723,right
54,1,binary,39,2,trial,1406278.0,1419045.0,12767.0,39,R,1407391,1407549,160,1655.0,570.8,2686,right
54,1,binary,39,2,trial,1406278.0,1419045.0,12767.0,39,R,1407617,1407865,250,458.6,579.7,2829,left
54,1,binary,39,2,trial,1406278.0,1419045.0,12767.0,39,R,1407885,1408099,216,374.8,538.7,2772,left
54,1,binary,39,2,trial,1406278.0,1419045.0,12767.0,39,R,1408123,1408343,222,506.1,429.7,2778,left
54,1,binary,39,2,trial,1406278.0,1419045.0,12767.0,39,R,1408371,1408725,356,361.8,563.6,2807,left
54,1,binary,39,2,trial,1406278.0,1419045.0,12767.0,39,R,1408753,1409053,302,509.7,425.7,2849,left
54,1,binary,39,2,trial,1406278.0,1419045.0,12767.0,39,R,1409075,1409753,680,399.0,420.3,2906,left
54,1,binary,39,2,trial,1406278.0,1419045.0,12767.0,39,R,1409773,1410207,436,485.1,447.4,2936,left
54,1,binary,39,2,trial,1406278.0,1419045.0,12767.0,39,R,1410227,1410515,290,387.7,416.9,2947,left
54,1,binary,39,2,trial,1406278.0,1419045.0,12767.0,39,R,1410527,1411103,578,410.9,400.9,2896,left
54,1,binary,39,2,trial,1406278.0,1419045.0,12767.0,39,R,1411117,1411337,222,460.3,391.8,2933,left
54,1,binary,39,2,trial,1406278.0,1419045.0,12767.0,39,R,1411353,1411615,264,421.3,401.1,3001,left
54,1,binary,39,2,trial,1406278.0,1419045.0,12767.0,39,R,1411627,1412061,436,400.1,416.6,3087,left
54,1,binary,39,2,trial,1406278.0,1419045.0,12767.0,39,R,1412131,1412295,166,1379.7,416.0,2919,right
54,1,binary,39,2,trial,1406278.0,1419045.0,12767.0,39,R,1412315,1412545,232,1319.6,450.0,2897,right
54,1,binary,39,2,trial,1406278.0,1419045.0,12767.0,39,R,1412587,1412853,268,1641.2,577.9,2767,right
54,1,binary,39,2,trial,1406278.0,1419045.0,12767.0,39,R,1412919,1413181,264,554.3,402.3,2787,left
54,1,binary,39,2,trial,1406278.0,1419045.0,12767.0,39,R,1413201,1413585,386,479.1,421.5,2753,left
54,1,binary,39,2,trial,1406278.0,1419045.0,12767.0,39,R,1413613,1414135,524,364.0,568.9,2870,left
54,1,binary,39,2,trial,1406278.0,1419045.0,12767.0,39,R,1414169,1414615,448,471.3,464.4,2950,left
54,1,binary,39,2,trial,1406278.0,1419045.0,12767.0,39,R,1414633,1414913,282,438.5,442.4,3023,left
54,1,binary,39,2,trial,1406278.0,1419045.0,12767.0,39,R,1414931,1415323,394,495.0,449.7,2977,left
54,1,binary,39,2,trial,1406278.0,1419045.0,12767.0,39,R,1415333,1415629,298,450.8,444.4,2949,left
54,1,binary,39,2,trial,1406278.0,1419045.0,12767.0,39,R,1415647,1415909,264,385.0,413.0,2926,left
54,1,binary,39,2,trial,1406278.0,1419045.0,12767.0,39,R,1415919,1416835,918,407.8,397.0,2918,left
54,1,binary,39,2,trial,1406278.0,1419045.0,12767.0,39,R,1416851,1416977,128,472.6,374.5,2888,left
54,1,binary,39,2,trial,1406278.0,1419045.0,12767.0,39,R,1417097,1417233,138,1433.6,469.1,2803,right
54,1,binary,39,2,trial,1406278.0,1419045.0,12767.0,39,R,1417255,1417507,254,1319.9,447.8,2796,right
54,1,binary,39,2,trial,1406278.0,1419045.0,12767.0,39,R,1417523,1417717,196,1314.1,407.2,2751,right
54,1,binary,39,2,trial,1406278.0,1419045.0,12767.0,39,R,1417889,1418133,246,1393.8,475.3,2788,right
54,1,binary,39,2,trial,1406278.0,1419045.0,12767.0,39,R,1418147,1418399,254,1324.2,495.5,2790,right
54,1,binary,39,2,trial,1406278.0,1419045.0,12767.0,39,R,1418439,1418647,210,1659.0,581.2,2701,right
54,1,binary,39,2,trial,1406278.0,1419045.0,12767.0,39,R,1418693,1419139,448,1495.8,985.4,2680,NA
54,1,binary,39,2,postResponse,1406278.0,1419045.0,12767.0,39,R,1419193,1419379,188,1340.2,459.5,2825,right
54,1,binary,40,1,fixationCross,1420445.0,1423179.0,2734.0,40,R,1419491,1419747,258,785.9,403.7,3118,NA
54,1,binary,40,1,fixationCross,1420445.0,1423179.0,2734.0,40,R,1419771,1420133,364,887.6,445.6,3291,NA
54,1,binary,40,1,trial,1420445.0,1423179.0,2734.0,40,R,1420157,1420645,490,949.0,538.2,3382,NA
54,1,binary,40,1,trial,1420445.0,1423179.0,2734.0,40,R,1420693,1420993,302,494.9,550.5,3267,left
54,1,binary,40,1,trial,1420445.0,1423179.0,2734.0,40,R,1421019,1421285,268,369.8,653.3,2939,left
54,1,binary,40,1,trial,1420445.0,1423179.0,2734.0,40,R,1421353,1421497,146,1441.1,503.5,2671,right
54,1,binary,40,1,trial,1420445.0,1423179.0,2734.0,40,R,1421521,1421819,300,1323.9,482.9,2633,right
54,1,binary,40,1,trial,1420445.0,1423179.0,2734.0,40,R,1421859,1422047,190,1655.0,444.8,2657,right
54,1,binary,40,1,trial,1420445.0,1423179.0,2734.0,40,R,1422117,1422641,526,530.8,498.3,2794,left
54,1,binary,40,1,trial,1420445.0,1423179.0,2734.0,40,R,1422661,1423441,782,409.7,477.6,2772,left
54,1,binary,41,1,fixationCross,1424246.0,1428196.0,3950.0,41,R,1423583,1423665,84,785.8,430.7,2808,NA
54,1,binary,41,1,fixationCross,1424246.0,1428196.0,3950.0,41,R,1423707,1423941,236,1032.8,456.4,2832,NA
54,1,binary,41,1,trial,1424246.0,1428196.0,3950.0,41,R,1423961,1424393,434,968.4,528.0,3052,NA
54,1,binary,41,1,trial,1424246.0,1428196.0,3950.0,41,R,1424437,1424603,168,564.5,508.6,3181,left
54,1,binary,41,1,trial,1424246.0,1428196.0,3950.0,41,R,1424661,1424963,304,1448.5,442.8,2731,right
54,1,binary,41,1,trial,1424246.0,1428196.0,3950.0,41,R,1424981,1425293,314,1521.2,458.5,2637,right
54,1,binary,41,1,trial,1424246.0,1428196.0,3950.0,41,R,1425315,1425707,394,1409.4,417.9,2792,right
54,1,binary,41,1,trial,1424246.0,1428196.0,3950.0,41,R,1425777,1426061,286,455.9,480.4,3050,left
54,1,binary,41,1,trial,1424246.0,1428196.0,3950.0,41,R,1426087,1426399,314,556.4,381.5,2979,left
54,1,binary,41,1,trial,1424246.0,1428196.0,3950.0,41,R,1426425,1426711,288,478.8,537.0,2991,left
54,1,binary,41,1,trial,1424246.0,1428196.0,3950.0,41,R,1426731,1427441,712,459.1,496.6,3054,left
54,1,binary,41,1,trial,1424246.0,1428196.0,3950.0,41,R,1427465,1427743,280,557.5,408.0,3029,left
54,1,binary,41,1,trial,1424246.0,1428196.0,3950.0,41,R,1427797,1428035,240,481.3,931.6,3009,NA
54,1,binary,41,1,trial,1424246.0,1428196.0,3950.0,41,R,1428089,1428369,282,519.2,510.6,2961,left
54,1,binary,41,1,trial,1424246.0,1428196.0,3950.0,41,R,1428429,1428507,80,326.6,152.7,2898,NA
54,1,binary,42,1,fixationCross,1429312.0,1434429.0,5117.0,42,R,1428603,1428755,154,164.9,-94.6,2935,NA
54,1,binary,42,1,fixationCross,1429312.0,1434429.0,5117.0,42,R,1428823,1428989,168,887.8,387.5,2955,NA
54,1,binary,42,1,trial,1429312.0,1434429.0,5117.0,42,R,1429015,1429463,450,962.3,536.3,3018,NA
54,1,binary,42,1,trial,1429312.0,1434429.0,5117.0,42,R,1429509,1429709,202,496.7,488.8,3314,left
54,1,binary,42,1,trial,1429312.0,1434429.0,5117.0,42,R,1429733,1430033,302,379.2,491.4,3080,left
54,1,binary,42,1,trial,1429312.0,1434429.0,5117.0,42,R,1430051,1430229,180,439.9,505.3,3019,left
54,1,binary,42,1,trial,1429312.0,1434429.0,5117.0,42,R,1430299,1430703,406,1346.3,471.8,3025,right
54,1,binary,42,1,trial,1429312.0,1434429.0,5117.0,42,R,1430757,1431013,258,491.5,503.0,3268,left
54,1,binary,42,1,trial,1429312.0,1434429.0,5117.0,42,R,1431035,1431297,264,408.3,538.1,3180,left
54,1,binary,42,1,trial,1429312.0,1434429.0,5117.0,42,R,1431317,1431547,232,460.6,482.6,3139,left
54,1,binary,42,1,trial,1429312.0,1434429.0,5117.0,42,R,1431609,1431851,244,1440.5,489.6,2953,right
54,1,binary,42,1,trial,1429312.0,1434429.0,5117.0,42,R,1431879,1432135,258,1472.6,374.6,2913,right
54,1,binary,42,1,trial,1429312.0,1434429.0,5117.0,42,R,1432199,1432495,298,473.2,531.7,2974,left
54,1,binary,42,1,trial,1429312.0,1434429.0,5117.0,42,R,1432521,1432883,364,553.8,452.8,2952,left
54,1,binary,42,1,trial,1429312.0,1434429.0,5117.0,42,R,1432953,1433471,520,1467.0,467.0,2761,right
54,1,binary,42,1,trial,1429312.0,1434429.0,5117.0,42,R,1433537,1434057,522,488.6,565.2,2805,left
54,1,binary,42,1,trial,1429312.0,1434429.0,5117.0,42,R,1434083,1434651,570,410.7,488.7,2867,left
54,1,binary,42,1,postResponse,1429312.0,1434429.0,5117.0,42,R,1434699,1434763,66,484.2,646.1,2891,left
54,1,binary,43,2,fixationCross,1435596.0,1441712.0,6116.0,43,R,1434863,1435057,196,343.3,196.4,2935,NA
54,1,binary,43,2,fixationCross,1435596.0,1441712.0,6116.0,43,R,1435119,1435267,150,1120.1,315.3,2964,NA
54,1,binary,43,2,fixationCross,1435596.0,1441712.0,6116.0,43,R,1435305,1435529,226,952.6,552.1,3065,NA
54,1,binary,43,2,trial,1435596.0,1441712.0,6116.0,43,R,1435537,1435779,244,964.6,543.1,3183,NA
54,1,binary,43,2,trial,1435596.0,1441712.0,6116.0,43,R,1435821,1436095,276,568.1,541.7,3229,left
54,1,binary,43,2,trial,1435596.0,1441712.0,6116.0,43,R,1436115,1436233,120,458.3,563.6,3017,left
54,1,binary,43,2,trial,1435596.0,1441712.0,6116.0,43,R,1436297,1436527,232,1482.8,461.6,2774,right
54,1,binary,43,2,trial,1435596.0,1441712.0,6116.0,43,R,1436549,1436923,376,1600.4,460.3,2747,right
54,1,binary,43,2,trial,1435596.0,1441712.0,6116.0,43,R,1436961,1437235,276,1410.4,407.2,2847,right
54,1,binary,43,2,trial,1435596.0,1441712.0,6116.0,43,R,1437293,1437507,216,563.6,548.8,3063,left
54,1,binary,43,2,trial,1435596.0,1441712.0,6116.0,43,R,1437531,1437811,282,430.0,573.9,3059,left
54,1,binary,43,2,trial,1435596.0,1441712.0,6116.0,43,R,1437829,1437987,160,357.8,570.9,3022,left
54,1,binary,43,2,trial,1435596.0,1441712.0,6116.0,43,R,1438003,1438227,226,301.8,567.2,2997,left
54,1,binary,43,2,trial,1435596.0,1441712.0,6116.0,43,R,1438265,1438489,226,536.6,496.3,2978,left
54,1,binary,43,2,trial,1435596.0,1441712.0,6116.0,43,R,1438509,1438645,138,438.8,539.4,2971,left
54,1,binary,43,2,trial,1435596.0,1441712.0,6116.0,43,R,1438665,1439007,344,364.0,572.3,2968,left
54,1,binary,43,2,trial,1435596.0,1441712.0,6116.0,43,R,1439033,1439203,172,591.7,589.0,2939,left
54,1,binary,43,2,trial,1435596.0,1441712.0,6116.0,43,R,1439265,1439459,196,1469.3,499.5,2753,right
54,1,binary,43,2,trial,1435596.0,1441712.0,6116.0,43,R,1439481,1439799,320,1584.6,459.1,2718,right
54,1,binary,43,2,trial,1435596.0,1441712.0,6116.0,43,R,1439833,1440163,332,1476.7,650.5,2716,right
54,1,binary,43,2,trial,1435596.0,1441712.0,6116.0,43,R,1440201,1440779,580,1428.7,418.3,2769,right
54,1,binary,43,2,trial,1435596.0,1441712.0,6116.0,43,R,1440805,1441359,556,1614.3,478.9,2767,right
54,1,binary,43,2,trial,1435596.0,1441712.0,6116.0,43,R,1441383,1441935,554,1438.1,455.3,2855,right
54,1,binary,43,2,postResponse,1435596.0,1441712.0,6116.0,43,R,1442003,1442045,44,1176.2,332.8,2912,NA
54,1,binary,44,2,fixationCross,1442763.0,1450929.0,8166.0,44,R,1442119,1442187,70,1146.6,341.2,2945,NA
54,1,binary,44,2,fixationCross,1442763.0,1450929.0,8166.0,44,R,1442237,1442457,222,758.7,443.7,3075,NA
54,1,binary,44,2,trial,1442763.0,1450929.0,8166.0,44,R,1442485,1442941,458,949.6,529.6,3181,NA
54,1,binary,44,2,trial,1442763.0,1450929.0,8166.0,44,R,1442985,1443181,198,573.2,574.6,3245,left
54,1,binary,44,2,trial,1442763.0,1450929.0,8166.0,44,R,1443239,1443517,280,1406.1,524.4,2816,right
54,1,binary,44,2,trial,1442763.0,1450929.0,8166.0,44,R,1443577,1443843,268,524.5,565.6,2921,left
54,1,binary,44,2,trial,1442763.0,1450929.0,8166.0,44,R,1443861,1444267,408,491.4,490.0,2847,left
54,1,binary,44,2,trial,1442763.0,1450929.0,8166.0,44,R,1444455,1444711,258,1539.4,592.5,2592,right
54,1,binary,44,2,trial,1442763.0,1450929.0,8166.0,44,R,1444775,1444991,218,406.5,611.5,2845,left
54,1,binary,44,2,trial,1442763.0,1450929.0,8166.0,44,R,1445017,1445327,312,565.4,594.4,2887,left
54,1,binary,44,2,trial,1442763.0,1450929.0,8166.0,44,R,1445345,1446117,774,563.9,555.5,2844,left
54,1,binary,44,2,trial,1442763.0,1450929.0,8166.0,44,R,1446137,1446453,318,516.4,494.8,2818,left
54,1,binary,44,2,trial,1442763.0,1450929.0,8166.0,44,R,1446465,1446901,438,480.6,472.4,2761,left
54,1,binary,44,2,trial,1442763.0,1450929.0,8166.0,44,R,1446913,1447199,288,503.6,449.8,2698,left
54,1,binary,44,2,trial,1442763.0,1450929.0,8166.0,44,R,1447245,1447451,208,408.8,697.9,2708,left
54,1,binary,44,2,trial,1442763.0,1450929.0,8166.0,44,R,1447471,1447739,270,519.3,643.9,2751,left
54,1,binary,44,2,trial,1442763.0,1450929.0,8166.0,44,R,1447755,1448799,1046,533.8,595.3,2795,left
54,1,binary,44,2,trial,1442763.0,1450929.0,8166.0,44,R,1448981,1449355,376,1535.5,551.5,2656,right
54,1,binary,44,2,trial,1442763.0,1450929.0,8166.0,44,R,1449369,1450023,656,1480.0,571.3,2718,right
54,1,binary,44,2,trial,1442763.0,1450929.0,8166.0,44,R,1450305,1450769,466,1538.4,577.3,2857,right
54,1,binary,44,2,postResponse,1442763.0,1450929.0,8166.0,44,R,1450787,1451263,478,1464.0,547.5,2836,right
54,1,binary,45,2,fixationCross,1452012.0,1456029.0,4017.0,45,R,1451363,1451711,350,1099.5,454.8,2964,NA
54,1,binary,45,2,trial,1452012.0,1456029.0,4017.0,45,R,1451739,1452167,430,960.4,545.3,3253,NA
54,1,binary,45,2,trial,1452012.0,1456029.0,4017.0,45,R,1452209,1452449,242,556.0,506.8,3318,left
54,1,binary,45,2,trial,1452012.0,1456029.0,4017.0,45,R,1452517,1452781,266,1448.5,541.2,2862,right
54,1,binary,45,2,trial,1452012.0,1456029.0,4017.0,45,R,1452797,1452983,188,1482.9,590.7,2792,right
54,1,binary,45,2,trial,1452012.0,1456029.0,4017.0,45,R,1453003,1453203,202,1593.5,622.1,2843,right
54,1,binary,45,2,trial,1452012.0,1456029.0,4017.0,45,R,1453231,1453417,188,1512.9,491.3,2848,right
54,1,binary,45,2,trial,1452012.0,1456029.0,4017.0,45,R,1453483,1453631,150,481.5,556.6,2973,left
54,1,binary,45,2,trial,1452012.0,1456029.0,4017.0,45,R,1453657,1453855,200,349.4,435.3,2959,left
54,1,binary,45,2,trial,1452012.0,1456029.0,4017.0,45,R,1453879,1454663,786,559.2,434.1,2837,left
54,1,binary,45,2,trial,1452012.0,1456029.0,4017.0,45,R,1454689,1454887,200,331.7,437.4,2780,left
54,1,binary,45,2,trial,1452012.0,1456029.0,4017.0,45,R,1454961,1455371,412,1498.6,456.5,2699,right
54,1,binary,45,2,trial,1452012.0,1456029.0,4017.0,45,R,1455407,1455783,378,1560.5,654.3,2784,right
54,1,binary,45,2,trial,1452012.0,1456029.0,4017.0,45,R,1455805,1456077,274,1600.7,607.6,2816,right
54,1,binary,45,2,trial,1452012.0,1456029.0,4017.0,45,R,1456089,1456275,188,1631.7,618.3,2840,right
54,1,binary,46,1,fixationCross,1457045.0,1463863.0,6818.0,46,R,1456437,1456745,310,787.4,414.8,3061,NA
54,1,binary,46,1,fixationCross,1457045.0,1463863.0,6818.0,46,R,1456775,1456949,176,972.7,536.2,3167,NA
54,1,binary,46,1,trial,1457045.0,1463863.0,6818.0,46,R,1456957,1457193,238,953.6,545.7,3270,NA
54,1,binary,46,1,trial,1457045.0,1463863.0,6818.0,46,R,1457235,1457437,204,548.7,546.3,3318,left
54,1,binary,46,1,trial,1457045.0,1463863.0,6818.0,46,R,1457495,1457689,196,1386.6,550.6,2840,right
54,1,binary,46,1,trial,1457045.0,1463863.0,6818.0,46,R,1457713,1458143,432,1532.4,558.0,2628,right
54,1,binary,46,1,trial,1457045.0,1463863.0,6818.0,46,R,1458167,1458385,220,1391.2,513.3,2581,right
54,1,binary,46,1,trial,1457045.0,1463863.0,6818.0,46,R,1458443,1458695,254,541.8,501.9,2739,left
54,1,binary,46,1,trial,1457045.0,1463863.0,6818.0,46,R,1458713,1458835,124,488.9,519.8,2779,left
54,1,binary,46,1,trial,1457045.0,1463863.0,6818.0,46,R,1458901,1459133,234,1494.7,522.4,2687,right
54,1,binary,46,1,trial,1457045.0,1463863.0,6818.0,46,R,1459153,1459423,272,1414.5,532.2,2687,right
54,1,binary,46,1,trial,1457045.0,1463863.0,6818.0,46,R,1459481,1459679,200,578.7,510.5,2825,left
54,1,binary,46,1,trial,1457045.0,1463863.0,6818.0,46,R,1459701,1461213,1514,494.5,514.8,2794,left
54,1,binary,46,1,trial,1457045.0,1463863.0,6818.0,46,R,1461227,1461755,530,507.9,541.0,2887,left
54,1,binary,46,1,trial,1457045.0,1463863.0,6818.0,46,R,1461771,1462233,464,470.8,491.6,2843,left
54,1,binary,46,1,trial,1457045.0,1463863.0,6818.0,46,R,1462283,1462307,26,500.4,990.0,2847,NA
54,1,binary,46,1,trial,1457045.0,1463863.0,6818.0,46,R,1462331,1462365,36,498.6,993.3,2840,NA
54,1,binary,46,1,trial,1457045.0,1463863.0,6818.0,46,R,1462387,1462497,112,495.3,990.9,2844,NA
54,1,binary,46,1,trial,1457045.0,1463863.0,6818.0,46,R,1462509,1462637,130,465.2,976.5,2857,NA
54,1,binary,46,1,trial,1457045.0,1463863.0,6818.0,46,R,1462695,1462853,160,553.5,444.0,2869,left
54,1,binary,46,1,trial,1457045.0,1463863.0,6818.0,46,R,1462871,1463187,318,511.7,480.4,2856,left
54,1,binary,46,1,trial,1457045.0,1463863.0,6818.0,46,R,1463207,1463451,246,474.2,557.9,2893,left
54,1,binary,46,1,trial,1457045.0,1463863.0,6818.0,46,R,1463465,1463759,296,504.8,533.2,2920,left
54,1,binary,46,1,trial,1457045.0,1463863.0,6818.0,46,R,1463769,1464113,346,531.4,523.6,2920,left
54,1,binary,47,1,fixationCross,1464963.0,1471180.0,6217.0,47,R,1464295,1464417,124,1339.2,410.4,2856,right
54,1,binary,47,1,fixationCross,1464963.0,1471180.0,6217.0,47,R,1464471,1464641,172,782.9,449.7,3038,NA
54,1,binary,47,1,trial,1464963.0,1471180.0,6217.0,47,R,1464669,1465111,444,962.1,543.8,3153,NA
54,1,binary,47,1,trial,1464963.0,1471180.0,6217.0,47,R,1465151,1465341,192,570.6,535.3,3223,left
