participantNo,block,task,blockTrial,response,trialStage,trialStartTime,trialFinishTime,rt,trial,eye,fixStart,fixEnd,fixLength,fixPosX,fixPosY,dilation,aoi
36,1,binary,1,2,fixationCross,2098931.0,2102881.0,3950.0,1,R,2098284,2098700,418,931.7,448.5,4942,NA
36,1,binary,1,2,fixationCross,2098931.0,2102881.0,3950.0,1,R,2098724,2098848,126,971.5,526.7,4896,NA
36,1,binary,1,2,trial,2098931.0,2102881.0,3950.0,1,R,2098858,2099182,326,982.2,544.9,4901,NA
36,1,binary,1,2,trial,2098931.0,2102881.0,3950.0,1,R,2099230,2099378,150,567.2,568.5,4809,left
36,1,binary,1,2,trial,2098931.0,2102881.0,3950.0,1,R,2099436,2099542,108,1289.4,881.7,4576,NA
36,1,binary,1,2,trial,2098931.0,2102881.0,3950.0,1,R,2099568,2099898,332,1436.5,940.8,4654,NA
36,1,binary,1,2,trial,2098931.0,2102881.0,3950.0,1,R,2099950,2100076,128,1398.7,492.4,4832,right
36,1,binary,1,2,trial,2098931.0,2102881.0,3950.0,1,R,2100102,2100284,184,1462.0,519.9,4924,right
36,1,binary,1,2,trial,2098931.0,2102881.0,3950.0,1,R,2100302,2100476,176,1490.2,531.7,4833,right
36,1,binary,1,2,trial,2098931.0,2102881.0,3950.0,1,R,2100554,2100754,202,496.8,569.9,5032,left
36,1,binary,1,2,trial,2098931.0,2102881.0,3950.0,1,R,2100774,2101120,348,571.3,574.3,4979,left
36,1,binary,1,2,trial,2098931.0,2102881.0,3950.0,1,R,2101146,2101258,114,439.9,496.8,4942,left
36,1,binary,1,2,trial,2098931.0,2102881.0,3950.0,1,R,2101330,2101632,304,1465.5,505.6,4862,right
36,1,binary,1,2,trial,2098931.0,2102881.0,3950.0,1,R,2101658,2101736,80,1332.8,551.2,4997,right
36,1,binary,1,2,trial,2098931.0,2102881.0,3950.0,1,R,2101812,2102302,492,498.3,586.6,5152,left
36,1,binary,1,2,trial,2098931.0,2102881.0,3950.0,1,R,2102334,2102576,244,564.0,792.9,5185,NA
36,1,binary,1,2,trial,2098931.0,2102881.0,3950.0,1,R,2102642,2102762,122,1508.3,921.4,5123,NA
36,1,binary,1,2,postResponse,2098931.0,2102881.0,3950.0,1,R,2102784,2103262,480,1432.0,980.0,5135,NA
36,1,binary,2,1,fixationCross,2104147.0,2107164.0,3017.0,2,R,2103364,2103684,322,1311.0,582.2,5095,right
36,1,binary,2,1,fixationCross,2104147.0,2107164.0,3017.0,2,R,2103722,2103834,114,1091.7,492.6,5301,NA
36,1,binary,2,1,trial,2104147.0,2107164.0,3017.0,2,R,2103858,2104302,446,988.9,527.2,5406,NA
36,1,binary,2,1,trial,2104147.0,2107164.0,3017.0,2,R,2104350,2104554,206,543.1,484.7,5266,left
36,1,binary,2,1,trial,2104147.0,2107164.0,3017.0,2,R,2104576,2104816,242,485.0,505.8,4920,left
36,1,binary,2,1,trial,2104147.0,2107164.0,3017.0,2,R,2104850,2104950,102,335.6,506.1,4764,left
36,1,binary,2,1,trial,2104147.0,2107164.0,3017.0,2,R,2105028,2105308,282,1425.2,518.7,4435,right
36,1,binary,2,1,trial,2104147.0,2107164.0,3017.0,2,R,2105328,2105566,240,1497.4,518.2,4478,right
36,1,binary,2,1,trial,2104147.0,2107164.0,3017.0,2,R,2105586,2105724,140,1538.2,489.5,4474,right
36,1,binary,2,1,trial,2104147.0,2107164.0,3017.0,2,R,2105798,2106112,316,524.1,460.8,4673,left
36,1,binary,2,1,trial,2104147.0,2107164.0,3017.0,2,R,2106136,2106320,186,487.8,481.0,4712,left
36,1,binary,2,1,trial,2104147.0,2107164.0,3017.0,2,R,2106354,2106630,278,321.4,491.6,4775,left
36,1,binary,2,1,trial,2104147.0,2107164.0,3017.0,2,R,2106638,2107468,832,325.0,517.6,4703,left
36,1,binary,3,1,fixationCross,2108131.0,2110664.0,2533.0,3,R,2107632,2107812,182,1067.0,483.9,4684,NA
36,1,binary,3,1,fixationCross,2108131.0,2110664.0,2533.0,3,R,2107834,2108044,212,960.8,487.7,4771,NA
36,1,binary,3,1,trial,2108131.0,2110664.0,2533.0,3,R,2108060,2108356,298,978.4,535.2,4865,NA
36,1,binary,3,1,trial,2108131.0,2110664.0,2533.0,3,R,2108404,2108890,488,1392.6,537.9,4443,right
36,1,binary,3,1,trial,2108131.0,2110664.0,2533.0,3,R,2108906,2109142,238,1366.0,501.7,4363,right
36,1,binary,3,1,trial,2108131.0,2110664.0,2533.0,3,R,2109156,2109466,312,1390.7,517.0,4424,right
36,1,binary,3,1,trial,2108131.0,2110664.0,2533.0,3,R,2109538,2109706,170,478.5,512.5,4622,left
36,1,binary,3,1,trial,2108131.0,2110664.0,2533.0,3,R,2109728,2110366,640,510.9,447.6,4516,left
36,1,binary,3,1,trial,2108131.0,2110664.0,2533.0,3,R,2110404,2110580,178,320.4,461.5,4579,left
36,1,binary,3,1,trial,2108131.0,2110664.0,2533.0,3,R,2110598,2110646,50,301.0,468.8,4635,left
36,1,binary,3,1,postResponse,2108131.0,2110664.0,2533.0,3,R,2110672,2111002,332,482.4,445.3,4654,left
36,1,binary,4,2,fixationCross,2111581.0,2115847.0,4266.0,4,R,2111102,2111296,196,884.2,483.3,4667,NA
36,1,binary,4,2,fixationCross,2111581.0,2115847.0,4266.0,4,R,2111322,2111480,160,1003.2,513.9,4671,NA
36,1,binary,4,2,trial,2111581.0,2115847.0,4266.0,4,R,2111494,2111808,316,964.5,533.7,4761,NA
36,1,binary,4,2,trial,2111581.0,2115847.0,4266.0,4,R,2111856,2112052,198,1382.1,464.6,4566,right
36,1,binary,4,2,trial,2111581.0,2115847.0,4266.0,4,R,2112076,2112308,234,1509.0,547.2,4448,right
36,1,binary,4,2,trial,2111581.0,2115847.0,4266.0,4,R,2112332,2112536,206,1374.7,510.9,4569,right
36,1,binary,4,2,trial,2111581.0,2115847.0,4266.0,4,R,2112548,2112780,234,1402.0,524.6,4594,right
36,1,binary,4,2,trial,2111581.0,2115847.0,4266.0,4,R,2112806,2113070,266,1558.8,491.5,4581,right
36,1,binary,4,2,trial,2111581.0,2115847.0,4266.0,4,R,2113086,2113208,124,1488.2,505.2,4618,right
36,1,binary,4,2,trial,2111581.0,2115847.0,4266.0,4,R,2113246,2113462,218,1343.5,407.2,4629,right
36,1,binary,4,2,trial,2111581.0,2115847.0,4266.0,4,R,2113472,2113682,212,1364.7,420.3,4551,right
36,1,binary,4,2,trial,2111581.0,2115847.0,4266.0,4,R,2113708,2113884,178,1405.0,497.6,4538,right
36,1,binary,4,2,trial,2111581.0,2115847.0,4266.0,4,R,2113894,2114062,170,1404.6,518.0,4592,right
36,1,binary,4,2,trial,2111581.0,2115847.0,4266.0,4,R,2114140,2114420,282,522.4,576.6,4890,left
36,1,binary,4,2,trial,2111581.0,2115847.0,4266.0,4,R,2114434,2114568,136,532.1,598.9,4854,left
36,1,binary,4,2,trial,2111581.0,2115847.0,4266.0,4,R,2114640,2114906,268,1482.4,473.9,4555,right
36,1,binary,4,2,trial,2111581.0,2115847.0,4266.0,4,R,2114940,2115128,190,1420.2,597.2,4616,right
36,1,binary,4,2,trial,2111581.0,2115847.0,4266.0,4,R,2115156,2115398,244,1545.3,534.1,4661,right
36,1,binary,4,2,trial,2111581.0,2115847.0,4266.0,4,R,2115424,2115828,406,1411.8,472.8,4663,right
36,1,binary,4,2,postResponse,2111581.0,2115847.0,4266.0,4,R,2115908,2116224,318,582.2,607.9,4967,left
36,1,binary,5,2,fixationCross,2117031.0,2120564.0,3533.0,5,R,2116300,2116582,284,853.2,504.5,4877,NA
36,1,binary,5,2,fixationCross,2117031.0,2120564.0,3533.0,5,R,2116606,2116734,130,814.5,534.8,4984,NA
36,1,binary,5,2,fixationCross,2117031.0,2120564.0,3533.0,5,R,2116758,2116880,124,951.7,529.3,5057,NA
36,1,binary,5,2,trial,2117031.0,2120564.0,3533.0,5,R,2116890,2117286,398,977.8,540.3,5021,NA
36,1,binary,5,2,trial,2117031.0,2120564.0,3533.0,5,R,2117338,2117482,146,1419.2,529.7,4585,right
36,1,binary,5,2,trial,2117031.0,2120564.0,3533.0,5,R,2117504,2117642,140,1524.0,499.8,4348,right
36,1,binary,5,2,trial,2117031.0,2120564.0,3533.0,5,R,2117664,2118340,678,1456.6,424.4,4290,right
36,1,binary,5,2,trial,2117031.0,2120564.0,3533.0,5,R,2118368,2118634,268,1497.9,508.9,4421,right
36,1,binary,5,2,trial,2117031.0,2120564.0,3533.0,5,R,2118654,2118754,102,1455.9,453.4,4437,right
36,1,binary,5,2,trial,2117031.0,2120564.0,3533.0,5,R,2118828,2118978,152,527.9,516.0,4701,left
36,1,binary,5,2,trial,2117031.0,2120564.0,3533.0,5,R,2119002,2119152,152,431.0,534.4,4731,left
36,1,binary,5,2,trial,2117031.0,2120564.0,3533.0,5,R,2119174,2119600,428,352.4,551.9,4696,left
36,1,binary,5,2,trial,2117031.0,2120564.0,3533.0,5,R,2119622,2119712,92,301.0,499.4,4588,left
36,1,binary,5,2,trial,2117031.0,2120564.0,3533.0,5,R,2119786,2119974,190,1390.2,492.1,4343,right
36,1,binary,5,2,trial,2117031.0,2120564.0,3533.0,5,R,2119994,2120238,246,1453.3,463.6,4355,right
36,1,binary,5,2,trial,2117031.0,2120564.0,3533.0,5,R,2120262,2120484,224,1542.1,533.0,4422,right
36,1,binary,5,2,postResponse,2117031.0,2120564.0,3533.0,5,R,2120496,2120922,428,1579.8,537.2,4330,right
36,1,binary,6,1,fixationCross,2121515.0,2126214.0,4699.0,6,R,2121022,2121068,48,1179.4,497.3,4453,NA
36,1,binary,6,1,fixationCross,2121515.0,2126214.0,4699.0,6,R,2121092,2121348,258,1017.0,491.2,4551,NA
36,1,binary,6,1,trial,2121515.0,2126214.0,4699.0,6,R,2121368,2121688,322,967.4,530.9,4724,NA
36,1,binary,6,1,trial,2121515.0,2126214.0,4699.0,6,R,2121736,2122058,324,544.2,502.9,4572,left
36,1,binary,6,1,trial,2121515.0,2126214.0,4699.0,6,R,2122078,2122256,180,619.5,481.3,4285,left
36,1,binary,6,1,trial,2121515.0,2126214.0,4699.0,6,R,2122322,2122718,398,1492.8,504.7,4048,right
36,1,binary,6,1,trial,2121515.0,2126214.0,4699.0,6,R,2122740,2122918,180,1558.4,456.8,4065,right
36,1,binary,6,1,trial,2121515.0,2126214.0,4699.0,6,R,2122952,2123260,310,1454.6,580.5,4119,right
36,1,binary,6,1,trial,2121515.0,2126214.0,4699.0,6,R,2123294,2123418,126,1336.5,567.6,4178,right
36,1,binary,6,1,trial,2121515.0,2126214.0,4699.0,6,R,2123482,2123704,224,598.8,503.1,4474,left
36,1,binary,6,1,trial,2121515.0,2126214.0,4699.0,6,R,2123732,2123862,132,457.4,521.1,4521,left
36,1,binary,6,1,trial,2121515.0,2126214.0,4699.0,6,R,2123884,2124102,220,332.3,503.6,4462,left
36,1,binary,6,1,trial,2121515.0,2126214.0,4699.0,6,R,2124128,2124298,172,538.1,464.7,4384,left
36,1,binary,6,1,trial,2121515.0,2126214.0,4699.0,6,R,2124318,2124736,420,630.2,475.7,4417,left
36,1,binary,6,1,trial,2121515.0,2126214.0,4699.0,6,R,2124762,2124988,228,447.0,469.6,4474,left
36,1,binary,6,1,trial,2121515.0,2126214.0,4699.0,6,R,2125012,2125410,400,351.2,498.7,4521,left
36,1,binary,6,1,trial,2121515.0,2126214.0,4699.0,6,R,2125430,2125656,228,411.8,442.5,4506,left
36,1,binary,6,1,trial,2121515.0,2126214.0,4699.0,6,R,2125676,2126414,740,374.8,406.0,4508,left
36,1,binary,6,1,postResponse,2121515.0,2126214.0,4699.0,6,R,2126466,2126562,98,876.0,445.1,4536,NA
36,1,binary,7,2,fixationCross,2127264.0,2130848.0,3584.0,7,R,2126636,2126674,40,875.4,442.5,4621,NA
36,1,binary,7,2,fixationCross,2127264.0,2130848.0,3584.0,7,R,2126702,2126964,264,817.1,543.9,4712,NA
36,1,binary,7,2,trial,2127264.0,2130848.0,3584.0,7,R,2126988,2127494,508,957.6,534.9,4946,NA
36,1,binary,7,2,trial,2127264.0,2130848.0,3584.0,7,R,2127540,2128024,486,609.5,473.5,4463,left
36,1,binary,7,2,trial,2127264.0,2130848.0,3584.0,7,R,2128084,2128246,164,1283.9,523.0,4207,right
36,1,binary,7,2,trial,2127264.0,2130848.0,3584.0,7,R,2128264,2128514,252,1356.0,523.8,4188,right
36,1,binary,7,2,trial,2127264.0,2130848.0,3584.0,7,R,2128542,2128794,254,1540.7,492.3,4096,right
36,1,binary,7,2,trial,2127264.0,2130848.0,3584.0,7,R,2128812,2128954,144,1574.7,487.5,4110,right
36,1,binary,7,2,trial,2127264.0,2130848.0,3584.0,7,R,2128990,2129216,228,1453.0,654.8,4249,right
36,1,binary,7,2,trial,2127264.0,2130848.0,3584.0,7,R,2129244,2129424,182,1294.2,660.1,4357,right
36,1,binary,7,2,trial,2127264.0,2130848.0,3584.0,7,R,2129488,2129720,234,542.0,525.8,4585,left
36,1,binary,7,2,trial,2127264.0,2130848.0,3584.0,7,R,2129744,2129978,236,630.4,465.7,4556,left
36,1,binary,7,2,trial,2127264.0,2130848.0,3584.0,7,R,2130042,2130290,250,1414.8,573.5,4340,right
36,1,binary,7,2,trial,2127264.0,2130848.0,3584.0,7,R,2130312,2130684,374,1510.5,537.1,4291,right
36,1,binary,7,2,trial,2127264.0,2130848.0,3584.0,7,R,2130724,2131160,438,1436.9,834.9,4504,NA
36,1,binary,8,2,fixationCross,2132831.0,2135198.0,2367.0,8,R,2131258,2131434,178,865.5,392.1,4790,NA
36,1,binary,8,2,fixationCross,2132831.0,2135198.0,2367.0,8,R,2131452,2132530,1080,872.4,445.1,4936,NA
36,1,binary,8,2,fixationCross,2132831.0,2135198.0,2367.0,8,R,2132544,2132654,112,915.5,473.7,5013,NA
36,1,binary,8,2,trial,2132831.0,2135198.0,2367.0,8,R,2132676,2132904,230,963.0,498.3,5046,NA
36,1,binary,8,2,trial,2132831.0,2135198.0,2367.0,8,R,2132918,2133092,176,975.0,518.5,5142,NA
36,1,binary,8,2,trial,2132831.0,2135198.0,2367.0,8,R,2133142,2133352,212,1405.0,485.4,4650,right
36,1,binary,8,2,trial,2132831.0,2135198.0,2367.0,8,R,2133370,2133642,274,1463.7,491.0,4381,right
36,1,binary,8,2,trial,2132831.0,2135198.0,2367.0,8,R,2133654,2133944,292,1460.5,516.0,4390,right
36,1,binary,8,2,trial,2132831.0,2135198.0,2367.0,8,R,2134014,2134232,220,552.9,557.0,4580,left
36,1,binary,8,2,trial,2132831.0,2135198.0,2367.0,8,R,2134272,2134464,194,339.7,497.0,4606,left
36,1,binary,8,2,trial,2132831.0,2135198.0,2367.0,8,R,2134500,2134674,176,626.0,514.6,4692,left
36,1,binary,8,2,trial,2132831.0,2135198.0,2367.0,8,R,2134738,2135078,342,1456.5,489.6,4447,right
36,1,binary,8,2,trial,2132831.0,2135198.0,2367.0,8,R,2135098,2135478,382,1475.5,510.8,4405,right
36,1,binary,9,1,fixationCross,2136114.0,2139965.0,3851.0,9,R,2135636,2135808,174,1066.1,524.8,4534,NA
36,1,binary,9,1,fixationCross,2136114.0,2139965.0,3851.0,9,R,2135834,2136002,170,884.0,508.9,4662,NA
36,1,binary,9,1,trial,2136114.0,2139965.0,3851.0,9,R,2136024,2136282,260,978.1,532.2,4746,NA
36,1,binary,9,1,trial,2136114.0,2139965.0,3851.0,9,R,2136338,2136506,170,528.2,476.5,4680,left
36,1,binary,9,1,trial,2136114.0,2139965.0,3851.0,9,R,2136518,2136834,318,538.6,500.4,4390,left
36,1,binary,9,1,trial,2136114.0,2139965.0,3851.0,9,R,2136902,2137140,240,1446.6,469.4,4125,right
36,1,binary,9,1,trial,2136114.0,2139965.0,3851.0,9,R,2137162,2137326,166,1338.7,449.6,4188,right
36,1,binary,9,1,trial,2136114.0,2139965.0,3851.0,9,R,2137350,2137608,260,1446.5,454.2,4270,right
36,1,binary,9,1,trial,2136114.0,2139965.0,3851.0,9,R,2137678,2137886,210,532.5,485.7,4550,left
36,1,binary,9,1,trial,2136114.0,2139965.0,3851.0,9,R,2137898,2138558,662,526.4,507.6,4450,left
36,1,binary,9,1,trial,2136114.0,2139965.0,3851.0,9,R,2138624,2138804,182,1339.3,464.6,4232,right
36,1,binary,9,1,trial,2136114.0,2139965.0,3851.0,9,R,2138878,2139090,214,451.6,514.6,4465,left
36,1,binary,9,1,trial,2136114.0,2139965.0,3851.0,9,R,2139114,2139388,276,526.5,486.3,4537,left
36,1,binary,9,1,trial,2136114.0,2139965.0,3851.0,9,R,2139414,2139734,322,434.8,611.6,4511,left
36,1,binary,9,1,postResponse,2136114.0,2139965.0,3851.0,9,R,2139804,2140312,510,1341.4,472.5,4276,right
36,1,binary,10,1,fixationCross,2141015.0,2143314.0,2299.0,10,R,2140386,2140494,110,954.4,532.0,4516,NA
36,1,binary,10,1,fixationCross,2141015.0,2143314.0,2299.0,10,R,2140522,2140712,192,867.8,618.4,4595,NA
36,1,binary,10,1,trial,2141015.0,2143314.0,2299.0,10,R,2140736,2141172,438,960.4,541.6,4616,NA
36,1,binary,10,1,trial,2141015.0,2143314.0,2299.0,10,R,2141220,2141698,480,554.5,449.2,4444,left
36,1,binary,10,1,trial,2141015.0,2143314.0,2299.0,10,R,2141724,2141908,186,375.4,567.5,4372,left
36,1,binary,10,1,trial,2141015.0,2143314.0,2299.0,10,R,2141924,2142056,134,413.2,582.3,4404,left
36,1,binary,10,1,trial,2141015.0,2143314.0,2299.0,10,R,2142132,2142338,208,1460.2,522.3,4193,right
36,1,binary,10,1,trial,2141015.0,2143314.0,2299.0,10,R,2142358,2143088,732,1409.3,574.1,4246,right
36,1,binary,10,1,trial,2141015.0,2143314.0,2299.0,10,R,2143114,2143618,506,1459.5,517.0,4364,right
36,1,binary,11,1,fixationCross,2144381.0,2149064.0,4683.0,11,R,2143732,2143870,140,914.1,545.5,4746,NA
36,1,binary,11,1,fixationCross,2144381.0,2149064.0,4683.0,11,R,2143896,2144056,162,751.6,495.0,4873,NA
36,1,binary,11,1,fixationCross,2144381.0,2149064.0,4683.0,11,R,2144080,2144190,112,887.0,510.8,4935,NA
36,1,binary,11,1,trial,2144381.0,2149064.0,4683.0,11,R,2144212,2144598,388,966.9,548.3,4906,NA
36,1,binary,11,1,trial,2144381.0,2149064.0,4683.0,11,R,2144644,2144786,144,622.8,542.3,4868,left
36,1,binary,11,1,trial,2144381.0,2149064.0,4683.0,11,R,2144822,2145164,344,352.6,460.6,4488,left
36,1,binary,11,1,trial,2144381.0,2149064.0,4683.0,11,R,2145200,2145352,154,628.3,508.6,4312,left
36,1,binary,11,1,trial,2144381.0,2149064.0,4683.0,11,R,2145374,2145654,282,654.4,547.1,4373,left
36,1,binary,11,1,trial,2144381.0,2149064.0,4683.0,11,R,2145704,2145944,242,346.5,455.1,4463,left
36,1,binary,11,1,trial,2144381.0,2149064.0,4683.0,11,R,2145960,2146214,256,338.7,463.0,4429,left
36,1,binary,11,1,trial,2144381.0,2149064.0,4683.0,11,R,2146248,2146370,124,609.5,512.2,4449,left
36,1,binary,11,1,trial,2144381.0,2149064.0,4683.0,11,R,2146434,2146608,176,1414.6,488.8,4225,right
36,1,binary,11,1,trial,2144381.0,2149064.0,4683.0,11,R,2146632,2146856,226,1532.4,535.3,4207,right
36,1,binary,11,1,trial,2144381.0,2149064.0,4683.0,11,R,2146880,2147202,324,1598.8,582.8,4284,right
36,1,binary,11,1,trial,2144381.0,2149064.0,4683.0,11,R,2147268,2147374,108,778.2,550.1,4525,NA
36,1,binary,11,1,trial,2144381.0,2149064.0,4683.0,11,R,2147424,2147630,208,414.1,482.7,4488,left
36,1,binary,11,1,trial,2144381.0,2149064.0,4683.0,11,R,2147652,2147834,184,361.5,496.0,4434,left
36,1,binary,11,1,trial,2144381.0,2149064.0,4683.0,11,R,2147874,2147974,102,705.1,562.2,4363,left
36,1,binary,11,1,trial,2144381.0,2149064.0,4683.0,11,R,2148038,2148694,658,1472.1,536.2,4303,right
36,1,binary,11,1,trial,2144381.0,2149064.0,4683.0,11,R,2148784,2148956,174,544.6,888.6,4808,NA
36,1,binary,11,1,trial,2144381.0,2149064.0,4683.0,11,R,2148984,2149134,152,465.0,1006.2,4807,NA
36,1,binary,11,1,trial,2144381.0,2149064.0,4683.0,11,R,2149190,2149352,164,500.3,649.3,4750,left
36,1,binary,12,2,fixationCross,2149997.0,2153864.0,3867.0,12,R,2149488,2149678,192,749.8,530.5,4726,NA
36,1,binary,12,2,fixationCross,2149997.0,2153864.0,3867.0,12,R,2149704,2149868,166,897.9,516.2,4764,NA
36,1,binary,12,2,trial,2149997.0,2153864.0,3867.0,12,R,2149892,2150230,340,984.6,544.8,4823,NA
36,1,binary,12,2,trial,2149997.0,2153864.0,3867.0,12,R,2150280,2150434,156,1335.3,472.4,4503,right
36,1,binary,12,2,trial,2149997.0,2153864.0,3867.0,12,R,2150458,2150612,156,1411.3,503.6,4292,right
36,1,binary,12,2,trial,2149997.0,2153864.0,3867.0,12,R,2150632,2151242,612,1498.3,518.0,4339,right
36,1,binary,12,2,trial,2149997.0,2153864.0,3867.0,12,R,2151266,2151454,190,1375.9,465.9,4474,right
36,1,binary,12,2,trial,2149997.0,2153864.0,3867.0,12,R,2151478,2151630,154,1464.2,497.1,4483,right
36,1,binary,12,2,trial,2149997.0,2153864.0,3867.0,12,R,2151644,2151760,118,1509.1,514.2,4498,right
36,1,binary,12,2,trial,2149997.0,2153864.0,3867.0,12,R,2151832,2151968,138,559.9,484.4,4779,left
36,1,binary,12,2,trial,2149997.0,2153864.0,3867.0,12,R,2151990,2152182,194,492.5,476.2,4636,left
36,1,binary,12,2,trial,2149997.0,2153864.0,3867.0,12,R,2152252,2152464,214,1516.0,504.8,4149,right
36,1,binary,12,2,trial,2149997.0,2153864.0,3867.0,12,R,2152474,2152762,290,1487.2,518.4,4271,right
36,1,binary,12,2,trial,2149997.0,2153864.0,3867.0,12,R,2152784,2152876,94,1446.6,463.7,4457,right
36,1,binary,12,2,trial,2149997.0,2153864.0,3867.0,12,R,2152900,2153070,172,1526.4,393.8,4421,right
36,1,binary,12,2,trial,2149997.0,2153864.0,3867.0,12,R,2153160,2153396,238,462.1,480.1,4710,left
36,1,binary,12,2,postResponse,2149997.0,2153864.0,3867.0,12,R,2153404,2154212,810,487.5,479.6,4336,left
36,1,binary,13,1,fixationCross,2154998.0,2156865.0,1867.0,13,R,2154286,2154510,226,577.9,494.4,4374,left
36,1,binary,13,1,fixationCross,2154998.0,2156865.0,1867.0,13,R,2154538,2154662,126,756.5,512.0,4500,NA
36,1,binary,13,1,trial,2154998.0,2156865.0,1867.0,13,R,2154690,2155140,452,969.3,534.5,4671,NA
36,1,binary,13,1,trial,2154998.0,2156865.0,1867.0,13,R,2155184,2155474,292,621.4,511.4,4509,left
36,1,binary,13,1,trial,2154998.0,2156865.0,1867.0,13,R,2155494,2155768,276,609.9,457.6,4158,left
36,1,binary,13,1,trial,2154998.0,2156865.0,1867.0,13,R,2155830,2156048,220,1360.1,491.5,3997,right
36,1,binary,13,1,trial,2154998.0,2156865.0,1867.0,13,R,2156068,2156316,250,1447.5,491.4,3956,right
36,1,binary,13,1,trial,2154998.0,2156865.0,1867.0,13,R,2156330,2156498,170,1420.5,520.9,3967,right
36,1,binary,13,1,trial,2154998.0,2156865.0,1867.0,13,R,2156562,2156720,160,697.3,510.4,4205,left
36,1,binary,13,1,postResponse,2154998.0,2156865.0,1867.0,13,R,2156740,2157214,476,607.5,492.9,4319,left
36,1,binary,14,1,fixationCross,2157931.0,2161298.0,3367.0,14,R,2157398,2157602,206,654.1,524.6,4551,left
36,1,binary,14,1,fixationCross,2157931.0,2161298.0,3367.0,14,R,2157632,2157746,116,888.5,525.5,4681,NA
36,1,binary,14,1,trial,2157931.0,2161298.0,3367.0,14,R,2157766,2158134,370,958.3,537.7,4679,NA
36,1,binary,14,1,trial,2157931.0,2161298.0,3367.0,14,R,2158180,2158348,170,565.8,509.1,4669,left
36,1,binary,14,1,trial,2157931.0,2161298.0,3367.0,14,R,2158372,2158604,234,505.8,574.7,4468,left
36,1,binary,14,1,trial,2157931.0,2161298.0,3367.0,14,R,2158626,2158836,212,580.0,555.8,4454,left
36,1,binary,14,1,trial,2157931.0,2161298.0,3367.0,14,R,2158900,2159134,236,1393.2,527.5,4223,right
36,1,binary,14,1,trial,2157931.0,2161298.0,3367.0,14,R,2159158,2159428,272,1512.2,468.9,4197,right
36,1,binary,14,1,trial,2157931.0,2161298.0,3367.0,14,R,2159448,2159706,260,1451.7,499.6,4251,right
36,1,binary,14,1,trial,2157931.0,2161298.0,3367.0,14,R,2159780,2160090,312,507.4,483.9,4530,left
36,1,binary,14,1,trial,2157931.0,2161298.0,3367.0,14,R,2160126,2160374,250,369.7,442.6,4490,left
36,1,binary,14,1,trial,2157931.0,2161298.0,3367.0,14,R,2160406,2160526,122,571.1,550.9,4484,left
36,1,binary,14,1,trial,2157931.0,2161298.0,3367.0,14,R,2160590,2160754,166,1386.6,532.3,4286,right
36,1,binary,14,1,trial,2157931.0,2161298.0,3367.0,14,R,2160780,2161034,256,1509.0,444.8,4282,right
36,1,binary,14,1,trial,2157931.0,2161298.0,3367.0,14,R,2161062,2161590,530,1396.1,515.8,4372,right
36,1,binary,15,1,fixationCross,2162198.0,2165865.0,3667.0,15,R,2161720,2161836,118,1081.6,488.4,4666,NA
36,1,binary,15,1,fixationCross,2162198.0,2165865.0,3667.0,15,R,2161872,2162104,234,877.1,506.7,4786,NA
36,1,binary,15,1,trial,2162198.0,2165865.0,3667.0,15,R,2162128,2162502,376,969.5,524.8,4761,NA
36,1,binary,15,1,trial,2162198.0,2165865.0,3667.0,15,R,2162548,2162616,70,1285.9,490.8,4577,right
36,1,binary,15,1,trial,2162198.0,2165865.0,3667.0,15,R,2162678,2162946,270,483.9,459.0,4765,left
36,1,binary,15,1,trial,2162198.0,2165865.0,3667.0,15,R,2162966,2163362,398,521.9,482.1,4634,left
36,1,binary,15,1,trial,2162198.0,2165865.0,3667.0,15,R,2163384,2163752,370,440.7,423.2,4528,left
36,1,binary,15,1,trial,2162198.0,2165865.0,3667.0,15,R,2163784,2164030,248,299.3,550.9,4551,left
36,1,binary,15,1,trial,2162198.0,2165865.0,3667.0,15,R,2164040,2164182,144,294.8,576.7,4599,left
36,1,binary,15,1,trial,2162198.0,2165865.0,3667.0,15,R,2164222,2164470,250,511.9,480.0,4543,left
36,1,binary,15,1,trial,2162198.0,2165865.0,3667.0,15,R,2164536,2164742,208,1381.7,502.4,4370,right
36,1,binary,15,1,trial,2162198.0,2165865.0,3667.0,15,R,2164766,2165166,402,1417.3,551.5,4557,right
36,1,binary,15,1,trial,2162198.0,2165865.0,3667.0,15,R,2165248,2165668,422,480.7,449.7,4783,left
36,1,binary,15,1,trial,2162198.0,2165865.0,3667.0,15,R,2165690,2165850,162,438.0,388.8,4654,left
36,1,binary,15,1,trial,2162198.0,2165865.0,3667.0,15,R,2165858,2166170,314,461.9,398.2,4685,left
36,1,binary,16,2,fixationCross,2166831.0,2168415.0,1584.0,16,R,2166290,2166526,238,1094.0,514.2,4570,NA
36,1,binary,16,2,fixationCross,2166831.0,2168415.0,1584.0,16,R,2166550,2166720,172,1002.5,561.8,4667,NA
36,1,binary,16,2,trial,2166831.0,2168415.0,1584.0,16,R,2166732,2167056,326,975.1,545.8,4787,NA
36,1,binary,16,2,trial,2166831.0,2168415.0,1584.0,16,R,2167104,2167278,176,1409.0,518.9,4418,right
36,1,binary,16,2,trial,2166831.0,2168415.0,1584.0,16,R,2167296,2167734,440,1471.1,497.3,4240,right
36,1,binary,16,2,trial,2166831.0,2168415.0,1584.0,16,R,2167758,2167896,140,1536.5,585.2,4230,right
36,1,binary,16,2,trial,2166831.0,2168415.0,1584.0,16,R,2167980,2168276,298,435.2,549.8,4536,left
36,1,binary,16,2,trial,2166831.0,2168415.0,1584.0,16,R,2168302,2168730,430,585.2,562.5,4471,left
36,1,binary,17,1,fixationCross,2169431.0,2172332.0,2901.0,17,R,2168834,2168980,148,912.3,456.3,4538,NA
36,1,binary,17,1,fixationCross,2169431.0,2172332.0,2901.0,17,R,2169002,2169174,174,863.5,502.3,4701,NA
36,1,binary,17,1,fixationCross,2169431.0,2172332.0,2901.0,17,R,2169196,2169320,126,958.3,527.0,4792,NA
36,1,binary,17,1,trial,2169431.0,2172332.0,2901.0,17,R,2169330,2169688,360,977.1,546.1,4813,NA
36,1,binary,17,1,trial,2169431.0,2172332.0,2901.0,17,R,2169740,2169946,208,1391.7,573.6,4449,right
36,1,binary,17,1,trial,2169431.0,2172332.0,2901.0,17,R,2169964,2170054,92,1452.7,586.8,4195,right
36,1,binary,17,1,trial,2169431.0,2172332.0,2901.0,17,R,2170128,2170362,236,533.6,577.0,4374,left
36,1,binary,17,1,trial,2169431.0,2172332.0,2901.0,17,R,2170394,2170840,448,474.9,478.0,4429,left
36,1,binary,17,1,trial,2169431.0,2172332.0,2901.0,17,R,2170872,2171016,146,545.9,613.1,4444,left
36,1,binary,17,1,trial,2169431.0,2172332.0,2901.0,17,R,2171050,2171308,260,663.4,472.6,4364,left
36,1,binary,17,1,trial,2169431.0,2172332.0,2901.0,17,R,2171372,2171734,364,1431.5,561.2,4234,right
36,1,binary,17,1,postResponse,2169431.0,2172332.0,2901.0,17,R,2171750,2172680,932,1391.5,590.0,4147,right
36,1,binary,18,2,fixationCross,2173414.0,2177131.0,3717.0,18,R,2172900,2173034,136,928.2,524.4,4486,NA
36,1,binary,18,2,trial,2173414.0,2177131.0,3717.0,18,R,2173236,2173444,210,983.0,553.1,4688,NA
36,1,binary,18,2,trial,2173414.0,2177131.0,3717.0,18,R,2173454,2173570,118,970.4,548.9,4703,NA
36,1,binary,18,2,trial,2173414.0,2177131.0,3717.0,18,R,2173618,2173818,202,515.0,492.9,4529,left
36,1,binary,18,2,trial,2173414.0,2177131.0,3717.0,18,R,2173842,2174040,200,610.0,530.9,4260,left
36,1,binary,18,2,trial,2173414.0,2177131.0,3717.0,18,R,2174060,2174216,158,642.5,586.5,4243,left
36,1,binary,18,2,trial,2173414.0,2177131.0,3717.0,18,R,2174254,2174456,204,553.2,419.5,4351,left
36,1,binary,18,2,trial,2173414.0,2177131.0,3717.0,18,R,2174488,2174762,276,465.7,529.6,4396,left
36,1,binary,18,2,trial,2173414.0,2177131.0,3717.0,18,R,2174834,2174994,162,1431.6,534.4,4141,right
36,1,binary,18,2,trial,2173414.0,2177131.0,3717.0,18,R,2175018,2175270,254,1307.0,461.0,4204,right
36,1,binary,18,2,trial,2173414.0,2177131.0,3717.0,18,R,2175290,2175556,268,1309.8,401.0,4218,right
36,1,binary,18,2,trial,2173414.0,2177131.0,3717.0,18,R,2175630,2175816,188,527.1,484.2,4403,left
36,1,binary,18,2,trial,2173414.0,2177131.0,3717.0,18,R,2175838,2176782,946,555.5,427.0,4416,left
36,1,binary,18,2,postResponse,2173414.0,2177131.0,3717.0,18,R,2176846,2177478,634,1325.8,507.6,4454,right
36,1,binary,19,1,fixationCross,2178265.0,2182165.0,3900.0,19,R,2177592,2177594,4,1183.0,512.8,4630,NA
36,1,binary,19,1,fixationCross,2178265.0,2182165.0,3900.0,19,R,2177630,2177852,224,880.2,506.2,4750,NA
36,1,binary,19,1,fixationCross,2178265.0,2182165.0,3900.0,19,R,2177884,2178048,166,727.4,556.5,4936,left
36,1,binary,19,1,fixationCross,2178265.0,2182165.0,3900.0,19,R,2178072,2178162,92,870.8,548.3,4990,NA
36,1,binary,19,1,trial,2178265.0,2182165.0,3900.0,19,R,2178186,2178452,268,974.8,553.3,4925,NA
36,1,binary,19,1,trial,2178265.0,2182165.0,3900.0,19,R,2178498,2178692,196,553.7,555.2,4853,left
36,1,binary,19,1,trial,2178265.0,2182165.0,3900.0,19,R,2178716,2178962,248,460.8,621.6,4623,left
36,1,binary,19,1,trial,2178265.0,2182165.0,3900.0,19,R,2178978,2179188,212,434.4,665.8,4623,left
36,1,binary,19,1,trial,2178265.0,2182165.0,3900.0,19,R,2179214,2179342,130,513.2,565.0,4660,left
36,1,binary,19,1,trial,2178265.0,2182165.0,3900.0,19,R,2179410,2179636,228,1405.1,525.8,4376,right
36,1,binary,19,1,trial,2178265.0,2182165.0,3900.0,19,R,2179648,2179882,236,1390.3,559.4,4486,right
36,1,binary,19,1,trial,2178265.0,2182165.0,3900.0,19,R,2179898,2180186,290,1373.6,516.2,4465,right
36,1,binary,19,1,trial,2178265.0,2182165.0,3900.0,19,R,2180206,2180444,240,1405.0,558.5,4325,right
36,1,binary,19,1,trial,2178265.0,2182165.0,3900.0,19,R,2180516,2180700,186,581.7,470.4,4532,left
36,1,binary,19,1,trial,2178265.0,2182165.0,3900.0,19,R,2180728,2180828,102,499.0,568.8,4632,left
36,1,binary,19,1,trial,2178265.0,2182165.0,3900.0,19,R,2180894,2181344,452,1378.3,544.3,4578,right
36,1,binary,19,1,trial,2178265.0,2182165.0,3900.0,19,R,2181360,2181700,342,1402.1,576.6,4575,right
36,1,binary,19,1,trial,2178265.0,2182165.0,3900.0,19,R,2181768,2181934,168,562.5,494.2,4777,left
36,1,binary,19,1,trial,2178265.0,2182165.0,3900.0,19,R,2181960,2182310,352,496.0,576.9,4744,left
36,1,binary,19,1,postResponse,2178265.0,2182165.0,3900.0,19,R,2182376,2182512,138,1073.2,528.1,4626,NA
36,1,binary,20,2,fixationCross,2183098.0,2187315.0,4217.0,20,R,2182614,2182782,170,1084.0,538.7,4619,NA
36,1,binary,20,2,fixationCross,2183098.0,2187315.0,4217.0,20,R,2182806,2183010,206,951.4,514.1,4782,NA
36,1,binary,20,2,trial,2183098.0,2187315.0,4217.0,20,R,2183028,2183256,230,975.2,542.2,4837,NA
36,1,binary,20,2,trial,2183098.0,2187315.0,4217.0,20,R,2183302,2183514,214,595.4,562.3,4765,left
36,1,binary,20,2,trial,2183098.0,2187315.0,4217.0,20,R,2183530,2183794,266,575.4,604.9,4542,left
36,1,binary,20,2,trial,2183098.0,2187315.0,4217.0,20,R,2183814,2183966,154,636.0,579.2,4477,left
36,1,binary,20,2,trial,2183098.0,2187315.0,4217.0,20,R,2184036,2184540,506,1412.2,506.5,4303,right
36,1,binary,20,2,trial,2183098.0,2187315.0,4217.0,20,R,2184550,2184768,220,1421.4,511.7,4387,right
36,1,binary,20,2,trial,2183098.0,2187315.0,4217.0,20,R,2184792,2185214,424,1541.6,540.3,4328,right
36,1,binary,20,2,trial,2183098.0,2187315.0,4217.0,20,R,2185248,2185442,196,1369.0,461.9,4383,right
36,1,binary,20,2,trial,2183098.0,2187315.0,4217.0,20,R,2185462,2185712,252,1310.0,449.2,4374,right
36,1,binary,20,2,trial,2183098.0,2187315.0,4217.0,20,R,2185774,2186284,512,584.6,565.0,4558,left
36,1,binary,20,2,postResponse,2183098.0,2187315.0,4217.0,20,R,2186350,2187664,1316,1415.6,507.9,4245,right
36,1,binary,21,1,fixationCross,2188398.0,2191048.0,2650.0,21,R,2187738,2187850,114,1411.5,498.4,4349,right
36,1,binary,21,1,fixationCross,2188398.0,2191048.0,2650.0,21,R,2187930,2188098,170,800.3,517.2,4679,NA
36,1,binary,21,1,trial,2188398.0,2191048.0,2650.0,21,R,2188126,2188576,452,966.1,530.0,4548,NA
36,1,binary,21,1,trial,2188398.0,2191048.0,2650.0,21,R,2188624,2188832,210,549.6,509.0,4563,left
36,1,binary,21,1,trial,2188398.0,2191048.0,2650.0,21,R,2188848,2188988,142,502.0,496.1,4290,left
36,1,binary,21,1,trial,2188398.0,2191048.0,2650.0,21,R,2189012,2189554,544,708.2,480.5,4109,left
36,1,binary,21,1,trial,2188398.0,2191048.0,2650.0,21,R,2189566,2189714,150,679.3,505.4,4208,left
36,1,binary,21,1,trial,2188398.0,2191048.0,2650.0,21,R,2189780,2190038,260,1421.9,555.5,4064,right
36,1,binary,21,1,trial,2188398.0,2191048.0,2650.0,21,R,2190060,2190464,406,1511.8,557.4,3965,right
36,1,binary,21,1,trial,2188398.0,2191048.0,2650.0,21,R,2190542,2190734,194,527.3,409.1,4322,left
36,1,binary,21,1,trial,2188398.0,2191048.0,2650.0,21,R,2190760,2190926,168,702.5,467.7,4381,left
36,1,binary,21,1,postResponse,2188398.0,2191048.0,2650.0,21,R,2190936,2191398,464,711.0,492.7,4418,left
36,1,binary,22,2,fixationCross,2191982.0,2195698.0,3716.0,22,R,2191498,2191610,114,722.6,503.7,4584,left
36,1,binary,22,2,fixationCross,2191982.0,2195698.0,3716.0,22,R,2191638,2191842,206,889.5,537.6,4803,NA
36,1,binary,22,2,trial,2191982.0,2195698.0,3716.0,22,R,2191866,2192250,386,974.9,551.1,4940,NA
36,1,binary,22,2,trial,2191982.0,2195698.0,3716.0,22,R,2192298,2192438,142,522.6,541.5,4712,left
36,1,binary,22,2,trial,2191982.0,2195698.0,3716.0,22,R,2192478,2192684,208,323.6,445.9,4330,left
36,1,binary,22,2,trial,2191982.0,2195698.0,3716.0,22,R,2192776,2192906,132,1446.9,471.2,3992,right
36,1,binary,22,2,trial,2191982.0,2195698.0,3716.0,22,R,2192922,2193166,246,1482.8,484.3,4010,right
36,1,binary,22,2,trial,2191982.0,2195698.0,3716.0,22,R,2193176,2194154,980,1481.9,500.8,4059,right
36,1,binary,22,2,trial,2191982.0,2195698.0,3716.0,22,R,2194232,2194380,150,498.7,525.1,4366,left
36,1,binary,22,2,trial,2191982.0,2195698.0,3716.0,22,R,2194416,2194588,174,342.8,434.8,4338,left
36,1,binary,22,2,trial,2191982.0,2195698.0,3716.0,22,R,2194628,2194776,150,595.1,543.7,4327,left
36,1,binary,22,2,trial,2191982.0,2195698.0,3716.0,22,R,2194846,2195004,160,1453.0,460.3,4054,right
36,1,binary,22,2,trial,2191982.0,2195698.0,3716.0,22,R,2195024,2195308,286,1481.7,492.1,4071,right
36,1,binary,22,2,trial,2191982.0,2195698.0,3716.0,22,R,2195318,2195980,664,1452.7,512.3,4189,right
36,1,binary,23,1,fixationCross,2196831.0,2201798.0,4967.0,23,R,2196118,2196530,414,751.5,513.3,4530,NA
36,1,binary,23,1,fixationCross,2196831.0,2201798.0,4967.0,23,R,2196558,2196674,118,933.4,526.0,4571,NA
36,1,binary,23,1,trial,2196831.0,2201798.0,4967.0,23,R,2196688,2196986,300,964.1,542.4,4543,NA
36,1,binary,23,1,trial,2196831.0,2201798.0,4967.0,23,R,2197036,2197306,272,526.0,519.7,4586,left
36,1,binary,23,1,trial,2196831.0,2201798.0,4967.0,23,R,2197336,2197544,210,594.8,590.5,4256,left
36,1,binary,23,1,trial,2196831.0,2201798.0,4967.0,23,R,2197564,2197770,208,574.4,653.1,4296,left
36,1,binary,23,1,trial,2196831.0,2201798.0,4967.0,23,R,2197796,2197908,114,768.5,638.7,4337,NA
36,1,binary,23,1,trial,2196831.0,2201798.0,4967.0,23,R,2197968,2198618,652,1476.5,580.0,4177,right
36,1,binary,23,1,trial,2196831.0,2201798.0,4967.0,23,R,2198638,2198856,220,1574.8,578.2,4137,right
36,1,binary,23,1,trial,2196831.0,2201798.0,4967.0,23,R,2198876,2199232,358,1478.4,576.2,4190,right
36,1,binary,23,1,trial,2196831.0,2201798.0,4967.0,23,R,2199260,2199362,104,1345.1,482.4,4229,right
36,1,binary,23,1,trial,2196831.0,2201798.0,4967.0,23,R,2199390,2199556,168,1491.8,566.5,4174,right
36,1,binary,23,1,trial,2196831.0,2201798.0,4967.0,23,R,2199564,2199810,248,1475.9,576.9,4163,right
36,1,binary,23,1,trial,2196831.0,2201798.0,4967.0,23,R,2199880,2200162,284,585.3,669.5,4412,left
36,1,binary,23,1,trial,2196831.0,2201798.0,4967.0,23,R,2200198,2200324,128,552.1,562.5,4341,left
36,1,binary,23,1,trial,2196831.0,2201798.0,4967.0,23,R,2200352,2200986,636,608.1,694.4,4353,left
36,1,binary,23,1,trial,2196831.0,2201798.0,4967.0,23,R,2201056,2201264,210,1493.8,580.5,4262,right
36,1,binary,23,1,trial,2196831.0,2201798.0,4967.0,23,R,2201280,2201324,46,1459.2,577.9,4355,right
36,1,binary,23,1,trial,2196831.0,2201798.0,4967.0,23,R,2201400,2201650,252,507.6,568.7,4618,left
36,1,binary,23,1,postResponse,2196831.0,2201798.0,4967.0,23,R,2201674,2202146,474,581.0,576.8,4552,left
36,1,binary,24,1,fixationCross,2202781.0,2206948.0,4167.0,24,R,2202220,2202448,230,587.6,575.7,4581,left
36,1,binary,24,1,fixationCross,2202781.0,2206948.0,4167.0,24,R,2202498,2202610,114,889.1,544.3,4583,NA
36,1,binary,24,1,fixationCross,2202781.0,2206948.0,4167.0,24,R,2202632,2202754,124,985.2,535.1,4645,NA
36,1,binary,24,1,trial,2202781.0,2206948.0,4167.0,24,R,2202766,2202958,194,960.4,540.5,4733,NA
36,1,binary,24,1,trial,2202781.0,2206948.0,4167.0,24,R,2203014,2203196,184,584.0,503.1,4658,left
36,1,binary,24,1,trial,2202781.0,2206948.0,4167.0,24,R,2203228,2203406,180,584.8,691.8,4393,left
36,1,binary,24,1,trial,2202781.0,2206948.0,4167.0,24,R,2203420,2203604,186,544.4,699.0,4346,left
36,1,binary,24,1,trial,2202781.0,2206948.0,4167.0,24,R,2203670,2203918,250,1405.3,521.7,4076,right
36,1,binary,24,1,trial,2202781.0,2206948.0,4167.0,24,R,2203944,2204122,180,1532.6,481.4,4050,right
36,1,binary,24,1,trial,2202781.0,2206948.0,4167.0,24,R,2204146,2204404,260,1455.1,544.3,4131,right
36,1,binary,24,1,trial,2202781.0,2206948.0,4167.0,24,R,2204576,2204714,140,1490.7,522.3,4060,right
36,1,binary,24,1,trial,2202781.0,2206948.0,4167.0,24,R,2204906,2205048,144,1453.2,543.9,4211,right
36,1,binary,24,1,trial,2202781.0,2206948.0,4167.0,24,R,2205082,2205278,198,1567.4,455.7,4179,right
36,1,binary,24,1,trial,2202781.0,2206948.0,4167.0,24,R,2205304,2205544,242,1623.3,545.3,4060,right
36,1,binary,24,1,trial,2202781.0,2206948.0,4167.0,24,R,2205570,2205820,252,1463.4,572.8,4146,right
36,1,binary,24,1,trial,2202781.0,2206948.0,4167.0,24,R,2205898,2206152,256,565.9,585.8,4387,left
36,1,binary,24,1,trial,2202781.0,2206948.0,4167.0,24,R,2206174,2206348,176,572.3,670.4,4363,left
36,1,binary,24,1,postResponse,2202781.0,2206948.0,4167.0,24,R,2206390,2207296,908,371.8,478.5,4373,left
36,1,binary,25,2,fixationCross,2208048.0,2211031.0,2983.0,25,R,2207370,2207624,256,385.7,489.4,4566,left
36,1,binary,25,2,fixationCross,2208048.0,2211031.0,2983.0,25,R,2207698,2207798,102,1080.9,522.6,4700,NA
36,1,binary,25,2,trial,2208048.0,2211031.0,2983.0,25,R,2207824,2208206,384,958.3,557.1,4701,NA
36,1,binary,25,2,trial,2208048.0,2211031.0,2983.0,25,R,2208256,2208440,186,484.1,478.6,4627,left
36,1,binary,25,2,trial,2208048.0,2211031.0,2983.0,25,R,2208458,2208610,154,537.6,475.6,4304,left
36,1,binary,25,2,trial,2208048.0,2211031.0,2983.0,25,R,2208646,2208782,138,338.6,475.2,4265,left
36,1,binary,25,2,trial,2208048.0,2211031.0,2983.0,25,R,2208800,2209122,324,370.8,487.4,4389,left
36,1,binary,25,2,trial,2208048.0,2211031.0,2983.0,25,R,2209192,2209360,170,1407.5,608.5,4249,right
36,1,binary,25,2,trial,2208048.0,2211031.0,2983.0,25,R,2209378,2209848,472,1440.2,650.1,4133,right
36,1,binary,25,2,trial,2208048.0,2211031.0,2983.0,25,R,2209874,2210138,266,1357.6,544.1,4049,right
36,1,binary,25,2,trial,2208048.0,2211031.0,2983.0,25,R,2210154,2210206,54,1387.7,570.3,4084,right
36,1,binary,25,2,trial,2208048.0,2211031.0,2983.0,25,R,2210274,2210532,260,548.6,501.4,4396,left
36,1,binary,25,2,postResponse,2208048.0,2211031.0,2983.0,25,R,2210550,2211376,828,577.6,470.0,4515,left
36,1,binary,26,2,fixationCross,2231649.0,2234049.0,2400.0,26,R,2231151,2231293,144,110.5,43.0,4256,NA
36,1,binary,26,2,fixationCross,2231649.0,2234049.0,2400.0,26,R,2231357,2231481,126,928.2,453.6,4228,NA
36,1,binary,26,2,trial,2231649.0,2234049.0,2400.0,26,R,2231503,2231885,384,963.2,546.3,4323,NA
36,1,binary,26,2,trial,2231649.0,2234049.0,2400.0,26,R,2231939,2232241,304,421.8,519.3,4437,left
36,1,binary,26,2,trial,2231649.0,2234049.0,2400.0,26,R,2232265,2232423,160,582.8,567.0,4215,left
36,1,binary,26,2,trial,2231649.0,2234049.0,2400.0,26,R,2232487,2233111,626,1433.0,530.7,4121,right
36,1,binary,26,2,trial,2231649.0,2234049.0,2400.0,26,R,2233183,2233263,82,491.2,526.9,4458,left
36,1,binary,26,2,trial,2231649.0,2234049.0,2400.0,26,R,2233329,2233503,176,1215.0,670.8,4303,right
36,1,binary,26,2,trial,2231649.0,2234049.0,2400.0,26,R,2233533,2233675,144,1423.9,823.4,4231,NA
36,1,binary,26,2,trial,2231649.0,2234049.0,2400.0,26,R,2233725,2234057,334,1467.8,501.1,4340,right
36,1,binary,26,2,postResponse,2231649.0,2234049.0,2400.0,26,R,2234133,2234385,254,420.7,502.1,4427,left
36,1,binary,27,1,fixationCross,2235132.0,2238049.0,2917.0,27,R,2234459,2234475,18,423.8,503.0,4355,left
36,1,binary,27,1,fixationCross,2235132.0,2238049.0,2917.0,27,R,2234527,2234825,300,835.9,476.1,4398,NA
36,1,binary,27,1,fixationCross,2235132.0,2238049.0,2917.0,27,R,2234849,2234971,124,951.2,514.6,4519,NA
36,1,binary,27,1,trial,2235132.0,2238049.0,2917.0,27,R,2234983,2235251,270,960.6,541.9,4631,NA
36,1,binary,27,1,trial,2235132.0,2238049.0,2917.0,27,R,2235299,2235777,480,564.1,509.8,4554,left
36,1,binary,27,1,trial,2235132.0,2238049.0,2917.0,27,R,2235845,2236121,278,1458.4,540.6,4114,right
36,1,binary,27,1,trial,2235132.0,2238049.0,2917.0,27,R,2236147,2236435,290,1466.6,442.5,4153,right
36,1,binary,27,1,trial,2235132.0,2238049.0,2917.0,27,R,2236475,2236825,352,1428.2,686.6,4329,right
36,1,binary,27,1,trial,2235132.0,2238049.0,2917.0,27,R,2236899,2237059,162,548.9,466.6,4475,left
36,1,binary,27,1,trial,2235132.0,2238049.0,2917.0,27,R,2237097,2237423,328,361.4,397.3,4440,left
36,1,binary,27,1,trial,2235132.0,2238049.0,2917.0,27,R,2237461,2237649,190,369.5,656.8,4537,left
36,1,binary,27,1,postResponse,2235132.0,2238049.0,2917.0,27,R,2237689,2238393,706,571.5,508.8,4514,left
36,1,binary,28,2,fixationCross,2239082.0,2241849.0,2767.0,28,R,2238467,2238501,36,576.8,515.4,4499,left
36,1,binary,28,2,fixationCross,2239082.0,2241849.0,2767.0,28,R,2238523,2238775,254,681.0,523.1,4524,left
36,1,binary,28,2,fixationCross,2239082.0,2241849.0,2767.0,28,R,2238805,2238915,112,928.7,517.7,4594,NA
36,1,binary,28,2,trial,2239082.0,2241849.0,2767.0,28,R,2238929,2239241,314,960.0,539.7,4708,NA
36,1,binary,28,2,trial,2239082.0,2241849.0,2767.0,28,R,2239287,2239463,178,525.2,480.2,4805,left
36,1,binary,28,2,trial,2239082.0,2241849.0,2767.0,28,R,2239493,2239645,154,577.8,569.7,4640,left
36,1,binary,28,2,trial,2239082.0,2241849.0,2767.0,28,R,2239663,2239825,164,548.5,605.8,4587,left
36,1,binary,28,2,trial,2239082.0,2241849.0,2767.0,28,R,2239851,2240287,438,627.6,602.5,4491,left
36,1,binary,28,2,trial,2239082.0,2241849.0,2767.0,28,R,2240355,2240673,320,1469.1,505.9,4199,right
36,1,binary,28,2,trial,2239082.0,2241849.0,2767.0,28,R,2240689,2240919,232,1483.2,469.7,4194,right
36,1,binary,28,2,trial,2239082.0,2241849.0,2767.0,28,R,2240935,2241245,312,1419.5,465.4,4207,right
36,1,binary,28,2,trial,2239082.0,2241849.0,2767.0,28,R,2241261,2241647,388,1421.9,519.0,4300,right
36,1,binary,28,2,postResponse,2239082.0,2241849.0,2767.0,28,R,2241719,2242193,476,562.5,577.9,4591,left
36,1,binary,29,2,fixationCross,2242916.0,2245932.0,3016.0,29,R,2242293,2242315,24,570.3,581.1,4545,left
36,1,binary,29,2,fixationCross,2242916.0,2245932.0,3016.0,29,R,2242355,2242627,274,848.9,525.5,4516,NA
36,1,binary,29,2,trial,2242916.0,2245932.0,3016.0,29,R,2242649,2243125,478,965.3,542.8,4589,NA
36,1,binary,29,2,trial,2242916.0,2245932.0,3016.0,29,R,2243171,2243481,312,615.7,504.5,4496,left
36,1,binary,29,2,trial,2242916.0,2245932.0,3016.0,29,R,2243511,2243817,308,545.3,568.2,4385,left
36,1,binary,29,2,trial,2242916.0,2245932.0,3016.0,29,R,2243885,2244129,246,1366.6,423.7,4181,right
36,1,binary,29,2,trial,2242916.0,2245932.0,3016.0,29,R,2244149,2244359,212,1404.2,373.6,4204,right
36,1,binary,29,2,trial,2242916.0,2245932.0,3016.0,29,R,2244399,2244603,206,1488.3,581.5,4278,right
36,1,binary,29,2,trial,2242916.0,2245932.0,3016.0,29,R,2244625,2244749,126,1490.7,501.4,4335,right
36,1,binary,29,2,trial,2242916.0,2245932.0,3016.0,29,R,2244773,2244977,206,1334.7,579.2,4448,right
36,1,binary,29,2,trial,2242916.0,2245932.0,3016.0,29,R,2244995,2245219,226,1315.2,630.7,4528,right
36,1,binary,29,2,trial,2242916.0,2245932.0,3016.0,29,R,2245259,2245431,174,1443.8,480.0,4462,right
36,1,binary,29,2,trial,2242916.0,2245932.0,3016.0,29,R,2245449,2245753,306,1499.9,500.1,4388,right
36,1,binary,29,2,postResponse,2242916.0,2245932.0,3016.0,29,R,2245767,2246275,510,1483.5,528.0,4429,right
36,1,binary,30,2,fixationCross,2247082.0,2250148.0,3066.0,30,R,2246375,2246635,262,1120.8,554.6,4522,NA
36,1,binary,30,2,fixationCross,2247082.0,2250148.0,3066.0,30,R,2246681,2246803,124,756.7,527.4,4712,NA
36,1,binary,30,2,fixationCross,2247082.0,2250148.0,3066.0,30,R,2246833,2246965,134,944.7,537.4,4737,NA
36,1,binary,30,2,trial,2247082.0,2250148.0,3066.0,30,R,2246975,2247245,272,973.9,542.5,4652,NA
36,1,binary,30,2,trial,2247082.0,2250148.0,3066.0,30,R,2247293,2247493,202,553.7,541.9,4595,left
36,1,binary,30,2,trial,2247082.0,2250148.0,3066.0,30,R,2247517,2247775,260,500.5,617.2,4398,left
36,1,binary,30,2,trial,2247082.0,2250148.0,3066.0,30,R,2247821,2247949,130,797.2,566.1,4366,NA
36,1,binary,30,2,trial,2247082.0,2250148.0,3066.0,30,R,2248013,2248341,330,1515.5,459.6,4140,right
36,1,binary,30,2,trial,2247082.0,2250148.0,3066.0,30,R,2248365,2248609,246,1538.3,521.9,4229,right
36,1,binary,30,2,trial,2247082.0,2250148.0,3066.0,30,R,2248653,2248755,104,1228.3,424.0,4275,right
36,1,binary,30,2,trial,2247082.0,2250148.0,3066.0,30,R,2248815,2249079,266,568.4,574.3,4447,left
36,1,binary,30,2,trial,2247082.0,2250148.0,3066.0,30,R,2249103,2249257,156,479.3,515.9,4430,left
36,1,binary,30,2,trial,2247082.0,2250148.0,3066.0,30,R,2249325,2249611,288,1383.0,501.2,4217,right
36,1,binary,30,2,trial,2247082.0,2250148.0,3066.0,30,R,2249637,2249791,156,1247.1,433.4,4249,right
36,1,binary,30,2,trial,2247082.0,2250148.0,3066.0,30,R,2249827,2250405,580,1490.2,487.6,4258,right
36,1,binary,31,1,fixationCross,2251149.0,2252999.0,1850.0,31,R,2250561,2250843,284,764.9,563.4,4520,NA
36,1,binary,31,1,fixationCross,2251149.0,2252999.0,1850.0,31,R,2250867,2250889,24,911.8,485.4,4582,NA
36,1,binary,31,1,fixationCross,2251149.0,2252999.0,1850.0,31,R,2250903,2251009,108,967.9,482.6,4625,NA
36,1,binary,31,1,fixationCross,2251149.0,2252999.0,1850.0,31,R,2251031,2251097,68,963.9,532.4,4669,NA
36,1,binary,31,1,trial,2251149.0,2252999.0,1850.0,31,R,2251109,2251389,282,975.3,548.9,4722,NA
36,1,binary,31,1,trial,2251149.0,2252999.0,1850.0,31,R,2251437,2251615,180,576.1,537.1,4616,left
36,1,binary,31,1,trial,2251149.0,2252999.0,1850.0,31,R,2251637,2251785,150,653.0,541.0,4320,left
36,1,binary,31,1,trial,2251149.0,2252999.0,1850.0,31,R,2251823,2252109,288,447.2,522.2,4237,left
36,1,binary,31,1,trial,2251149.0,2252999.0,1850.0,31,R,2252131,2252361,232,354.5,507.2,4236,left
36,1,binary,31,1,trial,2251149.0,2252999.0,1850.0,31,R,2252437,2252743,308,1453.1,509.4,4013,right
36,1,binary,31,1,postResponse,2251149.0,2252999.0,1850.0,31,R,2252767,2253341,576,1350.1,553.9,4185,right
36,1,binary,32,2,fixationCross,2254066.0,2256365.0,2299.0,32,R,2253449,2253761,314,1091.9,527.5,4590,NA
36,1,binary,32,2,trial,2254066.0,2256365.0,2299.0,32,R,2253785,2254205,422,980.5,539.1,4789,NA
36,1,binary,32,2,trial,2254066.0,2256365.0,2299.0,32,R,2254255,2254399,146,560.9,529.1,4742,left
36,1,binary,32,2,trial,2254066.0,2256365.0,2299.0,32,R,2254421,2254659,240,437.7,484.3,4327,left
36,1,binary,32,2,trial,2254066.0,2256365.0,2299.0,32,R,2254681,2255041,362,505.1,530.8,4148,left
36,1,binary,32,2,trial,2254066.0,2256365.0,2299.0,32,R,2255067,2255213,148,402.0,523.7,4187,left
36,1,binary,32,2,trial,2254066.0,2256365.0,2299.0,32,R,2255279,2255447,170,1336.8,568.5,3993,right
36,1,binary,32,2,trial,2254066.0,2256365.0,2299.0,32,R,2255469,2255611,144,1420.6,590.7,4002,right
36,1,binary,32,2,trial,2254066.0,2256365.0,2299.0,32,R,2255637,2255845,210,1595.3,574.0,4030,right
36,1,binary,32,2,trial,2254066.0,2256365.0,2299.0,32,R,2255859,2256131,274,1649.9,593.1,4045,right
36,1,binary,32,2,trial,2254066.0,2256365.0,2299.0,32,R,2256171,2256583,414,1384.1,511.5,4121,right
36,1,binary,33,2,fixationCross,2257349.0,2261632.0,4283.0,33,R,2256787,2257063,278,1029.1,550.1,4322,NA
36,1,binary,33,2,fixationCross,2257349.0,2261632.0,4283.0,33,R,2257097,2257213,118,836.7,524.8,4534,NA
36,1,binary,33,2,trial,2257349.0,2261632.0,4283.0,33,R,2257239,2257483,246,970.9,549.2,4484,NA
36,1,binary,33,2,trial,2257349.0,2261632.0,4283.0,33,R,2257531,2257677,148,530.4,507.6,4452,left
36,1,binary,33,2,trial,2257349.0,2261632.0,4283.0,33,R,2257701,2257955,256,406.2,466.7,4121,left
36,1,binary,33,2,trial,2257349.0,2261632.0,4283.0,33,R,2257965,2258727,764,383.3,470.3,4074,left
36,1,binary,33,2,trial,2257349.0,2261632.0,4283.0,33,R,2258761,2259175,416,524.6,639.7,4202,left
36,1,binary,33,2,trial,2257349.0,2261632.0,4283.0,33,R,2259247,2259435,190,1476.7,577.8,4133,right
36,1,binary,33,2,trial,2257349.0,2261632.0,4283.0,33,R,2259459,2260121,664,1392.1,546.8,4384,right
36,1,binary,33,2,trial,2257349.0,2261632.0,4283.0,33,R,2260147,2260301,156,1536.4,513.2,4280,right
36,1,binary,33,2,trial,2257349.0,2261632.0,4283.0,33,R,2260327,2260453,128,1565.8,626.6,4234,right
36,1,binary,33,2,trial,2257349.0,2261632.0,4283.0,33,R,2260477,2261405,930,1396.2,545.4,4322,right
36,1,binary,33,2,trial,2257349.0,2261632.0,4283.0,33,R,2261431,2261893,464,1537.9,615.0,4183,right
36,1,binary,34,2,fixationCross,2262682.0,2265733.0,3051.0,34,R,2262053,2262227,176,1096.7,507.2,4360,NA
36,1,binary,34,2,fixationCross,2262682.0,2265733.0,3051.0,34,R,2262271,2262431,162,804.7,479.8,4547,NA
36,1,binary,34,2,fixationCross,2262682.0,2265733.0,3051.0,34,R,2262459,2262589,132,931.5,538.2,4594,NA
36,1,binary,34,2,trial,2262682.0,2265733.0,3051.0,34,R,2262599,2262821,224,956.7,544.1,4597,NA
36,1,binary,34,2,trial,2262682.0,2265733.0,3051.0,34,R,2262869,2263009,142,529.3,500.4,4611,left
36,1,binary,34,2,trial,2262682.0,2265733.0,3051.0,34,R,2263029,2263207,180,520.3,546.8,4393,left
36,1,binary,34,2,trial,2262682.0,2265733.0,3051.0,34,R,2263217,2263557,342,515.7,565.9,4286,left
36,1,binary,34,2,trial,2262682.0,2265733.0,3051.0,34,R,2263631,2263879,250,1493.9,539.6,4007,right
36,1,binary,34,2,trial,2262682.0,2265733.0,3051.0,34,R,2263899,2264067,170,1410.5,561.4,4142,right
36,1,binary,34,2,trial,2262682.0,2265733.0,3051.0,34,R,2264079,2264627,550,1405.6,582.7,4146,right
36,1,binary,34,2,trial,2262682.0,2265733.0,3051.0,34,R,2264697,2264881,186,557.6,523.0,4270,left
36,1,binary,34,2,trial,2262682.0,2265733.0,3051.0,34,R,2264897,2265243,348,517.6,550.0,4333,left
36,1,binary,34,2,postResponse,2262682.0,2265733.0,3051.0,34,R,2265313,2266079,768,1416.5,584.5,4139,right
36,1,binary,35,1,fixationCross,2266632.0,2271616.0,4984.0,35,R,2266153,2266181,30,1410.0,588.4,4113,right
36,1,binary,35,1,fixationCross,2266632.0,2271616.0,4984.0,35,R,2266235,2266525,292,959.7,511.6,4320,NA
36,1,binary,35,1,trial,2266632.0,2271616.0,4984.0,35,R,2266537,2266801,266,959.7,539.2,4408,NA
36,1,binary,35,1,trial,2266632.0,2271616.0,4984.0,35,R,2266849,2267151,304,499.4,574.3,4400,left
36,1,binary,35,1,trial,2266632.0,2271616.0,4984.0,35,R,2267177,2267523,348,563.4,528.3,4166,left
36,1,binary,35,1,trial,2266632.0,2271616.0,4984.0,35,R,2267591,2267743,154,1434.1,467.4,3915,right
36,1,binary,35,1,trial,2266632.0,2271616.0,4984.0,35,R,2267757,2268375,620,1443.4,434.4,4076,right
36,1,binary,35,1,trial,2266632.0,2271616.0,4984.0,35,R,2268403,2268717,316,1503.2,438.6,4077,right
36,1,binary,35,1,trial,2266632.0,2271616.0,4984.0,35,R,2268737,2269235,500,1404.9,433.6,4280,right
36,1,binary,35,1,trial,2266632.0,2271616.0,4984.0,35,R,2269267,2269421,156,1487.4,450.9,4357,right
36,1,binary,35,1,trial,2266632.0,2271616.0,4984.0,35,R,2269443,2269779,338,1510.2,443.1,4464,right
36,1,binary,35,1,trial,2266632.0,2271616.0,4984.0,35,R,2269803,2270261,460,1392.1,427.4,4489,right
36,1,binary,35,1,trial,2266632.0,2271616.0,4984.0,35,R,2270337,2270469,134,578.7,549.0,4685,left
36,1,binary,35,1,trial,2266632.0,2271616.0,4984.0,35,R,2270493,2270705,214,451.4,572.8,4634,left
36,1,binary,35,1,trial,2266632.0,2271616.0,4984.0,35,R,2270727,2270971,246,536.3,517.9,4335,left
36,1,binary,35,1,trial,2266632.0,2271616.0,4984.0,35,R,2270981,2271153,174,559.9,529.3,4260,left
36,1,binary,35,1,trial,2266632.0,2271616.0,4984.0,35,R,2271175,2271351,178,475.0,567.3,4312,left
36,1,binary,35,1,trial,2266632.0,2271616.0,4984.0,35,R,2271375,2271797,424,567.6,520.8,4336,left
36,1,binary,35,1,postResponse,2266632.0,2271616.0,4984.0,35,R,2271817,2271935,120,675.9,529.9,4416,left
36,1,binary,36,2,fixationCross,2272682.0,2277815.0,5133.0,36,R,2272065,2272145,82,672.3,737.0,4479,NA
36,1,binary,36,2,fixationCross,2272682.0,2277815.0,5133.0,36,R,2272185,2272381,198,785.8,591.6,4491,NA
36,1,binary,36,2,fixationCross,2272682.0,2277815.0,5133.0,36,R,2272409,2272521,114,929.5,527.4,4547,NA
36,1,binary,36,2,trial,2272682.0,2277815.0,5133.0,36,R,2272539,2272909,372,964.9,557.4,4579,NA
36,1,binary,36,2,trial,2272682.0,2277815.0,5133.0,36,R,2272957,2273129,174,1359.5,471.8,4223,right
36,1,binary,36,2,trial,2272682.0,2277815.0,5133.0,36,R,2273147,2273427,282,1302.4,483.5,3937,right
36,1,binary,36,2,trial,2272682.0,2277815.0,5133.0,36,R,2273451,2273645,196,1478.0,497.1,3962,right
36,1,binary,36,2,trial,2272682.0,2277815.0,5133.0,36,R,2273669,2274115,448,1307.9,482.8,4168,right
36,1,binary,36,2,trial,2272682.0,2277815.0,5133.0,36,R,2274139,2274349,212,1416.3,533.7,4284,right
36,1,binary,36,2,trial,2272682.0,2277815.0,5133.0,36,R,2274373,2274611,240,1550.7,521.8,4184,right
36,1,binary,36,2,trial,2272682.0,2277815.0,5133.0,36,R,2274631,2274829,200,1569.0,548.0,4217,right
36,1,binary,36,2,trial,2272682.0,2277815.0,5133.0,36,R,2274899,2275063,166,680.3,566.1,4510,left
36,1,binary,36,2,trial,2272682.0,2277815.0,5133.0,36,R,2275089,2275551,464,500.3,527.0,4345,left
36,1,binary,36,2,trial,2272682.0,2277815.0,5133.0,36,R,2275623,2275751,130,1430.4,510.9,3963,right
36,1,binary,36,2,trial,2272682.0,2277815.0,5133.0,36,R,2275775,2276205,432,1308.8,481.5,4041,right
36,1,binary,36,2,trial,2272682.0,2277815.0,5133.0,36,R,2276249,2276535,288,1585.4,527.1,4092,right
36,1,binary,36,2,trial,2272682.0,2277815.0,5133.0,36,R,2276555,2276691,138,1631.8,566.5,4120,right
36,1,binary,36,2,trial,2272682.0,2277815.0,5133.0,36,R,2276775,2277059,286,558.7,545.9,4502,left
36,1,binary,36,2,trial,2272682.0,2277815.0,5133.0,36,R,2277077,2277317,242,498.4,585.2,4384,left
36,1,binary,36,2,trial,2272682.0,2277815.0,5133.0,36,R,2277381,2277449,70,1173.4,513.6,4139,NA
36,1,binary,36,2,trial,2272682.0,2277815.0,5133.0,36,R,2277479,2278079,602,1420.1,526.4,4141,right
36,1,binary,36,2,postResponse,2272682.0,2277815.0,5133.0,36,R,2278127,2278165,40,1179.8,511.2,4497,NA
36,1,binary,37,2,fixationCross,2278733.0,2282132.0,3399.0,37,R,2278239,2278425,188,1173.9,512.5,4460,NA
36,1,binary,37,2,fixationCross,2278733.0,2282132.0,3399.0,37,R,2278465,2278607,144,920.0,517.4,4608,NA
36,1,binary,37,2,trial,2278733.0,2282132.0,3399.0,37,R,2278625,2278883,260,967.0,552.5,4661,NA
36,1,binary,37,2,trial,2278733.0,2282132.0,3399.0,37,R,2278933,2279157,226,527.8,529.3,4597,left
36,1,binary,37,2,trial,2278733.0,2282132.0,3399.0,37,R,2279183,2279523,342,469.9,623.8,4370,left
36,1,binary,37,2,trial,2278733.0,2282132.0,3399.0,37,R,2279591,2279831,242,1384.7,507.2,4150,right
36,1,binary,37,2,trial,2278733.0,2282132.0,3399.0,37,R,2279853,2280095,244,1447.0,454.1,4150,right
36,1,binary,37,2,trial,2278733.0,2282132.0,3399.0,37,R,2280115,2280277,164,1399.4,506.1,4299,right
36,1,binary,37,2,trial,2278733.0,2282132.0,3399.0,37,R,2280407,2280515,110,1391.8,530.7,4387,right
36,1,binary,37,2,trial,2278733.0,2282132.0,3399.0,37,R,2280537,2280855,320,1331.7,564.8,4470,right
36,1,binary,37,2,trial,2278733.0,2282132.0,3399.0,37,R,2280923,2281175,254,488.2,536.4,4521,left
36,1,binary,37,2,trial,2278733.0,2282132.0,3399.0,37,R,2281199,2281431,234,397.7,469.3,4447,left
36,1,binary,37,2,trial,2278733.0,2282132.0,3399.0,37,R,2281499,2281825,328,1382.6,546.9,4216,right
36,1,binary,37,2,trial,2278733.0,2282132.0,3399.0,37,R,2281851,2282335,486,1443.1,515.7,4317,right
36,1,binary,38,2,fixationCross,2283066.0,2285832.0,2766.0,38,R,2282577,2282751,176,1193.8,499.0,4388,right
36,1,binary,38,2,trial,2283066.0,2285832.0,2766.0,38,R,2282779,2283089,312,983.0,551.8,4676,NA
36,1,binary,38,2,trial,2283066.0,2285832.0,2766.0,38,R,2283107,2283233,128,969.9,551.9,4677,NA
36,1,binary,38,2,trial,2283066.0,2285832.0,2766.0,38,R,2283285,2283445,162,530.8,451.0,4632,left
36,1,binary,38,2,trial,2283066.0,2285832.0,2766.0,38,R,2283471,2283683,214,551.6,517.0,4406,left
36,1,binary,38,2,trial,2283066.0,2285832.0,2766.0,38,R,2283695,2284353,660,544.0,542.4,4254,left
36,1,binary,38,2,trial,2283066.0,2285832.0,2766.0,38,R,2284393,2284561,170,309.5,636.5,4253,left
36,1,binary,38,2,trial,2283066.0,2285832.0,2766.0,38,R,2284637,2284899,264,1432.8,473.6,4049,right
36,1,binary,38,2,trial,2283066.0,2285832.0,2766.0,38,R,2284927,2285119,194,1273.7,426.1,4112,right
36,1,binary,38,2,trial,2283066.0,2285832.0,2766.0,38,R,2285161,2285395,236,1542.6,596.6,4139,right
36,1,binary,38,2,postResponse,2283066.0,2285832.0,2766.0,38,R,2285419,2286175,758,1621.5,645.9,4207,right
36,1,binary,39,2,fixationCross,2286933.0,2291182.0,4249.0,39,R,2286319,2286631,314,1066.3,545.6,4457,NA
36,1,binary,39,2,trial,2286933.0,2291182.0,4249.0,39,R,2286653,2287111,460,958.4,542.9,4561,NA
36,1,binary,39,2,trial,2286933.0,2291182.0,4249.0,39,R,2287161,2287809,650,507.6,549.7,4476,left
36,1,binary,39,2,trial,2286933.0,2291182.0,4249.0,39,R,2287825,2288809,986,491.8,596.5,4290,left
36,1,binary,39,2,trial,2286933.0,2291182.0,4249.0,39,R,2288879,2289125,248,1386.1,494.6,4121,right
36,1,binary,39,2,trial,2286933.0,2291182.0,4249.0,39,R,2289145,2289329,186,1393.3,441.1,4211,right
36,1,binary,39,2,trial,2286933.0,2291182.0,4249.0,39,R,2289349,2289537,190,1364.3,503.3,4213,right
36,1,binary,39,2,trial,2286933.0,2291182.0,4249.0,39,R,2289559,2289879,322,1402.2,559.5,4196,right
36,1,binary,39,2,trial,2286933.0,2291182.0,4249.0,39,R,2289897,2290289,394,1369.8,514.6,4185,right
36,1,binary,39,2,trial,2286933.0,2291182.0,4249.0,39,R,2290307,2290495,190,1315.0,554.2,4195,right
36,1,binary,39,2,trial,2286933.0,2291182.0,4249.0,39,R,2290517,2290715,200,1260.4,581.3,4278,right
36,1,binary,39,2,trial,2286933.0,2291182.0,4249.0,39,R,2290739,2290857,120,1218.3,626.6,4377,right
36,1,binary,39,2,trial,2286933.0,2291182.0,4249.0,39,R,2290885,2290999,116,1315.3,698.4,4426,right
36,1,binary,39,2,trial,2286933.0,2291182.0,4249.0,39,R,2291033,2291421,390,1584.4,699.3,4362,right
36,1,binary,39,2,postResponse,2286933.0,2291182.0,4249.0,39,R,2291497,2291531,36,1156.6,538.1,4413,NA
36,1,binary,40,1,fixationCross,2292266.0,2294300.0,2034.0,40,R,2291605,2291709,106,1151.8,546.2,4417,NA
36,1,binary,40,1,fixationCross,2292266.0,2294300.0,2034.0,40,R,2291749,2291969,222,842.1,546.2,4544,NA
36,1,binary,40,1,trial,2292266.0,2294300.0,2034.0,40,R,2291995,2292403,410,965.8,553.3,4623,NA
36,1,binary,40,1,trial,2292266.0,2294300.0,2034.0,40,R,2292451,2292591,142,585.9,536.8,4560,left
36,1,binary,40,1,trial,2292266.0,2294300.0,2034.0,40,R,2292615,2293011,398,483.9,551.0,4409,left
36,1,binary,40,1,trial,2292266.0,2294300.0,2034.0,40,R,2293081,2293269,190,1373.4,538.1,4140,right
36,1,binary,40,1,trial,2292266.0,2294300.0,2034.0,40,R,2293293,2293573,282,1479.5,504.4,4092,right
36,1,binary,40,1,trial,2292266.0,2294300.0,2034.0,40,R,2293655,2294009,356,483.2,517.9,4478,left
36,1,binary,40,1,trial,2292266.0,2294300.0,2034.0,40,R,2294029,2294607,580,464.0,576.4,4469,left
36,1,binary,41,1,fixationCross,2295350.0,2297533.0,2183.0,41,R,2294711,2295035,326,754.6,492.1,4469,NA
36,1,binary,41,1,fixationCross,2295350.0,2297533.0,2183.0,41,R,2295059,2295161,104,921.2,531.1,4580,NA
36,1,binary,41,1,trial,2295350.0,2297533.0,2183.0,41,R,2295177,2295485,310,971.4,552.6,4588,NA
36,1,binary,41,1,trial,2295350.0,2297533.0,2183.0,41,R,2295531,2295719,190,549.4,549.2,4579,left
36,1,binary,41,1,trial,2295350.0,2297533.0,2183.0,41,R,2295737,2296093,358,485.5,525.8,4225,left
36,1,binary,41,1,trial,2295350.0,2297533.0,2183.0,41,R,2296101,2296467,368,510.9,528.3,4052,left
36,1,binary,41,1,trial,2295350.0,2297533.0,2183.0,41,R,2296479,2296653,176,495.1,505.8,3997,left
36,1,binary,41,1,trial,2295350.0,2297533.0,2183.0,41,R,2296723,2296963,242,1400.2,517.0,3887,right
36,1,binary,41,1,trial,2295350.0,2297533.0,2183.0,41,R,2296985,2297799,816,1461.3,553.0,3914,right
36,1,binary,42,2,fixationCross,2298599.0,2301166.0,2567.0,42,R,2297967,2298091,126,627.5,567.1,4211,left
36,1,binary,42,2,fixationCross,2298599.0,2301166.0,2567.0,42,R,2298119,2298299,182,828.6,547.9,4313,NA
36,1,binary,42,2,trial,2298599.0,2301166.0,2567.0,42,R,2298325,2298741,418,968.4,544.7,4480,NA
36,1,binary,42,2,trial,2298599.0,2301166.0,2567.0,42,R,2298791,2298905,116,513.3,534.6,4596,left
36,1,binary,42,2,trial,2298599.0,2301166.0,2567.0,42,R,2298943,2299095,154,384.0,450.7,4381,left
36,1,binary,42,2,trial,2298599.0,2301166.0,2567.0,42,R,2299105,2299445,342,389.3,475.6,4325,left
36,1,binary,42,2,trial,2298599.0,2301166.0,2567.0,42,R,2299475,2299719,246,456.1,581.4,4406,left
36,1,binary,42,2,trial,2298599.0,2301166.0,2567.0,42,R,2299791,2299953,164,1403.1,429.7,4177,right
36,1,binary,42,2,trial,2298599.0,2301166.0,2567.0,42,R,2299975,2300283,310,1314.1,416.7,4248,right
36,1,binary,42,2,trial,2298599.0,2301166.0,2567.0,42,R,2300313,2300465,154,1470.9,523.6,4320,right
36,1,binary,42,2,trial,2298599.0,2301166.0,2567.0,42,R,2300495,2300913,420,1636.1,557.2,4256,right
36,1,binary,42,2,trial,2298599.0,2301166.0,2567.0,42,R,2300955,2301111,158,1346.9,418.5,4208,right
36,1,binary,42,2,postResponse,2298599.0,2301166.0,2567.0,42,R,2301131,2301515,386,1285.6,407.5,4255,right
36,1,binary,43,1,fixationCross,2302283.0,2303716.0,1433.0,43,R,2301589,2301715,128,1288.4,410.2,4357,right
36,1,binary,43,1,fixationCross,2302283.0,2303716.0,1433.0,43,R,2301741,2301853,114,1152.7,438.2,4367,NA
36,1,binary,43,1,fixationCross,2302283.0,2303716.0,1433.0,43,R,2301875,2301975,102,1198.4,464.7,4358,right
36,1,binary,43,1,trial,2302283.0,2303716.0,1433.0,43,R,2302013,2302413,402,970.3,536.4,4526,NA
36,1,binary,43,1,trial,2302283.0,2303716.0,1433.0,43,R,2302457,2302649,194,584.7,560.4,4539,left
36,1,binary,43,1,trial,2302283.0,2303716.0,1433.0,43,R,2302675,2302983,310,502.7,645.8,4294,left
36,1,binary,43,1,trial,2302283.0,2303716.0,1433.0,43,R,2303055,2303289,236,1497.7,541.2,4009,right
36,1,binary,43,1,trial,2302283.0,2303716.0,1433.0,43,R,2303313,2303587,276,1419.3,490.1,4092,right
36,1,binary,43,1,trial,2302283.0,2303716.0,1433.0,43,R,2303605,2303755,152,1429.1,525.5,4179,right
36,1,binary,43,1,postResponse,2302283.0,2303716.0,1433.0,43,R,2303837,2304061,226,662.7,574.4,4503,left
36,1,binary,44,2,fixationCross,2304750.0,2306166.0,1416.0,44,R,2304137,2304257,122,665.8,576.4,4539,left
36,1,binary,44,2,fixationCross,2304750.0,2306166.0,1416.0,44,R,2304283,2304445,164,810.6,568.2,4461,NA
36,1,binary,44,2,trial,2304750.0,2306166.0,1416.0,44,R,2304471,2304917,448,959.5,550.9,4505,NA
36,1,binary,44,2,trial,2304750.0,2306166.0,1416.0,44,R,2304963,2305083,122,636.6,480.9,4609,left
36,1,binary,44,2,trial,2304750.0,2306166.0,1416.0,44,R,2305115,2305601,488,438.1,543.7,4271,left
36,1,binary,44,2,trial,2304750.0,2306166.0,1416.0,44,R,2305675,2305895,222,1483.5,547.4,3921,right
36,1,binary,44,2,postResponse,2304750.0,2306166.0,1416.0,44,R,2305915,2306515,602,1517.4,558.7,4103,right
36,1,binary,45,2,fixationCross,2307099.0,2312249.0,5150.0,45,R,2306591,2306805,216,1105.6,532.6,4454,NA
36,1,binary,45,2,fixationCross,2307099.0,2312249.0,5150.0,45,R,2306841,2306975,136,872.1,539.3,4635,NA
36,1,binary,45,2,trial,2307099.0,2312249.0,5150.0,45,R,2306997,2307249,254,966.2,534.9,4704,NA
36,1,binary,45,2,trial,2307099.0,2312249.0,5150.0,45,R,2307297,2307429,134,533.5,492.1,4686,left
36,1,binary,45,2,trial,2307099.0,2312249.0,5150.0,45,R,2307453,2307695,244,462.2,579.8,4656,left
36,1,binary,45,2,trial,2307099.0,2312249.0,5150.0,45,R,2307847,2307951,106,408.8,493.5,4595,left
36,1,binary,45,2,trial,2307099.0,2312249.0,5150.0,45,R,2307979,2308167,190,479.3,610.6,4611,left
36,1,binary,45,2,trial,2307099.0,2312249.0,5150.0,45,R,2308181,2308321,142,463.6,634.0,4588,left
36,1,binary,45,2,trial,2307099.0,2312249.0,5150.0,45,R,2308391,2308703,314,1420.3,508.6,4237,right
36,1,binary,45,2,trial,2307099.0,2312249.0,5150.0,45,R,2308725,2309149,426,1531.3,570.7,4215,right
36,1,binary,45,2,trial,2307099.0,2312249.0,5150.0,45,R,2309187,2309379,194,1331.3,601.3,4326,right
36,1,binary,45,2,trial,2307099.0,2312249.0,5150.0,45,R,2309397,2309573,178,1372.3,620.3,4272,right
36,1,binary,45,2,trial,2307099.0,2312249.0,5150.0,45,R,2309595,2309833,240,1537.7,569.6,4171,right
36,1,binary,45,2,trial,2307099.0,2312249.0,5150.0,45,R,2309853,2310151,300,1583.2,621.0,4114,right
36,1,binary,45,2,trial,2307099.0,2312249.0,5150.0,45,R,2310197,2310345,150,1411.7,405.5,4181,right
36,1,binary,45,2,trial,2307099.0,2312249.0,5150.0,45,R,2310363,2310513,152,1445.7,420.0,4161,right
36,1,binary,45,2,trial,2307099.0,2312249.0,5150.0,45,R,2310587,2310725,140,465.9,435.5,4417,left
36,1,binary,45,2,trial,2307099.0,2312249.0,5150.0,45,R,2310747,2310983,238,381.7,427.7,4408,left
36,1,binary,45,2,trial,2307099.0,2312249.0,5150.0,45,R,2311015,2311233,220,501.7,595.6,4386,left
36,1,binary,45,2,trial,2307099.0,2312249.0,5150.0,45,R,2311253,2311501,250,472.1,638.3,4407,left
36,1,binary,45,2,trial,2307099.0,2312249.0,5150.0,45,R,2311569,2311869,302,1370.0,538.1,4201,right
36,1,binary,45,2,trial,2307099.0,2312249.0,5150.0,45,R,2311895,2312487,594,1450.2,462.1,4280,right
36,1,binary,45,2,postResponse,2307099.0,2312249.0,5150.0,45,R,2312545,2312585,42,1226.2,640.1,4415,right
36,1,binary,46,1,fixationCross,2313133.0,2316933.0,3800.0,46,R,2312659,2312739,82,1224.4,652.9,4380,right
36,1,binary,46,1,fixationCross,2313133.0,2316933.0,3800.0,46,R,2312783,2313015,234,893.3,597.4,4485,NA
36,1,binary,46,1,trial,2313133.0,2316933.0,3800.0,46,R,2313039,2313285,248,967.3,543.5,4577,NA
36,1,binary,46,1,trial,2313133.0,2316933.0,3800.0,46,R,2313331,2313593,264,581.8,571.9,4472,left
36,1,binary,46,1,trial,2313133.0,2316933.0,3800.0,46,R,2313613,2314201,590,640.8,610.3,4216,left
36,1,binary,46,1,trial,2313133.0,2316933.0,3800.0,46,R,2314259,2314421,164,1307.1,560.5,4065,right
36,1,binary,46,1,trial,2313133.0,2316933.0,3800.0,46,R,2314461,2314613,154,1572.8,474.9,4002,right
36,1,binary,46,1,trial,2313133.0,2316933.0,3800.0,46,R,2314625,2314877,254,1540.3,478.0,3999,right
36,1,binary,46,1,trial,2313133.0,2316933.0,3800.0,46,R,2314915,2315115,202,1316.7,536.3,4180,right
36,1,binary,46,1,trial,2313133.0,2316933.0,3800.0,46,R,2315133,2315355,224,1347.4,568.1,4161,right
36,1,binary,46,1,trial,2313133.0,2316933.0,3800.0,46,R,2315395,2315795,402,1550.7,477.2,4053,right
36,1,binary,46,1,trial,2313133.0,2316933.0,3800.0,46,R,2315869,2316049,182,616.4,682.7,4411,left
36,1,binary,46,1,trial,2313133.0,2316933.0,3800.0,46,R,2316071,2316219,150,612.6,620.3,4393,left
36,1,binary,46,1,trial,2313133.0,2316933.0,3800.0,46,R,2316233,2316751,520,644.5,609.6,4340,left
36,1,binary,46,1,postResponse,2313133.0,2316933.0,3800.0,46,R,2316785,2317279,496,474.4,622.8,4334,left
36,1,binary,47,1,fixationCross,2317866.0,2321549.0,3683.0,47,R,2317379,2317741,364,922.5,503.1,4263,NA
36,1,binary,47,1,trial,2317866.0,2321549.0,3683.0,47,R,2317757,2318019,264,960.8,535.0,4492,NA
36,1,binary,47,1,trial,2317866.0,2321549.0,3683.0,47,R,2318067,2318197,132,528.6,513.7,4613,left
36,1,binary,47,1,trial,2317866.0,2321549.0,3683.0,47,R,2318219,2318379,162,600.6,488.5,4459,left
36,1,binary,47,1,trial,2317866.0,2321549.0,3683.0,47,R,2318391,2318471,82,628.9,496.2,4356,left
36,1,binary,47,1,trial,2317866.0,2321549.0,3683.0,47,R,2318535,2319293,760,1414.2,456.9,4126,right
36,1,binary,47,1,trial,2317866.0,2321549.0,3683.0,47,R,2319317,2319621,306,1580.4,399.4,4175,right
36,1,binary,47,1,trial,2317866.0,2321549.0,3683.0,47,R,2319647,2320123,478,1653.7,482.4,4245,right
36,1,binary,47,1,trial,2317866.0,2321549.0,3683.0,47,R,2320153,2320413,262,1449.2,538.7,4269,right
36,1,binary,47,1,trial,2317866.0,2321549.0,3683.0,47,R,2320433,2320855,424,1475.7,599.5,4290,right
36,1,binary,47,1,trial,2317866.0,2321549.0,3683.0,47,R,2320865,2321349,486,1465.5,626.3,4295,right
36,1,binary,47,1,trial,2317866.0,2321549.0,3683.0,47,R,2321417,2321579,164,605.1,490.9,4540,left
36,1,binary,47,1,postResponse,2317866.0,2321549.0,3683.0,47,R,2321593,2321885,294,633.7,507.4,4561,left
36,1,binary,48,1,fixationCross,2322616.0,2324416.0,1800.0,48,R,2321987,2322063,78,646.9,508.3,4571,left
36,1,binary,48,1,fixationCross,2322616.0,2324416.0,1800.0,48,R,2322089,2322301,214,783.8,518.6,4651,NA
36,1,binary,48,1,fixationCross,2322616.0,2324416.0,1800.0,48,R,2322327,2322499,174,966.1,530.9,4686,NA
36,1,binary,48,1,trial,2322616.0,2324416.0,1800.0,48,R,2322507,2322767,262,982.5,548.4,4718,NA
36,1,binary,48,1,trial,2322616.0,2324416.0,1800.0,48,R,2322813,2323017,206,612.4,506.3,4720,left
36,1,binary,48,1,trial,2322616.0,2324416.0,1800.0,48,R,2323037,2323143,108,586.5,517.5,4540,left
36,1,binary,48,1,trial,2322616.0,2324416.0,1800.0,48,R,2323165,2323507,344,645.1,487.3,4409,left
36,1,binary,48,1,trial,2322616.0,2324416.0,1800.0,48,R,2323567,2323775,210,1371.5,509.2,4159,right
36,1,binary,48,1,trial,2322616.0,2324416.0,1800.0,48,R,2323799,2324081,284,1491.0,523.3,4120,right
36,1,binary,48,1,trial,2322616.0,2324416.0,1800.0,48,R,2324159,2324427,270,535.3,501.6,4349,left
36,1,binary,48,1,trial,2322616.0,2324416.0,1800.0,48,R,2324455,2324657,204,392.7,552.0,4430,left
36,1,binary,48,1,postResponse,2322616.0,2324416.0,1800.0,48,R,2324707,2324763,58,843.0,552.5,4454,NA
36,1,binary,49,2,fixationCross,2325366.0,2328500.0,3134.0,49,R,2324863,2324989,128,843.0,557.8,4373,NA
36,1,binary,49,2,fixationCross,2325366.0,2328500.0,3134.0,49,R,2325015,2325229,216,994.2,511.7,4374,NA
36,1,binary,49,2,trial,2325366.0,2328500.0,3134.0,49,R,2325245,2325519,276,960.1,536.6,4486,NA
36,1,binary,49,2,trial,2325366.0,2328500.0,3134.0,49,R,2325567,2325779,214,575.6,556.8,4475,left
36,1,binary,49,2,trial,2325366.0,2328500.0,3134.0,49,R,2325803,2325991,190,463.8,583.7,4254,left
36,1,binary,49,2,trial,2325366.0,2328500.0,3134.0,49,R,2326015,2326233,220,574.0,547.2,4248,left
36,1,binary,49,2,trial,2325366.0,2328500.0,3134.0,49,R,2326305,2326611,308,1523.2,466.3,4016,right
36,1,binary,49,2,trial,2325366.0,2328500.0,3134.0,49,R,2326631,2326735,106,1555.3,463.4,4117,right
36,1,binary,49,2,trial,2325366.0,2328500.0,3134.0,49,R,2326809,2327109,302,575.9,470.3,4419,left
36,1,binary,49,2,trial,2325366.0,2328500.0,3134.0,49,R,2327137,2327323,188,668.3,541.5,4455,left
36,1,binary,49,2,trial,2325366.0,2328500.0,3134.0,49,R,2327339,2327491,154,689.6,576.3,4448,left
36,1,binary,49,2,trial,2325366.0,2328500.0,3134.0,49,R,2327559,2327843,286,1527.1,470.5,4213,right
36,1,binary,49,2,trial,2325366.0,2328500.0,3134.0,49,R,2327867,2328099,234,1547.1,542.2,4189,right
36,1,binary,49,2,trial,2325366.0,2328500.0,3134.0,49,R,2328121,2328479,360,1446.7,542.5,4187,right
36,1,binary,49,2,postResponse,2325366.0,2328500.0,3134.0,49,R,2328487,2328835,350,1426.7,546.5,4147,right
36,1,binary,50,1,fixationCross,2329582.0,2331149.0,1567.0,50,R,2328911,2329127,218,1428.6,544.8,4193,right
36,1,binary,50,1,fixationCross,2329582.0,2331149.0,1567.0,50,R,2329197,2329319,124,706.5,535.4,4424,left
36,1,binary,50,1,fixationCross,2329582.0,2331149.0,1567.0,50,R,2329347,2329447,102,930.3,532.1,4413,NA
36,1,binary,50,1,trial,2329582.0,2331149.0,1567.0,50,R,2329465,2329727,264,969.0,543.1,4414,NA
36,1,binary,50,1,trial,2329582.0,2331149.0,1567.0,50,R,2329779,2329937,160,463.2,510.3,4392,left
36,1,binary,50,1,trial,2329582.0,2331149.0,1567.0,50,R,2329959,2330123,166,483.6,444.8,4197,left
36,1,binary,50,1,trial,2329582.0,2331149.0,1567.0,50,R,2330131,2330341,212,483.7,425.8,4084,left
36,1,binary,50,1,trial,2329582.0,2331149.0,1567.0,50,R,2330371,2330515,146,443.6,576.8,4081,left
36,1,binary,50,1,trial,2329582.0,2331149.0,1567.0,50,R,2330587,2330789,204,1458.1,509.9,3952,right
36,1,binary,50,1,trial,2329582.0,2331149.0,1567.0,50,R,2330815,2331025,212,1314.2,561.6,4101,right
36,1,binary,50,1,trial,2329582.0,2331149.0,1567.0,50,R,2331089,2331327,240,552.3,470.6,4447,left
36,1,binary,50,1,postResponse,2329582.0,2331149.0,1567.0,50,R,2331379,2331483,106,844.9,480.6,4449,NA
36,2,continuous,1,93,fixationCross,2395100.0,2399950.0,4850.0,51,R,2394413,2394799,388,778.8,681.8,4495,NA
36,2,continuous,1,93,trial,2395100.0,2399950.0,4850.0,51,R,2394827,2395263,438,955.7,535.8,4617,NA
36,2,continuous,1,93,trial,2395100.0,2399950.0,4850.0,51,R,2395293,2395483,192,801.1,541.4,4494,NA
36,2,continuous,1,93,trial,2395100.0,2399950.0,4850.0,51,R,2395527,2395961,436,935.4,950.5,4274,likertHorizontal
36,2,continuous,1,93,trial,2395100.0,2399950.0,4850.0,51,R,2396017,2396373,358,518.4,564.4,4371,left
36,2,continuous,1,93,trial,2395100.0,2399950.0,4850.0,51,R,2396443,2396591,150,1369.3,566.5,4145,right
36,2,continuous,1,93,trial,2395100.0,2399950.0,4850.0,51,R,2396615,2396827,214,1478.0,583.5,4086,right
36,2,continuous,1,93,trial,2395100.0,2399950.0,4850.0,51,R,2396849,2397061,214,1500.4,575.4,4177,right
36,2,continuous,1,93,trial,2395100.0,2399950.0,4850.0,51,R,2397135,2397385,252,521.0,566.4,4420,left
36,2,continuous,1,93,trial,2395100.0,2399950.0,4850.0,51,R,2397411,2397785,376,630.1,567.2,4372,left
36,2,continuous,1,93,trial,2395100.0,2399950.0,4850.0,51,R,2397813,2397937,126,541.9,618.9,4368,left
36,2,continuous,1,93,trial,2395100.0,2399950.0,4850.0,51,R,2397997,2398151,156,1271.9,975.0,4312,NA
36,2,continuous,1,93,trial,2395100.0,2399950.0,4850.0,51,R,2398177,2398431,256,1406.8,998.9,4261,NA
36,2,continuous,1,93,trial,2395100.0,2399950.0,4850.0,51,R,2398485,2398691,208,1344.5,574.1,4304,right
36,2,continuous,1,93,trial,2395100.0,2399950.0,4850.0,51,R,2398715,2398889,176,1465.8,588.4,4306,right
36,2,continuous,1,93,trial,2395100.0,2399950.0,4850.0,51,R,2398963,2399105,144,1444.4,920.1,4382,NA
36,2,continuous,1,93,trial,2395100.0,2399950.0,4850.0,51,R,2399123,2399697,576,1438.4,975.9,4590,NA
36,2,continuous,1,93,trial,2395100.0,2399950.0,4850.0,51,R,2399717,2399933,218,1373.1,971.8,4589,NA
36,2,continuous,1,93,postResponse,2395100.0,2399950.0,4850.0,51,R,2399991,2400297,308,1352.5,580.3,4641,right
36,2,continuous,2,40,fixationCross,2401201.0,2404918.0,3717.0,52,R,2400371,2400537,168,1354.7,585.1,4684,right
36,2,continuous,2,40,fixationCross,2401201.0,2404918.0,3717.0,52,R,2400553,2400879,328,1289.4,586.0,4652,right
36,2,continuous,2,40,fixationCross,2401201.0,2404918.0,3717.0,52,R,2400925,2401045,122,945.6,525.0,4832,NA
36,2,continuous,2,40,trial,2401201.0,2404918.0,3717.0,52,R,2401057,2401349,294,964.4,544.2,4764,NA
36,2,continuous,2,40,trial,2401201.0,2404918.0,3717.0,52,R,2401399,2401593,196,567.2,491.3,4607,left
36,2,continuous,2,40,trial,2401201.0,2404918.0,3717.0,52,R,2401615,2401859,246,493.1,514.0,4154,left
36,2,continuous,2,40,trial,2401201.0,2404918.0,3717.0,52,R,2401877,2402065,190,541.7,497.4,4046,left
36,2,continuous,2,40,trial,2401201.0,2404918.0,3717.0,52,R,2402139,2402365,228,1529.4,545.8,3811,right
36,2,continuous,2,40,trial,2401201.0,2404918.0,3717.0,52,R,2402387,2402575,190,1426.4,514.8,3847,right
36,2,continuous,2,40,trial,2401201.0,2404918.0,3717.0,52,R,2402647,2402893,248,474.3,474.8,4109,left
36,2,continuous,2,40,trial,2401201.0,2404918.0,3717.0,52,R,2402971,2403185,216,1515.0,554.3,3982,right
36,2,continuous,2,40,trial,2401201.0,2404918.0,3717.0,52,R,2403207,2403547,342,1432.3,518.4,4038,right
36,2,continuous,2,40,trial,2401201.0,2404918.0,3717.0,52,R,2403617,2403845,230,489.5,477.5,4385,left
36,2,continuous,2,40,trial,2401201.0,2404918.0,3717.0,52,R,2403863,2404007,146,504.2,528.5,4388,left
36,2,continuous,2,40,trial,2401201.0,2404918.0,3717.0,52,R,2404065,2404315,252,915.6,997.2,4395,likertHorizontal
36,2,continuous,2,40,trial,2401201.0,2404918.0,3717.0,52,R,2404367,2404579,214,713.3,610.7,4307,left
36,2,continuous,2,40,trial,2401201.0,2404918.0,3717.0,52,R,2404621,2405151,532,503.9,449.2,4404,left
36,2,continuous,2,40,postResponse,2401201.0,2404918.0,3717.0,52,R,2405193,2405263,72,906.2,520.1,4427,NA
36,2,continuous,3,14,fixationCross,2405851.0,2411217.0,5366.0,53,R,2405363,2405635,274,907.0,529.0,4601,NA
36,2,continuous,3,14,fixationCross,2405851.0,2411217.0,5366.0,53,R,2405651,2405783,134,872.4,562.8,4722,NA
36,2,continuous,3,14,trial,2405851.0,2411217.0,5366.0,53,R,2405805,2406043,240,963.4,540.5,4799,NA
36,2,continuous,3,14,trial,2405851.0,2411217.0,5366.0,53,R,2406091,2406215,126,537.6,465.5,4763,left
36,2,continuous,3,14,trial,2405851.0,2411217.0,5366.0,53,R,2406235,2406409,176,470.5,446.1,4323,left
36,2,continuous,3,14,trial,2405851.0,2411217.0,5366.0,53,R,2406419,2406593,176,451.0,432.9,4167,left
36,2,continuous,3,14,trial,2405851.0,2411217.0,5366.0,53,R,2406669,2406863,196,1523.4,513.3,3955,right
36,2,continuous,3,14,trial,2405851.0,2411217.0,5366.0,53,R,2406885,2407021,138,1564.5,541.0,4055,right
36,2,continuous,3,14,trial,2405851.0,2411217.0,5366.0,53,R,2407043,2407283,242,1464.2,546.8,4268,right
36,2,continuous,3,14,trial,2405851.0,2411217.0,5366.0,53,R,2407359,2407497,140,446.4,458.5,4500,left
36,2,continuous,3,14,trial,2405851.0,2411217.0,5366.0,53,R,2407517,2408197,682,450.0,434.3,4296,left
36,2,continuous,3,14,trial,2405851.0,2411217.0,5366.0,53,R,2408271,2408463,194,1459.1,513.5,4099,right
36,2,continuous,3,14,trial,2405851.0,2411217.0,5366.0,53,R,2408489,2408873,386,1511.9,592.5,4178,right
36,2,continuous,3,14,trial,2405851.0,2411217.0,5366.0,53,R,2408895,2409373,480,1425.1,520.3,4289,right
36,2,continuous,3,14,trial,2405851.0,2411217.0,5366.0,53,R,2409447,2409831,386,472.2,458.8,4372,left
36,2,continuous,3,14,postResponse,2405851.0,2411217.0,5366.0,53,R,2409853,2411565,1714,455.4,444.4,4451,left
36,2,continuous,4,1,fixationCross,2412134.0,2414834.0,2700.0,54,R,2411653,2411793,142,622.1,456.2,4535,left
36,2,continuous,4,1,fixationCross,2412134.0,2414834.0,2700.0,54,R,2411839,2411915,78,970.3,516.7,4522,NA
36,2,continuous,4,1,fixationCross,2412134.0,2414834.0,2700.0,54,R,2411935,2412061,128,1057.9,524.2,4531,NA
36,2,continuous,4,1,trial,2412134.0,2414834.0,2700.0,54,R,2412085,2412309,226,966.6,539.4,4679,NA
36,2,continuous,4,1,trial,2412134.0,2414834.0,2700.0,54,R,2412357,2412489,134,499.5,503.9,4735,left
36,2,continuous,4,1,trial,2412134.0,2414834.0,2700.0,54,R,2412513,2412869,358,458.0,559.9,4414,left
36,2,continuous,4,1,trial,2412134.0,2414834.0,2700.0,54,R,2412937,2413153,218,1422.4,578.3,4184,right
36,2,continuous,4,1,trial,2412134.0,2414834.0,2700.0,54,R,2413175,2413415,242,1521.2,539.9,4141,right
36,2,continuous,4,1,trial,2412134.0,2414834.0,2700.0,54,R,2413453,2413605,154,1382.2,426.1,4150,right
36,2,continuous,4,1,trial,2412134.0,2414834.0,2700.0,54,R,2413627,2413769,144,1288.1,389.8,4211,right
36,2,continuous,4,1,trial,2412134.0,2414834.0,2700.0,54,R,2413801,2413993,194,1382.6,556.6,4267,right
36,2,continuous,4,1,trial,2412134.0,2414834.0,2700.0,54,R,2414067,2414251,186,419.2,544.6,4471,left
36,2,continuous,4,1,trial,2412134.0,2414834.0,2700.0,54,R,2414273,2414665,394,460.1,573.3,4462,left
36,2,continuous,4,1,postResponse,2412134.0,2414834.0,2700.0,54,R,2414733,2415181,450,1356.5,552.0,4353,right
36,2,continuous,5,69,fixationCross,2415734.0,2420284.0,4550.0,55,R,2415255,2415565,312,990.6,505.8,4609,NA
36,2,continuous,5,69,trial,2415734.0,2420284.0,4550.0,55,R,2415587,2415885,300,952.9,541.2,4772,NA
36,2,continuous,5,69,trial,2415734.0,2420284.0,4550.0,55,R,2415935,2416225,292,483.3,542.8,4708,left
36,2,continuous,5,69,trial,2415734.0,2420284.0,4550.0,55,R,2416237,2416541,306,492.6,522.5,4399,left
36,2,continuous,5,69,trial,2415734.0,2420284.0,4550.0,55,R,2416607,2416829,224,1352.9,497.5,4309,right
36,2,continuous,5,69,trial,2415734.0,2420284.0,4550.0,55,R,2416897,2417051,156,528.7,503.7,4614,left
36,2,continuous,5,69,trial,2415734.0,2420284.0,4550.0,55,R,2417071,2417725,656,487.1,522.7,4624,left
36,2,continuous,5,69,trial,2415734.0,2420284.0,4550.0,55,R,2417797,2418039,244,1440.7,506.3,4336,right
36,2,continuous,5,69,trial,2415734.0,2420284.0,4550.0,55,R,2418059,2418183,126,1465.9,543.4,4363,right
36,2,continuous,5,69,trial,2415734.0,2420284.0,4550.0,55,R,2418205,2418429,226,1573.9,518.2,4422,right
36,2,continuous,5,69,trial,2415734.0,2420284.0,4550.0,55,R,2418459,2418619,162,1564.2,647.7,4382,right
36,2,continuous,5,69,trial,2415734.0,2420284.0,4550.0,55,R,2418653,2418793,142,1358.4,666.6,4426,right
36,2,continuous,5,69,trial,2415734.0,2420284.0,4550.0,55,R,2418835,2418987,154,1168.1,967.4,4508,likertHorizontal
36,2,continuous,5,69,trial,2415734.0,2420284.0,4550.0,55,R,2419053,2419275,224,537.9,541.2,4605,left
36,2,continuous,5,69,trial,2415734.0,2420284.0,4550.0,55,R,2419329,2419575,248,1142.1,983.2,4649,likertHorizontal
36,2,continuous,5,69,trial,2415734.0,2420284.0,4550.0,55,R,2419635,2419767,134,549.6,502.0,4606,left
36,2,continuous,5,69,trial,2415734.0,2420284.0,4550.0,55,R,2419789,2419905,118,507.6,515.6,4664,left
36,2,continuous,5,69,trial,2415734.0,2420284.0,4550.0,55,R,2419971,2420267,298,1183.6,993.0,4656,NA
36,2,continuous,5,69,postResponse,2415734.0,2420284.0,4550.0,55,R,2420317,2420625,310,1288.0,638.9,4517,right
36,2,continuous,6,13,fixationCross,2421317.0,2426267.0,4950.0,56,R,2420725,2420769,46,1282.4,639.2,4649,right
36,2,continuous,6,13,fixationCross,2421317.0,2426267.0,4950.0,56,R,2420809,2421031,224,1113.8,518.4,4681,NA
36,2,continuous,6,13,fixationCross,2421317.0,2426267.0,4950.0,56,R,2421059,2421179,122,947.2,523.1,4716,NA
36,2,continuous,6,13,trial,2421317.0,2426267.0,4950.0,56,R,2421191,2421507,318,964.8,553.4,4702,NA
36,2,continuous,6,13,trial,2421317.0,2426267.0,4950.0,56,R,2421555,2421731,178,526.1,528.4,4601,left
36,2,continuous,6,13,trial,2421317.0,2426267.0,4950.0,56,R,2421755,2421987,234,584.2,516.1,4351,left
36,2,continuous,6,13,trial,2421317.0,2426267.0,4950.0,56,R,2421999,2422259,262,553.0,544.4,4335,left
36,2,continuous,6,13,trial,2421317.0,2426267.0,4950.0,56,R,2422325,2422443,120,1359.1,479.1,4181,right
36,2,continuous,6,13,trial,2421317.0,2426267.0,4950.0,56,R,2422467,2422761,296,1469.9,430.4,4194,right
36,2,continuous,6,13,trial,2421317.0,2426267.0,4950.0,56,R,2422831,2423099,270,553.1,532.8,4611,left
36,2,continuous,6,13,trial,2421317.0,2426267.0,4950.0,56,R,2423123,2423465,344,609.9,504.8,4455,left
36,2,continuous,6,13,trial,2421317.0,2426267.0,4950.0,56,R,2423515,2423683,170,792.2,767.1,4547,likertHorizontal
36,2,continuous,6,13,trial,2421317.0,2426267.0,4950.0,56,R,2423727,2423959,234,562.0,568.0,4662,left
36,2,continuous,6,13,trial,2421317.0,2426267.0,4950.0,56,R,2424035,2424369,336,1468.7,444.4,4300,right
36,2,continuous,6,13,trial,2421317.0,2426267.0,4950.0,56,R,2424389,2424575,188,1483.9,425.0,4400,right
36,2,continuous,6,13,trial,2421317.0,2426267.0,4950.0,56,R,2424603,2424923,322,1454.3,545.4,4388,right
36,2,continuous,6,13,trial,2421317.0,2426267.0,4950.0,56,R,2424989,2425255,268,653.1,835.3,4698,NA
36,2,continuous,6,13,trial,2421317.0,2426267.0,4950.0,56,R,2425295,2426555,1262,588.4,577.7,4585,left
36,2,continuous,6,13,postResponse,2421317.0,2426267.0,4950.0,56,R,2426583,2426611,30,773.5,488.0,4607,NA
36,2,continuous,7,24,fixationCross,2427201.0,2432034.0,4833.0,57,R,2426713,2426849,138,778.5,488.6,4642,NA
36,2,continuous,7,24,fixationCross,2427201.0,2432034.0,4833.0,57,R,2426883,2427107,226,976.3,507.3,4626,NA
36,2,continuous,7,24,trial,2427201.0,2432034.0,4833.0,57,R,2427119,2427403,286,959.3,535.9,4674,NA
36,2,continuous,7,24,trial,2427201.0,2432034.0,4833.0,57,R,2427453,2427637,186,518.1,493.4,4557,left
36,2,continuous,7,24,trial,2427201.0,2432034.0,4833.0,57,R,2427663,2427829,168,461.8,595.8,4305,left
36,2,continuous,7,24,trial,2427201.0,2432034.0,4833.0,57,R,2427851,2428167,318,515.5,639.5,4290,left
36,2,continuous,7,24,trial,2427201.0,2432034.0,4833.0,57,R,2428231,2428415,186,1317.0,490.8,4104,right
36,2,continuous,7,24,trial,2427201.0,2432034.0,4833.0,57,R,2428435,2428703,270,1354.7,474.7,4075,right
36,2,continuous,7,24,trial,2427201.0,2432034.0,4833.0,57,R,2428769,2428981,214,520.9,475.4,4310,left
36,2,continuous,7,24,trial,2427201.0,2432034.0,4833.0,57,R,2429007,2429549,544,527.4,587.8,4435,left
36,2,continuous,7,24,trial,2427201.0,2432034.0,4833.0,57,R,2429567,2429751,186,552.5,531.1,4554,left
36,2,continuous,7,24,trial,2427201.0,2432034.0,4833.0,57,R,2429819,2430107,290,1371.1,488.5,4358,right
36,2,continuous,7,24,trial,2427201.0,2432034.0,4833.0,57,R,2430121,2430521,402,1354.5,463.2,4250,right
36,2,continuous,7,24,trial,2427201.0,2432034.0,4833.0,57,R,2430545,2430747,204,1416.0,567.0,4138,right
36,2,continuous,7,24,trial,2427201.0,2432034.0,4833.0,57,R,2430811,2431101,292,544.7,509.4,4378,left
36,2,continuous,7,24,trial,2427201.0,2432034.0,4833.0,57,R,2431121,2431293,174,493.6,553.1,4404,left
36,2,continuous,7,24,trial,2427201.0,2432034.0,4833.0,57,R,2431319,2431479,162,522.4,647.9,4406,left
36,2,continuous,7,24,trial,2427201.0,2432034.0,4833.0,57,R,2431499,2431637,140,462.7,625.4,4401,left
36,2,continuous,7,24,postResponse,2427201.0,2432034.0,4833.0,57,R,2431705,2432381,678,1365.8,524.9,4197,right
36,2,continuous,8,72,fixationCross,2432934.0,2436818.0,3884.0,58,R,2432455,2432477,24,1367.1,530.5,4357,right
36,2,continuous,8,72,fixationCross,2432934.0,2436818.0,3884.0,58,R,2432525,2432821,298,976.2,515.5,4559,NA
36,2,continuous,8,72,trial,2432934.0,2436818.0,3884.0,58,R,2432835,2433077,244,959.0,546.1,4620,NA
36,2,continuous,8,72,trial,2432934.0,2436818.0,3884.0,58,R,2433121,2433269,150,611.5,555.3,4628,left
36,2,continuous,8,72,trial,2432934.0,2436818.0,3884.0,58,R,2433291,2433437,148,545.9,612.8,4300,left
36,2,continuous,8,72,trial,2432934.0,2436818.0,3884.0,58,R,2433477,2433595,120,317.2,623.2,4161,left
36,2,continuous,8,72,trial,2432934.0,2436818.0,3884.0,58,R,2433669,2433923,256,1391.0,609.0,3962,right
36,2,continuous,8,72,trial,2432934.0,2436818.0,3884.0,58,R,2433943,2434105,164,1457.9,584.7,3985,right
36,2,continuous,8,72,trial,2432934.0,2436818.0,3884.0,58,R,2434131,2434411,282,1538.3,631.9,4031,right
36,2,continuous,8,72,trial,2432934.0,2436818.0,3884.0,58,R,2434483,2434669,188,687.4,490.4,4307,left
36,2,continuous,8,72,trial,2432934.0,2436818.0,3884.0,58,R,2434695,2434963,270,588.8,590.3,4402,left
36,2,continuous,8,72,trial,2432934.0,2436818.0,3884.0,58,R,2434981,2435235,256,586.8,630.7,4508,left
36,2,continuous,8,72,trial,2432934.0,2436818.0,3884.0,58,R,2435281,2435345,66,944.7,609.5,4385,NA
36,2,continuous,8,72,trial,2432934.0,2436818.0,3884.0,58,R,2435395,2435643,250,1398.2,624.3,4183,right
36,2,continuous,8,72,trial,2432934.0,2436818.0,3884.0,58,R,2435667,2436131,466,1566.6,570.8,4139,right
36,2,continuous,8,72,trial,2432934.0,2436818.0,3884.0,58,R,2436165,2436513,350,1390.0,663.9,4174,right
36,2,continuous,8,72,postResponse,2432934.0,2436818.0,3884.0,58,R,2436533,2437161,630,1343.8,630.8,4145,right
36,2,continuous,9,55,fixationCross,2437868.0,2441718.0,3850.0,59,R,2437237,2437437,202,1149.7,612.8,4356,NA
36,2,continuous,9,55,fixationCross,2437868.0,2441718.0,3850.0,59,R,2437483,2437611,130,854.2,530.9,4626,NA
36,2,continuous,9,55,trial,2437868.0,2441718.0,3850.0,59,R,2437633,2438009,378,959.2,543.6,4635,NA
36,2,continuous,9,55,trial,2437868.0,2441718.0,3850.0,59,R,2438057,2438287,232,574.0,548.8,4488,left
36,2,continuous,9,55,trial,2437868.0,2441718.0,3850.0,59,R,2438301,2438447,148,529.5,536.5,4207,left
36,2,continuous,9,55,trial,2437868.0,2441718.0,3850.0,59,R,2438469,2438643,176,603.3,508.2,4181,left
36,2,continuous,9,55,trial,2437868.0,2441718.0,3850.0,59,R,2438705,2438857,154,1368.8,587.8,4008,right
36,2,continuous,9,55,trial,2437868.0,2441718.0,3850.0,59,R,2438879,2439047,170,1463.1,604.0,4015,right
36,2,continuous,9,55,trial,2437868.0,2441718.0,3850.0,59,R,2439089,2439303,216,1288.4,437.3,4122,right
36,2,continuous,9,55,trial,2437868.0,2441718.0,3850.0,59,R,2439335,2439519,186,1419.3,604.0,4155,right
36,2,continuous,9,55,trial,2437868.0,2441718.0,3850.0,59,R,2439541,2439799,260,1548.3,616.0,4156,right
36,2,continuous,9,55,trial,2437868.0,2441718.0,3850.0,59,R,2439875,2440119,246,625.8,508.4,4422,left
36,2,continuous,9,55,trial,2437868.0,2441718.0,3850.0,59,R,2440167,2440431,266,861.9,759.2,4595,likertHorizontal
36,2,continuous,9,55,trial,2437868.0,2441718.0,3850.0,59,R,2440479,2440809,332,528.5,525.2,4673,left
36,2,continuous,9,55,trial,2437868.0,2441718.0,3850.0,59,R,2440829,2441131,304,568.8,530.1,4699,left
36,2,continuous,9,55,trial,2437868.0,2441718.0,3850.0,59,R,2441155,2441269,116,650.5,493.9,4686,left
36,2,continuous,9,55,trial,2437868.0,2441718.0,3850.0,59,R,2441327,2441593,268,1308.3,550.4,4443,right
36,2,continuous,9,55,postResponse,2437868.0,2441718.0,3850.0,59,R,2441619,2442065,448,1414.2,616.8,4358,right
36,2,continuous,10,1,fixationCross,2442651.0,2448535.0,5884.0,60,R,2442165,2442489,326,1035.9,544.0,4673,NA
36,2,continuous,10,1,trial,2442651.0,2448535.0,5884.0,60,R,2442511,2442845,336,941.8,546.2,4838,NA
36,2,continuous,10,1,trial,2442651.0,2448535.0,5884.0,60,R,2442893,2443031,140,529.4,535.4,4780,left
36,2,continuous,10,1,trial,2442651.0,2448535.0,5884.0,60,R,2443053,2443601,550,463.1,550.3,4415,left
36,2,continuous,10,1,trial,2442651.0,2448535.0,5884.0,60,R,2443617,2444111,496,454.7,537.0,4421,left
36,2,continuous,10,1,trial,2442651.0,2448535.0,5884.0,60,R,2444133,2444321,190,481.7,528.9,4463,left
36,2,continuous,10,1,trial,2442651.0,2448535.0,5884.0,60,R,2444389,2444571,184,1385.8,513.3,4266,right
36,2,continuous,10,1,trial,2442651.0,2448535.0,5884.0,60,R,2444597,2444853,258,1460.6,552.0,4221,right
36,2,continuous,10,1,trial,2442651.0,2448535.0,5884.0,60,R,2444875,2445103,230,1398.6,528.8,4242,right
36,2,continuous,10,1,trial,2442651.0,2448535.0,5884.0,60,R,2445121,2445293,174,1458.4,540.9,4208,right
36,2,continuous,10,1,trial,2442651.0,2448535.0,5884.0,60,R,2445367,2445553,188,489.3,528.6,4477,left
36,2,continuous,10,1,trial,2442651.0,2448535.0,5884.0,60,R,2445575,2445883,310,457.1,547.3,4452,left
36,2,continuous,10,1,trial,2442651.0,2448535.0,5884.0,60,R,2445955,2446227,274,1453.4,518.7,4117,right
36,2,continuous,10,1,trial,2442651.0,2448535.0,5884.0,60,R,2446249,2446431,184,1478.6,554.5,4159,right
36,2,continuous,10,1,trial,2442651.0,2448535.0,5884.0,60,R,2446503,2446637,136,586.0,527.5,4520,left
36,2,continuous,10,1,trial,2442651.0,2448535.0,5884.0,60,R,2446665,2447361,698,467.2,552.6,4464,left
36,2,continuous,10,1,trial,2442651.0,2448535.0,5884.0,60,R,2447375,2447795,422,458.6,571.4,4424,left
36,2,continuous,10,1,trial,2442651.0,2448535.0,5884.0,60,R,2447807,2447953,148,447.3,550.5,4528,left
36,2,continuous,10,1,trial,2442651.0,2448535.0,5884.0,60,R,2448053,2448279,228,478.3,535.0,4545,left
36,2,continuous,10,1,trial,2442651.0,2448535.0,5884.0,60,R,2448293,2448795,504,460.5,549.8,4571,left
36,2,continuous,10,1,postResponse,2442651.0,2448535.0,5884.0,60,R,2448835,2448907,74,794.4,480.5,4488,NA
36,2,continuous,11,86,fixationCross,2449484.0,2453868.0,4384.0,61,R,2449027,2449203,178,983.2,497.2,4462,NA
36,2,continuous,11,86,fixationCross,2449484.0,2453868.0,4384.0,61,R,2449219,2449379,162,975.1,542.8,4552,NA
36,2,continuous,11,86,trial,2449484.0,2453868.0,4384.0,61,R,2449389,2449671,284,957.8,548.8,4660,NA
36,2,continuous,11,86,trial,2449484.0,2453868.0,4384.0,61,R,2449721,2449965,246,492.0,483.2,4512,left
36,2,continuous,11,86,trial,2449484.0,2453868.0,4384.0,61,R,2449997,2450289,294,503.5,604.2,4384,left
36,2,continuous,11,86,trial,2449484.0,2453868.0,4384.0,61,R,2450313,2450503,192,408.6,642.4,4433,left
36,2,continuous,11,86,trial,2449484.0,2453868.0,4384.0,61,R,2450541,2450727,188,372.7,481.9,4397,left
36,2,continuous,11,86,trial,2449484.0,2453868.0,4384.0,61,R,2450747,2450979,234,347.6,473.2,4352,left
36,2,continuous,11,86,trial,2449484.0,2453868.0,4384.0,61,R,2451003,2451295,294,464.2,413.3,4332,left
36,2,continuous,11,86,trial,2449484.0,2453868.0,4384.0,61,R,2451365,2451529,166,1397.8,449.1,4192,right
36,2,continuous,11,86,trial,2449484.0,2453868.0,4384.0,61,R,2451553,2451781,230,1427.5,384.4,4225,right
36,2,continuous,11,86,trial,2449484.0,2453868.0,4384.0,61,R,2451807,2451943,138,1453.8,457.3,4328,right
36,2,continuous,11,86,trial,2449484.0,2453868.0,4384.0,61,R,2451971,2452233,264,1503.0,611.0,4434,right
36,2,continuous,11,86,trial,2449484.0,2453868.0,4384.0,61,R,2452245,2452561,318,1529.7,626.7,4402,right
36,2,continuous,11,86,trial,2449484.0,2453868.0,4384.0,61,R,2452585,2452897,314,1349.3,591.8,4474,right
36,2,continuous,11,86,trial,2449484.0,2453868.0,4384.0,61,R,2452919,2453267,350,1410.1,558.1,4458,right
36,2,continuous,11,86,trial,2449484.0,2453868.0,4384.0,61,R,2453293,2453431,140,1456.1,453.1,4381,right
36,2,continuous,11,86,trial,2449484.0,2453868.0,4384.0,61,R,2453453,2453555,104,1406.1,388.2,4375,right
36,2,continuous,11,86,trial,2449484.0,2453868.0,4384.0,61,R,2453627,2453887,262,519.6,472.0,4581,left
36,2,continuous,11,86,trial,2449484.0,2453868.0,4384.0,61,R,2453907,2454107,202,527.7,542.3,4602,left
36,2,continuous,11,86,postResponse,2449484.0,2453868.0,4384.0,61,R,2454161,2454213,54,1113.9,482.6,4456,NA
36,2,continuous,12,100,fixationCross,2454768.0,2457435.0,2667.0,62,R,2454287,2454459,174,1131.8,481.7,4437,NA
36,2,continuous,12,100,fixationCross,2454768.0,2457435.0,2667.0,62,R,2454485,2454667,184,953.5,487.4,4594,NA
36,2,continuous,12,100,trial,2454768.0,2457435.0,2667.0,62,R,2454685,2454937,254,964.8,532.3,4677,NA
36,2,continuous,12,100,trial,2454768.0,2457435.0,2667.0,62,R,2454983,2455221,240,555.6,483.1,4542,left
36,2,continuous,12,100,trial,2454768.0,2457435.0,2667.0,62,R,2455243,2455393,152,593.2,529.4,4266,left
36,2,continuous,12,100,trial,2454768.0,2457435.0,2667.0,62,R,2455455,2455599,146,1397.5,440.0,4054,right
36,2,continuous,12,100,trial,2454768.0,2457435.0,2667.0,62,R,2455621,2455983,364,1450.6,376.6,3991,right
36,2,continuous,12,100,trial,2454768.0,2457435.0,2667.0,62,R,2456021,2456187,168,1517.3,625.2,3990,right
36,2,continuous,12,100,trial,2454768.0,2457435.0,2667.0,62,R,2456211,2456403,194,1323.3,582.4,4078,right
36,2,continuous,12,100,trial,2454768.0,2457435.0,2667.0,62,R,2456427,2456931,506,1311.4,493.8,4299,right
36,2,continuous,12,100,trial,2454768.0,2457435.0,2667.0,62,R,2456995,2457233,240,554.4,506.4,4464,left
36,2,continuous,12,100,trial,2454768.0,2457435.0,2667.0,62,R,2457261,2457599,340,496.8,599.3,4403,left
36,2,continuous,12,100,postResponse,2454768.0,2457435.0,2667.0,62,R,2457641,2457775,136,828.1,552.7,4308,NA
36,2,continuous,13,1,fixationCross,2458335.0,2459835.0,1500.0,63,R,2457875,2458235,362,1005.9,549.0,4381,NA
36,2,continuous,13,1,trial,2458335.0,2459835.0,1500.0,63,R,2458255,2458523,270,961.3,549.7,4554,NA
36,2,continuous,13,1,trial,2458335.0,2459835.0,1500.0,63,R,2458573,2458705,134,520.5,573.7,4521,left
36,2,continuous,13,1,trial,2458335.0,2459835.0,1500.0,63,R,2458727,2458895,170,506.8,646.2,4306,left
36,2,continuous,13,1,trial,2458335.0,2459835.0,1500.0,63,R,2458915,2459083,170,580.9,659.8,4299,left
36,2,continuous,13,1,trial,2458335.0,2459835.0,1500.0,63,R,2459095,2459227,134,600.7,681.1,4406,left
36,2,continuous,13,1,trial,2458335.0,2459835.0,1500.0,63,R,2459295,2459535,242,1436.5,604.8,4354,right
36,2,continuous,13,1,trial,2458335.0,2459835.0,1500.0,63,R,2459561,2459707,148,1410.2,705.2,4349,right
36,2,continuous,13,1,trial,2458335.0,2459835.0,1500.0,63,R,2459781,2460131,352,504.3,548.0,4457,left
36,2,continuous,14,51,fixationCross,2460784.0,2465218.0,4434.0,64,R,2460283,2460617,336,1001.8,584.1,4717,NA
36,2,continuous,14,51,trial,2460784.0,2465218.0,4434.0,64,R,2460637,2460951,316,957.5,551.8,4800,NA
36,2,continuous,14,51,trial,2460784.0,2465218.0,4434.0,64,R,2461001,2461195,196,472.7,526.1,4624,left
36,2,continuous,14,51,trial,2460784.0,2465218.0,4434.0,64,R,2461221,2461515,296,402.9,586.8,4315,left
36,2,continuous,14,51,trial,2460784.0,2465218.0,4434.0,64,R,2461589,2461855,268,1325.1,468.9,4337,right
36,2,continuous,14,51,trial,2460784.0,2465218.0,4434.0,64,R,2461933,2462121,190,422.6,542.5,4546,left
36,2,continuous,14,51,trial,2460784.0,2465218.0,4434.0,64,R,2462149,2462361,214,469.9,593.0,4545,left
36,2,continuous,14,51,trial,2460784.0,2465218.0,4434.0,64,R,2462383,2462467,86,434.5,592.8,4478,left
36,2,continuous,14,51,trial,2460784.0,2465218.0,4434.0,64,R,2462535,2462747,214,1359.2,454.4,4121,right
36,2,continuous,14,51,trial,2460784.0,2465218.0,4434.0,64,R,2462757,2463073,318,1337.6,447.9,4096,right
36,2,continuous,14,51,trial,2460784.0,2465218.0,4434.0,64,R,2463101,2463359,260,1464.7,613.6,4086,right
36,2,continuous,14,51,trial,2460784.0,2465218.0,4434.0,64,R,2463441,2463623,184,388.6,514.4,4390,left
36,2,continuous,14,51,trial,2460784.0,2465218.0,4434.0,64,R,2463653,2463799,148,460.9,559.7,4414,left
36,2,continuous,14,51,trial,2460784.0,2465218.0,4434.0,64,R,2463821,2463955,136,414.0,594.0,4478,left
36,2,continuous,14,51,trial,2460784.0,2465218.0,4434.0,64,R,2464009,2464135,128,915.1,964.4,4484,likertHorizontal
36,2,continuous,14,51,trial,2460784.0,2465218.0,4434.0,64,R,2464153,2464477,326,955.1,981.5,4379,likertHorizontal
36,2,continuous,14,51,trial,2460784.0,2465218.0,4434.0,64,R,2464537,2465463,928,1338.9,452.2,4314,right
36,2,continuous,15,71,fixationCross,2466268.0,2470235.0,3967.0,65,R,2465703,2465951,250,849.2,519.6,4798,NA
36,2,continuous,15,71,trial,2466268.0,2470235.0,3967.0,65,R,2465973,2466459,488,957.8,546.8,4689,NA
36,2,continuous,15,71,trial,2466268.0,2470235.0,3967.0,65,R,2466507,2466725,220,524.2,527.5,4378,left
36,2,continuous,15,71,trial,2466268.0,2470235.0,3967.0,65,R,2466747,2466995,250,565.2,563.2,4140,left
36,2,continuous,15,71,trial,2466268.0,2470235.0,3967.0,65,R,2467017,2467153,138,512.8,583.6,4132,left
36,2,continuous,15,71,trial,2466268.0,2470235.0,3967.0,65,R,2467221,2467443,224,1409.6,504.2,3942,right
36,2,continuous,15,71,trial,2466268.0,2470235.0,3967.0,65,R,2467457,2467693,238,1444.9,506.7,3982,right
36,2,continuous,15,71,trial,2466268.0,2470235.0,3967.0,65,R,2467719,2468131,414,1439.4,619.1,4066,right
36,2,continuous,15,71,trial,2466268.0,2470235.0,3967.0,65,R,2468157,2469273,1118,1422.7,482.0,4314,right
36,2,continuous,15,71,trial,2466268.0,2470235.0,3967.0,65,R,2469339,2469595,258,691.3,531.3,4534,left
36,2,continuous,15,71,trial,2466268.0,2470235.0,3967.0,65,R,2469617,2469755,140,655.9,533.7,4543,left
36,2,continuous,15,71,trial,2466268.0,2470235.0,3967.0,65,R,2469781,2469967,188,485.1,534.0,4487,left
36,2,continuous,15,71,postResponse,2466268.0,2470235.0,3967.0,65,R,2469989,2470581,594,531.0,541.1,4368,left
36,2,continuous,16,88,fixationCross,2471268.0,2475452.0,4184.0,66,R,2470695,2470963,270,779.4,514.3,4395,NA
36,2,continuous,16,88,fixationCross,2471268.0,2475452.0,4184.0,66,R,2470989,2471097,110,925.7,521.4,4502,NA
36,2,continuous,16,88,trial,2471268.0,2475452.0,4184.0,66,R,2471107,2471421,316,954.3,533.0,4577,NA
36,2,continuous,16,88,trial,2471268.0,2475452.0,4184.0,66,R,2471483,2471725,244,454.7,562.7,4515,left
36,2,continuous,16,88,trial,2471268.0,2475452.0,4184.0,66,R,2471739,2472113,376,454.3,605.0,4243,left
36,2,continuous,16,88,trial,2471268.0,2475452.0,4184.0,66,R,2472187,2472345,160,1406.3,615.3,4059,right
36,2,continuous,16,88,trial,2471268.0,2475452.0,4184.0,66,R,2472367,2472525,160,1322.8,597.1,4111,right
36,2,continuous,16,88,trial,2471268.0,2475452.0,4184.0,66,R,2472563,2472827,266,1562.9,585.4,4081,right
36,2,continuous,16,88,trial,2471268.0,2475452.0,4184.0,66,R,2472865,2473193,330,1347.5,480.3,4070,right
36,2,continuous,16,88,trial,2471268.0,2475452.0,4184.0,66,R,2473219,2473561,344,1338.8,591.7,4002,right
36,2,continuous,16,88,trial,2471268.0,2475452.0,4184.0,66,R,2473577,2474003,428,1336.9,637.4,4197,right
36,2,continuous,16,88,trial,2471268.0,2475452.0,4184.0,66,R,2474081,2474277,198,497.1,545.4,4571,left
36,2,continuous,16,88,trial,2471268.0,2475452.0,4184.0,66,R,2474301,2474547,248,451.2,577.1,4407,left
36,2,continuous,16,88,trial,2471268.0,2475452.0,4184.0,66,R,2474561,2474597,38,416.7,599.2,4315,left
36,2,continuous,16,88,trial,2471268.0,2475452.0,4184.0,66,R,2474673,2474871,200,1413.3,630.0,4065,right
36,2,continuous,16,88,trial,2471268.0,2475452.0,4184.0,66,R,2474895,2475165,272,1306.7,608.3,4237,right
36,2,continuous,16,88,postResponse,2471268.0,2475452.0,4184.0,66,R,2475189,2475797,610,1464.3,590.8,4196,right
36,2,continuous,17,52,fixationCross,2476402.0,2481002.0,4600.0,67,R,2475903,2476287,386,882.4,522.0,4508,NA
36,2,continuous,17,52,trial,2476402.0,2481002.0,4600.0,67,R,2476305,2476407,104,949.0,539.4,4574,NA
36,2,continuous,17,52,trial,2476402.0,2481002.0,4600.0,67,R,2476419,2476587,170,965.8,556.6,4584,NA
36,2,continuous,17,52,trial,2476402.0,2481002.0,4600.0,67,R,2476637,2476735,100,480.9,515.1,4556,left
36,2,continuous,17,52,trial,2476402.0,2481002.0,4600.0,67,R,2476893,2476961,70,385.8,626.4,4287,left
36,2,continuous,17,52,trial,2476402.0,2481002.0,4600.0,67,R,2477091,2477157,68,410.0,624.1,4376,left
36,2,continuous,17,52,trial,2476402.0,2481002.0,4600.0,67,R,2477275,2477341,68,456.4,605.9,4451,left
36,2,continuous,17,52,trial,2476402.0,2481002.0,4600.0,67,R,2477411,2477587,178,1324.9,519.3,4212,right
36,2,continuous,17,52,trial,2476402.0,2481002.0,4600.0,67,R,2477609,2478003,396,1283.0,499.0,4123,right
36,2,continuous,17,52,trial,2476402.0,2481002.0,4600.0,67,R,2478053,2478173,122,1504.2,476.9,4084,right
36,2,continuous,17,52,trial,2476402.0,2481002.0,4600.0,67,R,2478199,2478341,144,1607.8,436.1,4067,right
36,2,continuous,17,52,trial,2476402.0,2481002.0,4600.0,67,R,2478355,2478561,208,1570.8,461.3,4129,right
36,2,continuous,17,52,trial,2476402.0,2481002.0,4600.0,67,R,2478607,2478733,128,1233.1,483.2,4325,right
36,2,continuous,17,52,trial,2476402.0,2481002.0,4600.0,67,R,2478749,2478985,238,1281.4,492.0,4282,right
