participantNo,block,task,blockTrial,response,trialStage,trialStartTime,trialFinishTime,rt,trial,eye,fixStart,fixEnd,fixLength,fixPosX,fixPosY,dilation,aoi
68,1,binary,1,1,trial,21263467.0,21266318.0,2851.0,1,L,21262882,21263622,742,968.3,532.0,5475,NA
68,1,binary,1,1,trial,21263467.0,21266318.0,2851.0,1,L,21263670,21263858,190,526.8,495.7,5365,left
68,1,binary,1,1,trial,21263467.0,21266318.0,2851.0,1,L,21263918,21264094,178,907.1,972.7,5143,likertHorizontal
68,1,binary,1,1,trial,21263467.0,21266318.0,2851.0,1,L,21264150,21264220,72,473.9,1013.0,4939,NA
68,1,binary,1,1,trial,21263467.0,21266318.0,2851.0,1,L,21264234,21264278,46,473.1,1042.1,4909,NA
68,1,binary,1,1,trial,21263467.0,21266318.0,2851.0,1,L,21264300,21264398,100,471.9,1043.4,4906,NA
68,1,binary,1,1,trial,21263467.0,21266318.0,2851.0,1,L,21264484,21264660,178,1437.3,958.0,4863,NA
68,1,binary,1,1,trial,21263467.0,21266318.0,2851.0,1,L,21264728,21264972,246,1462.0,492.8,4720,right
68,1,binary,1,1,trial,21263467.0,21266318.0,2851.0,1,L,21265050,21265316,268,450.0,508.4,4742,left
68,1,binary,1,1,trial,21263467.0,21266318.0,2851.0,1,L,21265342,21265496,156,477.3,453.4,4622,left
68,1,binary,1,1,trial,21263467.0,21266318.0,2851.0,1,L,21265570,21265990,422,1444.0,521.1,4453,right
68,1,binary,1,1,trial,21263467.0,21266318.0,2851.0,1,L,21266064,21266258,196,509.5,503.2,4722,left
68,1,binary,1,1,postResponse,21263467.0,21266318.0,2851.0,1,L,21266306,21266688,384,463.0,963.5,4764,NA
68,1,binary,2,2,fixationCross,21267418.0,21269102.0,1684.0,2,L,21266800,21267112,314,768.4,508.4,4910,NA
68,1,binary,2,2,trial,21267418.0,21269102.0,1684.0,2,L,21267154,21267592,440,957.3,559.1,5133,NA
68,1,binary,2,2,trial,21267418.0,21269102.0,1684.0,2,L,21267636,21267834,200,559.6,532.7,5259,left
68,1,binary,2,2,trial,21267418.0,21269102.0,1684.0,2,L,21267918,21268146,230,1486.4,525.9,4846,right
68,1,binary,2,2,trial,21267418.0,21269102.0,1684.0,2,L,21268210,21268376,168,1448.8,1057.3,4769,NA
68,1,binary,2,2,trial,21267418.0,21269102.0,1684.0,2,L,21268432,21268804,374,1481.1,565.2,4828,right
68,1,binary,2,2,trial,21267418.0,21269102.0,1684.0,2,L,21268844,21268994,152,1479.1,858.8,5041,NA
68,1,binary,2,2,trial,21267418.0,21269102.0,1684.0,2,L,21269030,21269376,348,1424.8,960.0,5254,NA
68,1,binary,3,1,fixationCross,21270051.0,21271802.0,1751.0,3,L,21269552,21269910,360,972.2,455.5,5250,NA
68,1,binary,3,1,trial,21270051.0,21271802.0,1751.0,3,L,21269936,21270216,282,932.5,540.4,5090,NA
68,1,binary,3,1,trial,21270051.0,21271802.0,1751.0,3,L,21270258,21270548,292,540.3,551.2,5108,left
68,1,binary,3,1,trial,21270051.0,21271802.0,1751.0,3,L,21270628,21270944,318,1455.0,555.3,4744,right
68,1,binary,3,1,trial,21270051.0,21271802.0,1751.0,3,L,21271014,21271408,396,496.1,527.6,4737,left
68,1,binary,3,1,trial,21270051.0,21271802.0,1751.0,3,L,21271430,21271758,330,423.3,559.4,4635,left
68,1,binary,3,1,postResponse,21270051.0,21271802.0,1751.0,3,L,21271778,21272124,348,496.7,509.0,4615,left
68,1,binary,4,2,fixationCross,21272817.0,21275218.0,2401.0,4,L,21272214,21272502,290,902.3,499.2,4665,NA
68,1,binary,4,2,fixationCross,21272817.0,21275218.0,2401.0,4,L,21272540,21272666,128,1163.4,524.9,4841,NA
68,1,binary,4,2,trial,21272817.0,21275218.0,2401.0,4,L,21272702,21272988,288,997.9,552.7,5049,NA
68,1,binary,4,2,trial,21272817.0,21275218.0,2401.0,4,L,21273054,21273270,218,1446.8,550.1,4958,right
68,1,binary,4,2,trial,21272817.0,21275218.0,2401.0,4,L,21273292,21273388,98,1429.9,525.4,4702,right
68,1,binary,4,2,trial,21272817.0,21275218.0,2401.0,4,L,21273462,21273954,494,469.0,562.4,4669,left
68,1,binary,4,2,trial,21272817.0,21275218.0,2401.0,4,L,21274034,21274280,248,1479.0,514.4,4363,right
68,1,binary,4,2,postResponse,21272817.0,21275218.0,2401.0,4,L,21274304,21275576,1274,1445.2,520.9,4611,right
68,1,binary,5,1,fixationCross,21276251.0,21279252.0,3001.0,5,L,21275652,21275708,58,1427.6,513.1,4792,right
68,1,binary,5,1,fixationCross,21276251.0,21279252.0,3001.0,5,L,21275736,21275936,202,1174.3,471.6,4868,NA
68,1,binary,5,1,fixationCross,21276251.0,21279252.0,3001.0,5,L,21275964,21276114,152,964.8,478.4,4947,NA
68,1,binary,5,1,trial,21276251.0,21279252.0,3001.0,5,L,21276136,21276382,248,943.2,520.5,4959,NA
68,1,binary,5,1,trial,21276251.0,21279252.0,3001.0,5,L,21276426,21276516,92,547.0,521.2,5018,left
68,1,binary,5,1,trial,21276251.0,21279252.0,3001.0,5,L,21276636,21276808,174,429.1,554.2,4937,left
68,1,binary,5,1,trial,21276251.0,21279252.0,3001.0,5,L,21276828,21277004,178,472.3,503.7,4833,left
68,1,binary,5,1,trial,21276251.0,21279252.0,3001.0,5,L,21277080,21277336,258,1492.7,514.5,4563,right
68,1,binary,5,1,trial,21276251.0,21279252.0,3001.0,5,L,21277352,21277622,272,1454.8,540.7,4513,right
68,1,binary,5,1,trial,21276251.0,21279252.0,3001.0,5,L,21277694,21277886,194,468.9,514.5,4697,left
68,1,binary,5,1,trial,21276251.0,21279252.0,3001.0,5,L,21277908,21278264,358,388.9,505.2,4605,left
68,1,binary,5,1,trial,21276251.0,21279252.0,3001.0,5,L,21278288,21279202,916,358.3,603.7,4765,left
68,1,binary,5,1,postResponse,21276251.0,21279252.0,3001.0,5,L,21279228,21279590,364,508.1,578.3,5090,left
68,1,binary,6,2,fixationCross,21280168.0,21283935.0,3767.0,6,L,21279690,21280042,354,942.1,451.1,4946,NA
68,1,binary,6,2,trial,21280168.0,21283935.0,3767.0,6,L,21280066,21280354,290,977.2,526.7,5001,NA
68,1,binary,6,2,trial,21280168.0,21283935.0,3767.0,6,L,21280398,21280588,192,613.1,534.7,5100,left
68,1,binary,6,2,trial,21280168.0,21283935.0,3767.0,6,L,21280666,21281060,396,1411.0,540.8,4763,right
68,1,binary,6,2,trial,21280168.0,21283935.0,3767.0,6,L,21281070,21281244,176,1410.7,522.1,4629,right
68,1,binary,6,2,trial,21280168.0,21283935.0,3767.0,6,L,21281322,21281730,410,485.1,493.3,4669,left
68,1,binary,6,2,trial,21280168.0,21283935.0,3767.0,6,L,21281804,21282068,266,1405.3,552.1,4401,right
68,1,binary,6,2,trial,21280168.0,21283935.0,3767.0,6,L,21282086,21282400,316,1446.3,518.7,4439,right
68,1,binary,6,2,trial,21280168.0,21283935.0,3767.0,6,L,21282474,21282906,434,463.7,511.9,4661,left
68,1,binary,6,2,trial,21280168.0,21283935.0,3767.0,6,L,21282928,21283138,212,391.2,558.2,4536,left
68,1,binary,6,2,trial,21280168.0,21283935.0,3767.0,6,L,21283224,21283822,600,1399.8,537.3,4488,right
68,1,binary,6,2,trial,21280168.0,21283935.0,3767.0,6,L,21283882,21284220,340,1438.9,1019.4,4779,NA
68,1,binary,7,2,fixationCross,21285001.0,21291551.0,6550.0,7,L,21284368,21284624,258,1042.2,455.8,4855,NA
68,1,binary,7,2,trial,21285001.0,21291551.0,6550.0,7,L,21284774,21285152,380,938.9,490.9,4886,NA
68,1,binary,7,2,trial,21285001.0,21291551.0,6550.0,7,L,21285198,21285440,244,537.9,488.3,5033,left
68,1,binary,7,2,trial,21285001.0,21291551.0,6550.0,7,L,21285512,21285760,250,1439.4,487.6,4520,right
68,1,binary,7,2,trial,21285001.0,21291551.0,6550.0,7,L,21285782,21286104,324,1519.5,465.3,4341,right
68,1,binary,7,2,trial,21285001.0,21291551.0,6550.0,7,L,21286136,21286276,142,1535.1,614.8,4435,right
68,1,binary,7,2,trial,21285001.0,21291551.0,6550.0,7,L,21286358,21286598,242,487.3,538.8,4663,left
68,1,binary,7,2,trial,21285001.0,21291551.0,6550.0,7,L,21286616,21286902,288,544.2,518.4,4622,left
68,1,binary,7,2,trial,21285001.0,21291551.0,6550.0,7,L,21286922,21287150,230,476.3,516.4,4535,left
68,1,binary,7,2,trial,21285001.0,21291551.0,6550.0,7,L,21287228,21287448,222,1421.8,517.8,4431,right
68,1,binary,7,2,trial,21285001.0,21291551.0,6550.0,7,L,21287470,21287772,304,1351.9,495.5,4413,right
68,1,binary,7,2,trial,21285001.0,21291551.0,6550.0,7,L,21287802,21287964,164,1487.9,598.5,4503,right
68,1,binary,7,2,trial,21285001.0,21291551.0,6550.0,7,L,21287980,21288266,288,1523.9,613.6,4565,right
68,1,binary,7,2,trial,21285001.0,21291551.0,6550.0,7,L,21288340,21288578,240,494.5,555.5,4858,left
68,1,binary,7,2,trial,21285001.0,21291551.0,6550.0,7,L,21288594,21288962,370,475.3,524.5,4758,left
68,1,binary,7,2,trial,21285001.0,21291551.0,6550.0,7,L,21289000,21289186,188,351.1,439.1,4525,left
68,1,binary,7,2,trial,21285001.0,21291551.0,6550.0,7,L,21289198,21289458,262,315.4,425.0,4533,left
68,1,binary,7,2,trial,21285001.0,21291551.0,6550.0,7,L,21289492,21289652,162,509.9,536.9,4624,left
68,1,binary,7,2,trial,21285001.0,21291551.0,6550.0,7,L,21289668,21289924,258,467.8,534.5,4730,left
68,1,binary,7,2,trial,21285001.0,21291551.0,6550.0,7,L,21289950,21290100,152,395.1,602.3,4859,left
68,1,binary,7,2,trial,21285001.0,21291551.0,6550.0,7,L,21290180,21290472,294,1455.9,498.4,4885,right
68,1,binary,7,2,trial,21285001.0,21291551.0,6550.0,7,L,21290498,21290776,280,1343.4,501.5,4819,right
68,1,binary,7,2,trial,21285001.0,21291551.0,6550.0,7,L,21290818,21291004,188,1527.4,570.0,4822,right
68,1,binary,7,2,trial,21285001.0,21291551.0,6550.0,7,L,21291024,21291240,218,1506.2,611.1,4867,right
68,1,binary,7,2,trial,21285001.0,21291551.0,6550.0,7,L,21291248,21291570,324,1528.0,605.8,4822,right
68,1,binary,7,2,postResponse,21285001.0,21291551.0,6550.0,7,L,21291596,21291886,292,1400.9,533.0,4684,right
68,1,binary,8,1,fixationCross,21292585.0,21294384.0,1799.0,8,L,21291998,21292170,174,1023.7,460.1,4683,NA
68,1,binary,8,1,trial,21292585.0,21294384.0,1799.0,8,L,21292370,21292588,220,937.5,472.1,4740,NA
68,1,binary,8,1,trial,21292585.0,21294384.0,1799.0,8,L,21292612,21292774,164,972.5,553.2,4864,NA
68,1,binary,8,1,trial,21292585.0,21294384.0,1799.0,8,L,21292828,21293084,258,501.2,533.0,4928,left
68,1,binary,8,1,trial,21292585.0,21294384.0,1799.0,8,L,21293158,21293384,228,1422.2,497.0,4495,right
68,1,binary,8,1,trial,21292585.0,21294384.0,1799.0,8,L,21293408,21293746,340,1420.5,582.0,4415,right
68,1,binary,8,1,trial,21292585.0,21294384.0,1799.0,8,L,21293824,21294236,414,495.8,566.9,4852,left
68,1,binary,8,1,postResponse,21292585.0,21294384.0,1799.0,8,L,21294284,21294714,432,475.5,985.0,4715,NA
68,1,binary,9,2,fixationCross,21295485.0,21296668.0,1183.0,9,L,21294820,21295176,358,925.3,777.7,4822,likertHorizontal
68,1,binary,9,2,trial,21295485.0,21296668.0,1183.0,9,L,21295220,21295628,410,983.0,516.2,4952,NA
68,1,binary,9,2,trial,21295485.0,21296668.0,1183.0,9,L,21295686,21295904,220,485.3,495.3,5109,left
68,1,binary,9,2,trial,21295485.0,21296668.0,1183.0,9,L,21295990,21296612,624,1441.8,546.3,4630,right
68,1,binary,9,2,trial,21295485.0,21296668.0,1183.0,9,L,21296662,21296892,232,1468.0,971.0,4791,NA
68,1,binary,10,2,fixationCross,21297701.0,21304185.0,6484.0,10,L,21297076,21297394,320,894.3,378.4,4943,NA
68,1,binary,10,2,trial,21297701.0,21304185.0,6484.0,10,L,21297426,21297850,426,953.8,524.4,5025,NA
68,1,binary,10,2,trial,21297701.0,21304185.0,6484.0,10,L,21297904,21298226,324,531.4,530.2,4931,left
68,1,binary,10,2,trial,21297701.0,21304185.0,6484.0,10,L,21298298,21298842,546,1441.1,479.9,4481,right
68,1,binary,10,2,trial,21297701.0,21304185.0,6484.0,10,L,21298924,21299248,326,498.9,544.8,4658,left
68,1,binary,10,2,trial,21297701.0,21304185.0,6484.0,10,L,21299272,21299690,420,622.3,545.4,4684,left
68,1,binary,10,2,trial,21297701.0,21304185.0,6484.0,10,L,21299714,21299980,268,577.6,458.6,4664,left
68,1,binary,10,2,trial,21297701.0,21304185.0,6484.0,10,L,21300008,21300188,182,568.4,565.5,4699,left
68,1,binary,10,2,trial,21297701.0,21304185.0,6484.0,10,L,21300262,21300450,190,1409.2,748.0,4656,NA
68,1,binary,10,2,trial,21297701.0,21304185.0,6484.0,10,L,21300494,21300744,252,1432.6,512.0,4555,right
68,1,binary,10,2,trial,21297701.0,21304185.0,6484.0,10,L,21300772,21301122,352,1467.3,403.0,4339,right
68,1,binary,10,2,trial,21297701.0,21304185.0,6484.0,10,L,21301196,21301470,276,521.8,515.2,4370,left
68,1,binary,10,2,trial,21297701.0,21304185.0,6484.0,10,L,21301494,21301950,458,607.2,565.1,4453,left
68,1,binary,10,2,trial,21297701.0,21304185.0,6484.0,10,L,21302024,21302262,240,1469.2,546.4,4496,right
68,1,binary,10,2,trial,21297701.0,21304185.0,6484.0,10,L,21302284,21302672,390,1460.1,437.4,4335,right
68,1,binary,10,2,trial,21297701.0,21304185.0,6484.0,10,L,21302698,21302952,256,1417.3,518.0,4317,right
68,1,binary,10,2,trial,21297701.0,21304185.0,6484.0,10,L,21302972,21303440,470,1343.8,519.3,4481,right
68,1,binary,10,2,trial,21297701.0,21304185.0,6484.0,10,L,21303466,21303582,118,1470.9,510.9,4507,right
68,1,binary,10,2,trial,21297701.0,21304185.0,6484.0,10,L,21303738,21303996,260,465.7,493.2,4569,left
68,1,binary,10,2,trial,21297701.0,21304185.0,6484.0,10,L,21304024,21304212,190,610.6,544.2,4575,left
68,1,binary,10,2,postResponse,21297701.0,21304185.0,6484.0,10,L,21304286,21304518,234,1426.8,845.0,4410,NA
68,1,binary,11,2,trial,21305068.0,21308218.0,3150.0,11,L,21304600,21305204,606,974.2,472.0,4514,NA
68,1,binary,11,2,trial,21305068.0,21308218.0,3150.0,11,L,21305250,21305472,224,544.4,492.5,4733,left
68,1,binary,11,2,trial,21305068.0,21308218.0,3150.0,11,L,21305494,21305594,102,599.7,500.2,4701,left
68,1,binary,11,2,trial,21305068.0,21308218.0,3150.0,11,L,21305664,21305984,322,1423.0,553.9,4502,right
68,1,binary,11,2,trial,21305068.0,21308218.0,3150.0,11,L,21306010,21306334,326,1446.1,466.5,4442,right
68,1,binary,11,2,trial,21305068.0,21308218.0,3150.0,11,L,21306402,21306944,544,584.7,524.3,4555,left
68,1,binary,11,2,trial,21305068.0,21308218.0,3150.0,11,L,21306954,21307150,198,605.1,516.9,4478,left
68,1,binary,11,2,trial,21305068.0,21308218.0,3150.0,11,L,21307224,21307380,158,1462.1,580.3,4380,right
68,1,binary,11,2,trial,21305068.0,21308218.0,3150.0,11,L,21307434,21307592,160,1500.4,1032.3,4395,NA
68,1,binary,11,2,trial,21305068.0,21308218.0,3150.0,11,L,21307640,21308008,370,1023.8,965.9,4598,likertHorizontal
68,1,binary,11,2,trial,21305068.0,21308218.0,3150.0,11,L,21308072,21308470,400,1459.3,989.8,4769,NA
68,1,binary,12,1,fixationCross,21309285.0,21312669.0,3384.0,12,L,21308624,21308964,342,931.4,764.4,5009,likertHorizontal
68,1,binary,12,1,trial,21309285.0,21312669.0,3384.0,12,L,21309008,21309454,448,964.1,521.0,4998,NA
68,1,binary,12,1,trial,21309285.0,21312669.0,3384.0,12,L,21309508,21309940,434,1379.0,544.4,4768,right
68,1,binary,12,1,trial,21309285.0,21312669.0,3384.0,12,L,21309962,21310262,302,1437.6,607.3,4575,right
68,1,binary,12,1,trial,21309285.0,21312669.0,3384.0,12,L,21310328,21310620,294,649.2,588.5,4667,left
68,1,binary,12,1,trial,21309285.0,21312669.0,3384.0,12,L,21310652,21310814,164,421.8,501.9,4548,left
68,1,binary,12,1,trial,21309285.0,21312669.0,3384.0,12,L,21310838,21311064,228,331.8,424.0,4430,left
68,1,binary,12,1,trial,21309285.0,21312669.0,3384.0,12,L,21311096,21311246,152,573.9,523.9,4427,left
68,1,binary,12,1,trial,21309285.0,21312669.0,3384.0,12,L,21311316,21311602,288,1434.2,537.3,4402,right
68,1,binary,12,1,trial,21309285.0,21312669.0,3384.0,12,L,21311620,21311914,296,1465.2,584.7,4506,right
68,1,binary,12,1,trial,21309285.0,21312669.0,3384.0,12,L,21311996,21312266,272,486.8,552.4,4605,left
68,1,binary,12,1,trial,21309285.0,21312669.0,3384.0,12,L,21312292,21312536,246,342.2,457.5,4420,left
68,1,binary,12,1,trial,21309285.0,21312669.0,3384.0,12,L,21312578,21312740,164,538.9,739.7,4420,NA
68,1,binary,12,1,trial,21309285.0,21312669.0,3384.0,12,L,21312786,21312980,196,461.7,995.2,4492,NA
68,1,binary,13,1,fixationCross,21313552.0,21316751.0,3199.0,13,L,21313076,21313432,358,914.7,542.9,4552,NA
68,1,binary,13,1,trial,21313552.0,21316751.0,3199.0,13,L,21313458,21313584,128,986.6,536.2,4634,NA
68,1,binary,13,1,trial,21313552.0,21316751.0,3199.0,13,L,21313762,21314004,244,665.3,465.2,4832,left
68,1,binary,13,1,trial,21313552.0,21316751.0,3199.0,13,L,21314026,21314140,116,637.7,477.0,4821,left
68,1,binary,13,1,trial,21313552.0,21316751.0,3199.0,13,L,21314218,21314354,138,1421.3,456.9,4530,right
68,1,binary,13,1,trial,21313552.0,21316751.0,3199.0,13,L,21314378,21314792,416,1363.7,446.3,4431,right
68,1,binary,13,1,trial,21313552.0,21316751.0,3199.0,13,L,21314854,21315150,298,608.2,494.5,4632,left
68,1,binary,13,1,trial,21313552.0,21316751.0,3199.0,13,L,21315202,21315660,460,482.9,967.0,4706,NA
68,1,binary,13,1,trial,21313552.0,21316751.0,3199.0,13,L,21315724,21315884,162,580.7,491.4,4761,left
68,1,binary,13,1,trial,21313552.0,21316751.0,3199.0,13,L,21315964,21316484,522,1358.1,456.1,4692,right
68,1,binary,13,1,trial,21313552.0,21316751.0,3199.0,13,L,21316548,21316730,184,591.7,482.6,4734,left
68,1,binary,13,1,trial,21313552.0,21316751.0,3199.0,13,L,21316784,21317052,270,474.3,977.6,4774,NA
68,1,binary,14,2,fixationCross,21318718.0,21320968.0,2250.0,14,L,21317166,21317352,188,934.4,607.5,4585,NA
68,1,binary,14,2,fixationCross,21318718.0,21320968.0,2250.0,14,L,21317402,21318128,728,1087.7,402.8,4731,NA
68,1,binary,14,2,fixationCross,21318718.0,21320968.0,2250.0,14,L,21318168,21318458,292,1166.2,501.5,5080,NA
68,1,binary,14,2,trial,21318718.0,21320968.0,2250.0,14,L,21318484,21318856,374,974.7,501.6,5115,NA
68,1,binary,14,2,trial,21318718.0,21320968.0,2250.0,14,L,21318902,21319084,184,559.1,508.8,5098,left
68,1,binary,14,2,trial,21318718.0,21320968.0,2250.0,14,L,21319162,21319506,346,1433.5,554.2,4631,right
68,1,binary,14,2,trial,21318718.0,21320968.0,2250.0,14,L,21319522,21319746,226,1463.6,522.8,4438,right
68,1,binary,14,2,trial,21318718.0,21320968.0,2250.0,14,L,21319814,21320118,306,507.6,517.3,4504,left
68,1,binary,14,2,trial,21318718.0,21320968.0,2250.0,14,L,21320138,21320272,136,475.2,536.7,4389,left
68,1,binary,14,2,trial,21318718.0,21320968.0,2250.0,14,L,21320428,21320740,314,1443.1,513.5,4209,right
68,1,binary,14,2,postResponse,21318718.0,21320968.0,2250.0,14,L,21320758,21321302,546,1470.4,518.6,4352,right
68,1,binary,15,1,fixationCross,21322102.0,21323969.0,1867.0,15,L,21321376,21321566,192,1202.5,436.7,4353,right
68,1,binary,15,1,fixationCross,21322102.0,21323969.0,1867.0,15,L,21321610,21321910,302,929.4,440.6,4586,NA
68,1,binary,15,1,trial,21322102.0,21323969.0,1867.0,15,L,21321934,21322236,304,981.1,506.5,4844,NA
68,1,binary,15,1,trial,21322102.0,21323969.0,1867.0,15,L,21322292,21322558,268,517.0,529.8,4976,left
68,1,binary,15,1,trial,21322102.0,21323969.0,1867.0,15,L,21322640,21322956,318,1375.4,507.9,4520,right
68,1,binary,15,1,trial,21322102.0,21323969.0,1867.0,15,L,21322976,21323134,160,1305.6,523.5,4484,right
68,1,binary,15,1,trial,21322102.0,21323969.0,1867.0,15,L,21323184,21323360,178,1608.4,614.2,4581,right
68,1,binary,15,1,trial,21322102.0,21323969.0,1867.0,15,L,21323444,21323736,294,553.6,557.9,4734,left
68,1,binary,15,1,trial,21322102.0,21323969.0,1867.0,15,L,21323758,21324036,280,546.4,500.8,4495,left
68,1,binary,15,1,postResponse,21322102.0,21323969.0,1867.0,15,L,21324060,21324302,244,471.4,570.6,4426,left
68,1,binary,16,1,fixationCross,21324868.0,21327302.0,2434.0,16,L,21324420,21324856,438,943.9,511.9,4537,NA
68,1,binary,16,1,trial,21324868.0,21327302.0,2434.0,16,L,21324876,21325034,160,980.0,556.5,4636,NA
68,1,binary,16,1,trial,21324868.0,21327302.0,2434.0,16,L,21325080,21325230,152,654.2,535.1,4734,left
68,1,binary,16,1,trial,21324868.0,21327302.0,2434.0,16,L,21325296,21325474,180,1424.4,528.5,4572,right
68,1,binary,16,1,trial,21324868.0,21327302.0,2434.0,16,L,21325500,21325602,104,1302.5,490.4,4470,right
68,1,binary,16,1,trial,21324868.0,21327302.0,2434.0,16,L,21325668,21325970,304,542.1,508.0,4522,left
68,1,binary,16,1,trial,21324868.0,21327302.0,2434.0,16,L,21325996,21326334,340,447.8,547.5,4569,left
68,1,binary,16,1,trial,21324868.0,21327302.0,2434.0,16,L,21326410,21326686,278,1393.7,553.8,4365,right
68,1,binary,16,1,trial,21324868.0,21327302.0,2434.0,16,L,21326708,21327108,402,1345.6,505.5,4368,right
68,1,binary,16,1,trial,21324868.0,21327302.0,2434.0,16,L,21327178,21327380,204,480.8,957.5,4615,NA
68,1,binary,16,1,trial,21324868.0,21327302.0,2434.0,16,L,21327450,21327530,82,670.3,498.5,4593,left
68,1,binary,17,2,fixationCross,21328352.0,21330751.0,2399.0,17,L,21327710,21328058,350,963.9,366.6,4369,NA
68,1,binary,17,2,trial,21328352.0,21330751.0,2399.0,17,L,21328092,21328488,398,979.3,518.5,4671,NA
68,1,binary,17,2,trial,21328352.0,21330751.0,2399.0,17,L,21328540,21328828,290,593.4,529.6,4688,left
68,1,binary,17,2,trial,21328352.0,21330751.0,2399.0,17,L,21328844,21329042,200,643.3,513.3,4389,left
68,1,binary,17,2,trial,21328352.0,21330751.0,2399.0,17,L,21329112,21329588,478,1472.4,518.2,4168,right
68,1,binary,17,2,trial,21328352.0,21330751.0,2399.0,17,L,21329606,21329880,276,1485.1,519.0,4308,right
68,1,binary,17,2,trial,21328352.0,21330751.0,2399.0,17,L,21329944,21330130,188,684.7,533.7,4459,left
68,1,binary,17,2,trial,21328352.0,21330751.0,2399.0,17,L,21330150,21330406,258,612.7,529.6,4437,left
68,1,binary,17,2,trial,21328352.0,21330751.0,2399.0,17,L,21330480,21330748,270,1507.7,519.7,4170,right
68,1,binary,17,2,trial,21328352.0,21330751.0,2399.0,17,L,21330768,21331064,298,1471.3,531.7,4228,right
68,1,binary,18,1,trial,21331635.0,21334285.0,2650.0,18,L,21331160,21331770,612,909.1,474.5,4528,NA
68,1,binary,18,1,trial,21331635.0,21334285.0,2650.0,18,L,21331814,21332164,352,536.9,505.5,4619,left
68,1,binary,18,1,trial,21331635.0,21334285.0,2650.0,18,L,21332248,21332630,384,1429.5,521.7,4427,right
68,1,binary,18,1,trial,21331635.0,21334285.0,2650.0,18,L,21332696,21333074,380,531.4,514.9,4651,left
68,1,binary,18,1,trial,21331635.0,21334285.0,2650.0,18,L,21333092,21333488,398,576.6,523.4,4582,left
68,1,binary,18,1,trial,21331635.0,21334285.0,2650.0,18,L,21333506,21333632,128,513.9,528.1,4617,left
68,1,binary,18,1,trial,21331635.0,21334285.0,2650.0,18,L,21333706,21333992,288,1404.9,548.8,4532,right
68,1,binary,18,1,trial,21331635.0,21334285.0,2650.0,18,L,21334014,21334176,164,1443.4,553.3,4454,right
68,1,binary,18,1,postResponse,21331635.0,21334285.0,2650.0,18,L,21334248,21334618,372,506.8,521.7,4516,left
68,1,binary,19,1,fixationCross,21335401.0,21341385.0,5984.0,19,L,21334852,21335096,246,1133.0,424.5,4276,NA
68,1,binary,19,1,trial,21335401.0,21341385.0,5984.0,19,L,21335124,21335536,414,988.5,470.9,4526,NA
68,1,binary,19,1,trial,21335401.0,21341385.0,5984.0,19,L,21335590,21335792,204,541.3,493.4,4596,left
68,1,binary,19,1,trial,21335401.0,21341385.0,5984.0,19,L,21335814,21336598,786,604.4,474.7,4436,left
68,1,binary,19,1,trial,21335401.0,21341385.0,5984.0,19,L,21336616,21336814,200,593.9,472.4,4628,left
68,1,binary,19,1,trial,21335401.0,21341385.0,5984.0,19,L,21336886,21337420,536,1439.1,514.6,4511,right
68,1,binary,19,1,trial,21335401.0,21341385.0,5984.0,19,L,21337444,21337598,156,1485.3,582.5,4390,right
68,1,binary,19,1,trial,21335401.0,21341385.0,5984.0,19,L,21337666,21338176,512,579.1,489.9,4449,left
68,1,binary,19,1,trial,21335401.0,21341385.0,5984.0,19,L,21338188,21338368,182,607.7,471.0,4349,left
68,1,binary,19,1,trial,21335401.0,21341385.0,5984.0,19,L,21338396,21338618,224,458.7,472.5,4379,left
68,1,binary,19,1,trial,21335401.0,21341385.0,5984.0,19,L,21338634,21338790,158,417.5,472.4,4423,left
68,1,binary,19,1,trial,21335401.0,21341385.0,5984.0,19,L,21338872,21339264,394,1429.7,538.8,4282,right
68,1,binary,19,1,trial,21335401.0,21341385.0,5984.0,19,L,21339288,21339638,352,1537.9,524.1,4215,right
68,1,binary,19,1,trial,21335401.0,21341385.0,5984.0,19,L,21339660,21340098,440,1488.2,595.3,4310,right
68,1,binary,19,1,trial,21335401.0,21341385.0,5984.0,19,L,21340274,21340486,214,499.9,474.0,4472,left
68,1,binary,19,1,trial,21335401.0,21341385.0,5984.0,19,L,21340510,21340800,292,601.0,481.0,4475,left
68,1,binary,19,1,trial,21335401.0,21341385.0,5984.0,19,L,21340858,21341194,338,485.7,1059.3,4376,NA
68,1,binary,19,1,trial,21335401.0,21341385.0,5984.0,19,L,21341218,21341602,386,477.0,953.9,4434,NA
68,1,binary,19,1,postResponse,21335401.0,21341385.0,5984.0,19,L,21341660,21341720,62,800.9,616.0,4474,NA
68,1,binary,20,1,fixationCross,21342552.0,21345135.0,2583.0,20,L,21341794,21341904,112,807.8,616.5,4561,NA
68,1,binary,20,1,fixationCross,21342552.0,21345135.0,2583.0,20,L,21341958,21342258,302,1061.9,444.4,4577,NA
68,1,binary,20,1,trial,21342552.0,21345135.0,2583.0,20,L,21342292,21342696,406,991.4,505.1,4751,NA
68,1,binary,20,1,trial,21342552.0,21345135.0,2583.0,20,L,21342754,21343102,350,528.4,509.9,4839,left
68,1,binary,20,1,trial,21342552.0,21345135.0,2583.0,20,L,21343176,21343436,262,1431.0,550.4,4424,right
68,1,binary,20,1,trial,21342552.0,21345135.0,2583.0,20,L,21343462,21343692,232,1548.0,471.6,4363,right
68,1,binary,20,1,trial,21342552.0,21345135.0,2583.0,20,L,21343718,21344026,310,1473.1,574.2,4493,right
68,1,binary,20,1,trial,21342552.0,21345135.0,2583.0,20,L,21344042,21344294,254,1453.7,613.8,4628,right
68,1,binary,20,1,trial,21342552.0,21345135.0,2583.0,20,L,21344474,21344738,266,518.1,522.5,4601,left
68,1,binary,20,1,trial,21342552.0,21345135.0,2583.0,20,L,21344762,21345076,316,424.0,551.0,4551,left
68,1,binary,20,1,trial,21342552.0,21345135.0,2583.0,20,L,21345126,21345430,306,461.6,1005.3,4519,NA
68,1,binary,21,1,trial,21346019.0,21349418.0,3399.0,21,L,21345544,21346154,612,962.4,491.2,4527,NA
68,1,binary,21,1,trial,21346019.0,21349418.0,3399.0,21,L,21346200,21346386,188,567.2,508.2,4809,left
68,1,binary,21,1,trial,21346019.0,21349418.0,3399.0,21,L,21346410,21346592,184,413.9,463.6,4709,left
68,1,binary,21,1,trial,21346019.0,21349418.0,3399.0,21,L,21346608,21346848,242,396.9,423.0,4640,left
68,1,binary,21,1,trial,21346019.0,21349418.0,3399.0,21,L,21346872,21347038,168,466.1,493.5,4703,left
68,1,binary,21,1,trial,21346019.0,21349418.0,3399.0,21,L,21347048,21347330,284,442.7,508.3,4754,left
68,1,binary,21,1,trial,21346019.0,21349418.0,3399.0,21,L,21347360,21347550,192,616.6,465.4,4800,left
68,1,binary,21,1,trial,21346019.0,21349418.0,3399.0,21,L,21347622,21348182,562,1443.6,503.6,4660,right
68,1,binary,21,1,trial,21346019.0,21349418.0,3399.0,21,L,21348362,21348600,240,385.0,486.8,4581,left
68,1,binary,21,1,trial,21346019.0,21349418.0,3399.0,21,L,21348626,21348960,336,461.6,540.3,4611,left
68,1,binary,21,1,trial,21346019.0,21349418.0,3399.0,21,L,21348990,21349362,374,595.1,610.8,4596,left
68,1,binary,21,1,postResponse,21346019.0,21349418.0,3399.0,21,L,21349402,21349752,352,608.1,433.8,4748,left
68,1,binary,22,1,fixationCross,21350569.0,21353069.0,2500.0,22,L,21350008,21350272,266,1119.8,474.1,4789,NA
68,1,binary,22,1,trial,21350569.0,21353069.0,2500.0,22,L,21350300,21350726,428,975.4,506.9,4956,NA
68,1,binary,22,1,trial,21350569.0,21353069.0,2500.0,22,L,21350790,21351024,236,1409.5,507.6,4708,right
68,1,binary,22,1,trial,21350569.0,21353069.0,2500.0,22,L,21351088,21351428,342,521.4,519.6,4480,left
68,1,binary,22,1,trial,21350569.0,21353069.0,2500.0,22,L,21351456,21351682,228,437.9,663.6,4430,left
68,1,binary,22,1,trial,21350569.0,21353069.0,2500.0,22,L,21351760,21352436,678,1451.1,510.6,4338,right
68,1,binary,22,1,trial,21350569.0,21353069.0,2500.0,22,L,21352506,21352932,428,542.2,481.8,4608,left
68,1,binary,22,1,trial,21350569.0,21353069.0,2500.0,22,L,21352976,21353294,320,455.4,752.1,4559,NA
68,1,binary,23,2,fixationCross,21354152.0,21356035.0,1883.0,23,L,21353482,21353864,384,1004.9,442.2,4474,NA
68,1,binary,23,2,trial,21354152.0,21356035.0,1883.0,23,L,21353890,21354304,416,947.0,468.1,4637,NA
68,1,binary,23,2,trial,21354152.0,21356035.0,1883.0,23,L,21354360,21354500,142,472.6,494.5,4639,left
68,1,binary,23,2,trial,21354152.0,21356035.0,1883.0,23,L,21354520,21354744,226,437.1,459.2,4511,left
68,1,binary,23,2,trial,21354152.0,21356035.0,1883.0,23,L,21354824,21355038,216,1458.2,606.1,4276,right
68,1,binary,23,2,trial,21354152.0,21356035.0,1883.0,23,L,21355058,21355486,430,1477.4,660.3,4308,right
68,1,binary,23,2,trial,21354152.0,21356035.0,1883.0,23,L,21355510,21355798,290,1389.4,602.5,4417,right
68,1,binary,23,2,trial,21354152.0,21356035.0,1883.0,23,L,21355812,21356084,274,1416.3,621.8,4485,right
68,1,binary,23,2,postResponse,21354152.0,21356035.0,1883.0,23,L,21356108,21356366,260,1437.2,494.2,4662,right
68,1,binary,24,1,fixationCross,21358119.0,21359719.0,1600.0,24,L,21356594,21357086,494,880.1,383.1,4738,NA
68,1,binary,24,1,fixationCross,21358119.0,21359719.0,1600.0,24,L,21357128,21357966,840,1022.3,458.5,4753,NA
68,1,binary,24,1,trial,21358119.0,21359719.0,1600.0,24,L,21357990,21358258,270,959.8,520.8,4888,NA
68,1,binary,24,1,trial,21358119.0,21359719.0,1600.0,24,L,21358302,21358448,148,567.2,537.5,4949,left
68,1,binary,24,1,trial,21358119.0,21359719.0,1600.0,24,L,21358524,21358812,290,1358.2,622.2,4490,right
68,1,binary,24,1,trial,21358119.0,21359719.0,1600.0,24,L,21358836,21359196,362,1457.5,564.3,4313,right
68,1,binary,24,1,trial,21358119.0,21359719.0,1600.0,24,L,21359270,21359724,456,559.4,548.4,4601,left
68,1,binary,24,1,trial,21358119.0,21359719.0,1600.0,24,L,21359746,21359944,200,473.9,582.2,4371,left
68,1,binary,25,2,fixationCross,21361119.0,21363186.0,2067.0,25,L,21360182,21360828,648,1031.4,402.9,4475,NA
68,1,binary,25,2,trial,21361119.0,21363186.0,2067.0,25,L,21360864,21361264,402,980.9,490.0,4715,NA
68,1,binary,25,2,trial,21361119.0,21363186.0,2067.0,25,L,21361308,21361438,132,642.4,510.8,4780,left
68,1,binary,25,2,trial,21361119.0,21363186.0,2067.0,25,L,21361510,21361780,272,1332.4,522.9,4563,right
68,1,binary,25,2,trial,21361119.0,21363186.0,2067.0,25,L,21361808,21362054,248,1477.2,535.9,4602,right
68,1,binary,25,2,trial,21361119.0,21363186.0,2067.0,25,L,21362124,21362342,220,586.3,548.1,4868,left
68,1,binary,25,2,trial,21361119.0,21363186.0,2067.0,25,L,21362364,21362592,230,513.3,568.9,4745,left
68,1,binary,25,2,trial,21361119.0,21363186.0,2067.0,25,L,21362668,21363110,444,1437.2,555.7,4409,right
68,1,binary,25,2,postResponse,21361119.0,21363186.0,2067.0,25,L,21363134,21363518,386,1347.7,523.0,4581,right
68,1,binary,26,1,fixationCross,21388403.0,21389902.0,1499.0,26,L,21387626,21387656,32,333.6,4.7,4167,NA
68,1,binary,26,1,fixationCross,21388403.0,21389902.0,1499.0,26,L,21387680,21387876,198,200.0,13.3,4081,NA
68,1,binary,26,1,fixationCross,21388403.0,21389902.0,1499.0,26,L,21387962,21388094,134,1099.3,454.0,4135,NA
68,1,binary,26,1,fixationCross,21388403.0,21389902.0,1499.0,26,L,21388130,21388306,178,969.1,530.3,4303,NA
68,1,binary,26,1,trial,21388403.0,21389902.0,1499.0,26,L,21388326,21388550,226,944.7,552.7,4534,NA
68,1,binary,26,1,trial,21388403.0,21389902.0,1499.0,26,L,21388592,21388902,312,537.5,556.8,4748,left
68,1,binary,26,1,trial,21388403.0,21389902.0,1499.0,26,L,21388978,21389224,248,1470.3,477.1,4393,right
68,1,binary,26,1,trial,21388403.0,21389902.0,1499.0,26,L,21389246,21389382,138,1565.5,439.6,4330,right
68,1,binary,26,1,trial,21388403.0,21389902.0,1499.0,26,L,21389454,21389894,442,543.5,617.2,4444,left
68,1,binary,26,1,trial,21388403.0,21389902.0,1499.0,26,L,21389916,21390170,256,527.5,547.0,4460,left
68,1,binary,27,2,fixationCross,21391336.0,21393019.0,1683.0,27,L,21390372,21391032,662,1161.3,339.6,4650,NA
68,1,binary,27,2,trial,21391336.0,21393019.0,1683.0,27,L,21391058,21391468,412,985.5,448.6,4761,NA
68,1,binary,27,2,trial,21391336.0,21393019.0,1683.0,27,L,21391514,21391668,156,549.0,490.5,4795,left
68,1,binary,27,2,trial,21391336.0,21393019.0,1683.0,27,L,21391748,21392034,288,1448.5,518.8,4479,right
68,1,binary,27,2,trial,21391336.0,21393019.0,1683.0,27,L,21392110,21392600,492,546.6,521.3,4433,left
68,1,binary,27,2,trial,21391336.0,21393019.0,1683.0,27,L,21392670,21393236,568,1455.8,536.3,4257,right
68,1,binary,28,2,fixationCross,21395369.0,21396703.0,1334.0,28,L,21393514,21393898,386,814.5,344.5,4493,NA
68,1,binary,28,2,fixationCross,21395369.0,21396703.0,1334.0,28,L,21393928,21394590,664,985.9,396.8,4485,NA
68,1,binary,28,2,fixationCross,21395369.0,21396703.0,1334.0,28,L,21394606,21395194,590,966.5,432.8,4761,NA
68,1,binary,28,2,trial,21395369.0,21396703.0,1334.0,28,L,21395216,21395388,174,990.6,497.2,4897,NA
68,1,binary,28,2,trial,21395369.0,21396703.0,1334.0,28,L,21395410,21395538,130,952.5,534.0,4874,NA
68,1,binary,28,2,trial,21395369.0,21396703.0,1334.0,28,L,21395580,21395736,158,613.0,517.9,4884,left
68,1,binary,28,2,trial,21395369.0,21396703.0,1334.0,28,L,21395808,21396090,284,1307.5,538.7,4451,right
68,1,binary,28,2,trial,21395369.0,21396703.0,1334.0,28,L,21396146,21396658,514,598.1,567.9,4374,left
68,1,binary,28,2,trial,21395369.0,21396703.0,1334.0,28,L,21396680,21396962,284,489.3,550.0,4299,left
68,1,binary,29,1,fixationCross,21397886.0,21399436.0,1550.0,29,L,21397140,21397562,424,1070.8,313.2,4378,NA
68,1,binary,29,1,fixationCross,21397886.0,21399436.0,1550.0,29,L,21397600,21397818,220,967.3,528.4,4653,NA
68,1,binary,29,1,trial,21397886.0,21399436.0,1550.0,29,L,21397830,21398040,212,951.6,547.5,4688,NA
68,1,binary,29,1,trial,21397886.0,21399436.0,1550.0,29,L,21398084,21398284,202,538.4,533.7,4746,left
68,1,binary,29,1,trial,21397886.0,21399436.0,1550.0,29,L,21398360,21398594,236,1307.8,445.6,4366,right
68,1,binary,29,1,trial,21397886.0,21399436.0,1550.0,29,L,21398642,21398826,186,1619.7,549.9,4202,right
68,1,binary,29,1,trial,21397886.0,21399436.0,1550.0,29,L,21398900,21399162,264,523.6,533.4,4359,left
68,1,binary,29,1,trial,21397886.0,21399436.0,1550.0,29,L,21399186,21399700,516,411.1,586.5,4286,left
68,1,binary,30,2,fixationCross,21400819.0,21403052.0,2233.0,30,L,21399894,21400516,624,1090.3,353.6,4370,NA
68,1,binary,30,2,trial,21400819.0,21403052.0,2233.0,30,L,21400542,21400956,416,989.2,453.1,4534,NA
68,1,binary,30,2,trial,21400819.0,21403052.0,2233.0,30,L,21401016,21401198,184,491.7,516.0,4541,left
68,1,binary,30,2,trial,21400819.0,21403052.0,2233.0,30,L,21401280,21401620,342,1422.3,513.3,4354,right
68,1,binary,30,2,trial,21400819.0,21403052.0,2233.0,30,L,21401646,21401840,196,1534.4,488.1,4376,right
68,1,binary,30,2,trial,21400819.0,21403052.0,2233.0,30,L,21401922,21402100,180,519.9,568.7,4667,left
68,1,binary,30,2,trial,21400819.0,21403052.0,2233.0,30,L,21402126,21402442,318,489.4,667.5,4570,left
68,1,binary,30,2,trial,21400819.0,21403052.0,2233.0,30,L,21402480,21402736,258,510.0,503.8,4366,left
68,1,binary,30,2,trial,21400819.0,21403052.0,2233.0,30,L,21402814,21403054,242,1450.3,556.2,4244,right
68,1,binary,30,2,trial,21400819.0,21403052.0,2233.0,30,L,21403078,21403284,208,1567.1,485.7,4242,right
68,1,binary,31,2,fixationCross,21405403.0,21409769.0,4366.0,31,L,21403486,21404380,896,985.1,227.1,4434,NA
68,1,binary,31,2,fixationCross,21405403.0,21409769.0,4366.0,31,L,21404426,21404644,220,874.7,427.9,4566,NA
68,1,binary,31,2,fixationCross,21405403.0,21409769.0,4366.0,31,L,21404670,21405114,446,999.5,423.1,4628,NA
68,1,binary,31,2,trial,21405403.0,21409769.0,4366.0,31,L,21405134,21405422,290,983.2,503.8,4748,NA
68,1,binary,31,2,trial,21405403.0,21409769.0,4366.0,31,L,21405446,21405544,100,1089.8,496.3,4772,NA
68,1,binary,31,2,trial,21405403.0,21409769.0,4366.0,31,L,21405602,21405892,292,522.0,517.8,4791,left
68,1,binary,31,2,trial,21405403.0,21409769.0,4366.0,31,L,21405978,21406408,432,1439.8,482.5,4253,right
68,1,binary,31,2,trial,21405403.0,21409769.0,4366.0,31,L,21406426,21406576,152,1471.5,524.5,4288,right
68,1,binary,31,2,trial,21405403.0,21409769.0,4366.0,31,L,21406642,21406876,236,533.0,632.2,4526,left
68,1,binary,31,2,trial,21405403.0,21409769.0,4366.0,31,L,21406896,21407264,370,489.9,654.9,4445,left
68,1,binary,31,2,trial,21405403.0,21409769.0,4366.0,31,L,21407284,21407532,250,477.9,614.1,4347,left
68,1,binary,31,2,trial,21405403.0,21409769.0,4366.0,31,L,21407606,21407940,336,1448.7,481.0,4313,right
68,1,binary,31,2,trial,21405403.0,21409769.0,4366.0,31,L,21407972,21408302,332,1509.6,630.3,4457,right
68,1,binary,31,2,trial,21405403.0,21409769.0,4366.0,31,L,21408344,21408514,172,1471.8,452.5,4533,right
68,1,binary,31,2,trial,21405403.0,21409769.0,4366.0,31,L,21408594,21408872,280,505.6,525.2,4657,left
68,1,binary,31,2,trial,21405403.0,21409769.0,4366.0,31,L,21408888,21409300,414,526.6,573.8,4434,left
68,1,binary,31,2,trial,21405403.0,21409769.0,4366.0,31,L,21409378,21409646,270,1486.1,480.5,4233,right
68,1,binary,31,2,trial,21405403.0,21409769.0,4366.0,31,L,21409672,21409978,308,1433.2,521.4,4262,right
68,1,binary,32,2,fixationCross,21411836.0,21415719.0,3883.0,32,L,21410208,21410966,760,1166.5,399.4,4539,NA
68,1,binary,32,2,fixationCross,21411836.0,21415719.0,3883.0,32,L,21410992,21411536,546,925.6,410.5,4793,NA
68,1,binary,32,2,fixationCross,21411836.0,21415719.0,3883.0,32,L,21411558,21411796,240,1001.2,478.5,4774,NA
68,1,binary,32,2,trial,21411836.0,21415719.0,3883.0,32,L,21411818,21411980,164,941.9,521.7,4782,NA
68,1,binary,32,2,trial,21411836.0,21415719.0,3883.0,32,L,21412026,21412356,332,539.8,531.7,4804,left
68,1,binary,32,2,trial,21411836.0,21415719.0,3883.0,32,L,21412372,21412556,186,575.1,499.8,4510,left
68,1,binary,32,2,trial,21411836.0,21415719.0,3883.0,32,L,21412630,21412994,366,1496.1,515.9,4150,right
68,1,binary,32,2,trial,21411836.0,21415719.0,3883.0,32,L,21413004,21413228,226,1524.9,509.0,4155,right
68,1,binary,32,2,trial,21411836.0,21415719.0,3883.0,32,L,21413300,21413560,262,527.3,522.0,4335,left
68,1,binary,32,2,trial,21411836.0,21415719.0,3883.0,32,L,21413584,21413922,340,449.9,558.0,4229,left
68,1,binary,32,2,trial,21411836.0,21415719.0,3883.0,32,L,21413948,21414346,400,615.7,499.0,4137,left
68,1,binary,32,2,trial,21411836.0,21415719.0,3883.0,32,L,21414396,21414538,144,493.9,843.3,4192,NA
68,1,binary,32,2,trial,21411836.0,21415719.0,3883.0,32,L,21414584,21414780,198,512.7,549.4,4236,left
68,1,binary,32,2,trial,21411836.0,21415719.0,3883.0,32,L,21414862,21415334,474,1500.8,535.5,4101,right
68,1,binary,32,2,trial,21411836.0,21415719.0,3883.0,32,L,21415348,21415636,290,1509.9,499.2,4164,right
68,1,binary,32,2,trial,21411836.0,21415719.0,3883.0,32,L,21415652,21415908,258,1509.1,515.5,4237,right
68,1,binary,33,2,fixationCross,21417520.0,21421736.0,4216.0,33,L,21416126,21416722,598,834.5,291.8,4407,NA
68,1,binary,33,2,fixationCross,21417520.0,21421736.0,4216.0,33,L,21416750,21417180,432,1006.3,305.5,4391,NA
68,1,binary,33,2,trial,21417520.0,21421736.0,4216.0,33,L,21417222,21417662,442,902.2,492.6,4671,NA
68,1,binary,33,2,trial,21417520.0,21421736.0,4216.0,33,L,21417706,21417988,284,507.7,492.0,4745,left
68,1,binary,33,2,trial,21417520.0,21421736.0,4216.0,33,L,21418060,21418348,290,1358.2,621.6,4357,right
68,1,binary,33,2,trial,21417520.0,21421736.0,4216.0,33,L,21418382,21418716,336,1486.9,641.0,4260,right
68,1,binary,33,2,trial,21417520.0,21421736.0,4216.0,33,L,21418788,21419118,332,495.9,469.0,4337,left
68,1,binary,33,2,trial,21417520.0,21421736.0,4216.0,33,L,21419138,21419472,336,475.8,445.7,4306,left
68,1,binary,33,2,trial,21417520.0,21421736.0,4216.0,33,L,21419500,21419896,398,490.2,546.8,4485,left
68,1,binary,33,2,trial,21417520.0,21421736.0,4216.0,33,L,21419912,21420268,358,528.5,573.5,4560,left
68,1,binary,33,2,trial,21417520.0,21421736.0,4216.0,33,L,21420334,21420716,384,1396.7,655.2,4363,right
68,1,binary,33,2,trial,21417520.0,21421736.0,4216.0,33,L,21420740,21421114,376,1519.7,637.6,4327,right
68,1,binary,33,2,trial,21417520.0,21421736.0,4216.0,33,L,21421138,21421354,218,1462.7,673.2,4388,right
68,1,binary,33,2,trial,21417520.0,21421736.0,4216.0,33,L,21421476,21421812,338,1407.2,665.6,4559,right
68,1,binary,33,2,trial,21417520.0,21421736.0,4216.0,33,L,21421866,21422042,178,1463.1,1014.1,4614,NA
68,1,binary,34,2,fixationCross,21422953.0,21428453.0,5500.0,34,L,21422144,21422254,112,889.8,456.5,4533,NA
68,1,binary,34,2,fixationCross,21422953.0,21428453.0,5500.0,34,L,21422484,21422702,220,936.4,396.6,4382,NA
68,1,binary,34,2,trial,21422953.0,21428453.0,5500.0,34,L,21422734,21423114,382,986.1,520.1,4528,NA
68,1,binary,34,2,trial,21422953.0,21428453.0,5500.0,34,L,21423158,21423362,206,592.1,504.1,4553,left
68,1,binary,34,2,trial,21422953.0,21428453.0,5500.0,34,L,21423390,21423648,260,463.2,509.0,4461,left
68,1,binary,34,2,trial,21422953.0,21428453.0,5500.0,34,L,21423670,21423790,122,379.9,477.7,4367,left
68,1,binary,34,2,trial,21422953.0,21428453.0,5500.0,34,L,21423874,21424408,536,1484.1,464.4,4327,right
68,1,binary,34,2,trial,21422953.0,21428453.0,5500.0,34,L,21424486,21424752,268,548.6,511.9,4729,left
68,1,binary,34,2,trial,21422953.0,21428453.0,5500.0,34,L,21424774,21424942,170,454.4,515.7,4704,left
68,1,binary,34,2,trial,21422953.0,21428453.0,5500.0,34,L,21425022,21425642,622,1490.4,489.2,4526,right
68,1,binary,34,2,trial,21422953.0,21428453.0,5500.0,34,L,21425718,21426084,368,504.3,537.3,4788,left
68,1,binary,34,2,trial,21422953.0,21428453.0,5500.0,34,L,21426108,21426430,324,400.9,489.2,4587,left
68,1,binary,34,2,trial,21422953.0,21428453.0,5500.0,34,L,21426456,21426752,298,465.4,577.1,4587,left
68,1,binary,34,2,trial,21422953.0,21428453.0,5500.0,34,L,21426776,21427026,252,591.2,490.8,4610,left
68,1,binary,34,2,trial,21422953.0,21428453.0,5500.0,34,L,21427056,21427386,332,430.7,554.7,4616,left
68,1,binary,34,2,trial,21422953.0,21428453.0,5500.0,34,L,21427480,21427772,294,1409.4,716.9,4601,right
68,1,binary,34,2,trial,21422953.0,21428453.0,5500.0,34,L,21427816,21428294,480,1404.7,519.7,4617,right
68,1,binary,34,2,trial,21422953.0,21428453.0,5500.0,34,L,21428318,21428676,360,1524.3,494.0,4736,right
68,1,binary,35,2,fixationCross,21430653.0,21433019.0,2366.0,35,L,21428886,21429382,498,777.3,392.3,4870,NA
68,1,binary,35,2,fixationCross,21430653.0,21433019.0,2366.0,35,L,21429408,21430350,944,983.9,409.8,4755,NA
68,1,binary,35,2,fixationCross,21430653.0,21433019.0,2366.0,35,L,21430374,21430570,198,969.6,486.0,4858,NA
68,1,binary,35,2,trial,21430653.0,21433019.0,2366.0,35,L,21430586,21430796,212,985.1,532.9,4915,NA
68,1,binary,35,2,trial,21430653.0,21433019.0,2366.0,35,L,21430856,21431142,288,492.1,557.8,4965,left
68,1,binary,35,2,trial,21430653.0,21433019.0,2366.0,35,L,21431222,21431420,200,1440.9,589.0,4451,right
68,1,binary,35,2,trial,21430653.0,21433019.0,2366.0,35,L,21431442,21431828,388,1479.1,576.9,4318,right
68,1,binary,35,2,trial,21430653.0,21433019.0,2366.0,35,L,21431898,21432308,412,476.7,587.0,4526,left
68,1,binary,35,2,trial,21430653.0,21433019.0,2366.0,35,L,21432320,21432490,172,450.1,606.4,4412,left
68,1,binary,35,2,trial,21430653.0,21433019.0,2366.0,35,L,21432566,21433264,700,1459.2,580.9,4363,right
68,1,binary,36,2,fixationCross,21435203.0,21440469.0,5266.0,36,L,21433450,21434044,596,875.2,339.4,4704,NA
68,1,binary,36,2,fixationCross,21435203.0,21440469.0,5266.0,36,L,21434086,21434902,818,1018.8,443.9,4728,NA
68,1,binary,36,2,trial,21435203.0,21440469.0,5266.0,36,L,21434926,21435340,416,948.5,464.3,4827,NA
68,1,binary,36,2,trial,21435203.0,21440469.0,5266.0,36,L,21435384,21435626,244,552.7,568.0,4783,left
68,1,binary,36,2,trial,21435203.0,21440469.0,5266.0,36,L,21435652,21435880,230,504.3,661.8,4504,left
68,1,binary,36,2,trial,21435203.0,21440469.0,5266.0,36,L,21435894,21436030,138,476.9,694.1,4369,left
68,1,binary,36,2,trial,21435203.0,21440469.0,5266.0,36,L,21436108,21436396,290,1498.6,572.3,4248,right
68,1,binary,36,2,trial,21435203.0,21440469.0,5266.0,36,L,21436416,21436638,224,1451.9,552.7,4234,right
68,1,binary,36,2,trial,21435203.0,21440469.0,5266.0,36,L,21436660,21436826,168,1562.7,568.3,4189,right
68,1,binary,36,2,trial,21435203.0,21440469.0,5266.0,36,L,21436902,21437132,232,518.0,565.2,4267,left
68,1,binary,36,2,trial,21435203.0,21440469.0,5266.0,36,L,21437158,21437356,200,356.3,501.9,4119,left
68,1,binary,36,2,trial,21435203.0,21440469.0,5266.0,36,L,21437392,21437756,366,625.3,429.6,4043,left
68,1,binary,36,2,trial,21435203.0,21440469.0,5266.0,36,L,21437766,21438178,414,605.0,448.0,4132,left
68,1,binary,36,2,trial,21435203.0,21440469.0,5266.0,36,L,21438202,21438570,370,682.4,427.5,4332,left
68,1,binary,36,2,trial,21435203.0,21440469.0,5266.0,36,L,21438612,21438782,172,587.7,627.1,4432,left
68,1,binary,36,2,trial,21435203.0,21440469.0,5266.0,36,L,21438804,21438964,162,549.4,664.8,4456,left
68,1,binary,36,2,trial,21435203.0,21440469.0,5266.0,36,L,21438980,21439288,310,495.0,676.0,4438,left
68,1,binary,36,2,trial,21435203.0,21440469.0,5266.0,36,L,21439302,21439632,332,441.6,661.1,4396,left
68,1,binary,36,2,trial,21435203.0,21440469.0,5266.0,36,L,21439648,21440078,432,486.8,680.5,4351,left
68,1,binary,36,2,trial,21435203.0,21440469.0,5266.0,36,L,21440162,21440410,250,1507.2,599.0,4260,right
68,1,binary,36,2,trial,21435203.0,21440469.0,5266.0,36,L,21440430,21440668,240,1463.4,541.9,4127,right
68,1,binary,37,1,fixationCross,21442020.0,21443637.0,1617.0,37,L,21440882,21441340,460,849.9,291.5,4207,NA
68,1,binary,37,1,fixationCross,21442020.0,21443637.0,1617.0,37,L,21441382,21441728,348,1027.0,404.7,4268,NA
68,1,binary,37,1,trial,21442020.0,21443637.0,1617.0,37,L,21441750,21442162,414,946.9,471.3,4538,NA
68,1,binary,37,1,trial,21442020.0,21443637.0,1617.0,37,L,21442218,21442408,192,508.9,548.5,4730,left
68,1,binary,37,1,trial,21442020.0,21443637.0,1617.0,37,L,21442432,21442620,190,476.7,629.0,4685,left
68,1,binary,37,1,trial,21442020.0,21443637.0,1617.0,37,L,21442704,21443132,430,1431.3,554.7,4430,right
68,1,binary,37,1,trial,21442020.0,21443637.0,1617.0,37,L,21443154,21443332,180,1459.9,547.6,4414,right
68,1,binary,37,1,trial,21442020.0,21443637.0,1617.0,37,L,21443418,21443594,178,406.8,576.6,4678,left
68,1,binary,37,1,postResponse,21442020.0,21443637.0,1617.0,37,L,21443634,21443970,338,403.0,435.0,4527,left
68,1,binary,38,1,fixationCross,21446353.0,21449537.0,3184.0,38,L,21444162,21444616,456,862.8,360.9,4440,NA
68,1,binary,38,1,fixationCross,21446353.0,21449537.0,3184.0,38,L,21444656,21445328,674,1123.7,408.4,4520,NA
68,1,binary,38,1,fixationCross,21446353.0,21449537.0,3184.0,38,L,21445354,21445640,288,932.8,433.0,4771,NA
68,1,binary,38,1,fixationCross,21446353.0,21449537.0,3184.0,38,L,21445898,21446114,218,959.2,428.7,4800,NA
68,1,binary,38,1,fixationCross,21446353.0,21449537.0,3184.0,38,L,21446142,21446342,202,991.7,526.5,4952,NA
68,1,binary,38,1,trial,21446353.0,21449537.0,3184.0,38,L,21446362,21446536,176,962.4,528.2,4862,NA
68,1,binary,38,1,trial,21446353.0,21449537.0,3184.0,38,L,21446592,21446842,252,441.3,493.0,4656,left
68,1,binary,38,1,trial,21446353.0,21449537.0,3184.0,38,L,21446916,21447238,324,1414.4,498.4,4132,right
68,1,binary,38,1,trial,21446353.0,21449537.0,3184.0,38,L,21447262,21447378,118,1467.6,540.5,4057,right
68,1,binary,38,1,trial,21446353.0,21449537.0,3184.0,38,L,21447462,21447728,268,426.7,488.4,4394,left
68,1,binary,38,1,trial,21446353.0,21449537.0,3184.0,38,L,21447742,21448276,536,417.5,470.2,4215,left
68,1,binary,38,1,trial,21446353.0,21449537.0,3184.0,38,L,21448310,21448456,148,680.3,448.6,4205,left
68,1,binary,38,1,trial,21446353.0,21449537.0,3184.0,38,L,21448524,21448886,364,1441.3,532.9,4238,right
68,1,binary,38,1,trial,21446353.0,21449537.0,3184.0,38,L,21448910,21449138,230,1463.2,587.2,4390,right
68,1,binary,38,1,trial,21446353.0,21449537.0,3184.0,38,L,21449164,21449446,284,1329.3,539.5,4508,right
68,1,binary,38,1,trial,21446353.0,21449537.0,3184.0,38,L,21449522,21449750,230,552.9,819.1,4668,NA
68,1,binary,39,2,fixationCross,21452087.0,21454720.0,2633.0,39,L,21450034,21450906,874,1066.4,364.7,4389,NA
68,1,binary,39,2,fixationCross,21452087.0,21454720.0,2633.0,39,L,21450932,21451300,370,940.4,398.1,4531,NA
68,1,binary,39,2,fixationCross,21452087.0,21454720.0,2633.0,39,L,21451328,21451764,438,1064.3,429.1,4521,NA
68,1,binary,39,2,trial,21452087.0,21454720.0,2633.0,39,L,21451786,21452220,436,970.2,472.3,4730,NA
68,1,binary,39,2,trial,21452087.0,21454720.0,2633.0,39,L,21452266,21452424,160,525.2,499.1,4746,left
68,1,binary,39,2,trial,21452087.0,21454720.0,2633.0,39,L,21452446,21452658,214,439.6,521.1,4590,left
68,1,binary,39,2,trial,21452087.0,21454720.0,2633.0,39,L,21452738,21452924,188,1459.3,554.6,4340,right
68,1,binary,39,2,trial,21452087.0,21454720.0,2633.0,39,L,21452946,21453222,278,1398.1,597.3,4286,right
68,1,binary,39,2,trial,21452087.0,21454720.0,2633.0,39,L,21453286,21453448,164,508.0,548.5,4335,left
68,1,binary,39,2,trial,21452087.0,21454720.0,2633.0,39,L,21453468,21453670,204,440.5,539.0,4296,left
68,1,binary,39,2,trial,21452087.0,21454720.0,2633.0,39,L,21453698,21454052,356,563.2,565.2,4293,left
68,1,binary,39,2,trial,21452087.0,21454720.0,2633.0,39,L,21454078,21454364,288,437.5,537.9,4390,left
68,1,binary,39,2,trial,21452087.0,21454720.0,2633.0,39,L,21454444,21454692,250,1414.4,515.2,4318,right
68,1,binary,39,2,trial,21452087.0,21454720.0,2633.0,39,L,21454718,21454972,256,1510.2,582.1,4306,right
68,1,binary,40,2,fixationCross,21456686.0,21459870.0,3184.0,40,L,21455158,21456096,940,902.5,301.5,4459,NA
68,1,binary,40,2,fixationCross,21456686.0,21459870.0,3184.0,40,L,21456138,21456378,242,1061.4,387.5,4404,NA
68,1,binary,40,2,trial,21456686.0,21459870.0,3184.0,40,L,21456404,21456822,420,963.9,475.0,4515,NA
68,1,binary,40,2,trial,21456686.0,21459870.0,3184.0,40,L,21456880,21457062,184,460.2,532.5,4660,left
68,1,binary,40,2,trial,21456686.0,21459870.0,3184.0,40,L,21457150,21457918,770,1453.0,551.5,4234,right
68,1,binary,40,2,trial,21456686.0,21459870.0,3184.0,40,L,21457936,21458086,152,1460.0,605.3,4253,right
68,1,binary,40,2,trial,21456686.0,21459870.0,3184.0,40,L,21458164,21458372,210,511.0,575.2,4446,left
68,1,binary,40,2,trial,21456686.0,21459870.0,3184.0,40,L,21458394,21458646,254,435.6,576.2,4325,left
68,1,binary,40,2,trial,21456686.0,21459870.0,3184.0,40,L,21458670,21458904,236,468.4,449.0,4178,left
68,1,binary,40,2,trial,21456686.0,21459870.0,3184.0,40,L,21458916,21459188,274,505.1,443.8,4216,left
68,1,binary,40,2,trial,21456686.0,21459870.0,3184.0,40,L,21459216,21459406,192,502.3,562.6,4282,left
68,1,binary,40,2,trial,21456686.0,21459870.0,3184.0,40,L,21459484,21459890,408,1482.9,518.3,4177,right
68,1,binary,40,2,trial,21456686.0,21459870.0,3184.0,40,L,21459914,21460142,230,1516.1,451.9,4142,right
68,1,binary,41,1,fixationCross,21461453.0,21463654.0,2201.0,41,L,21460324,21461142,820,1082.6,299.1,4334,NA
68,1,binary,41,1,trial,21461453.0,21463654.0,2201.0,41,L,21461186,21461592,408,1000.5,459.7,4424,NA
68,1,binary,41,1,trial,21461453.0,21463654.0,2201.0,41,L,21461638,21461962,326,580.0,539.9,4674,left
68,1,binary,41,1,trial,21461453.0,21463654.0,2201.0,41,L,21462044,21462576,534,1453.0,507.0,4372,right
68,1,binary,41,1,trial,21461453.0,21463654.0,2201.0,41,L,21462650,21462860,212,515.4,622.2,4623,left
68,1,binary,41,1,trial,21461453.0,21463654.0,2201.0,41,L,21462888,21463166,280,361.1,593.6,4495,left
68,1,binary,41,1,trial,21461453.0,21463654.0,2201.0,41,L,21463212,21463522,312,660.6,602.7,4235,left
68,1,binary,41,1,trial,21461453.0,21463654.0,2201.0,41,L,21463542,21463890,350,611.4,564.3,4317,left
68,1,binary,42,2,fixationCross,21464737.0,21467836.0,3099.0,42,L,21464074,21464454,382,866.3,492.5,4445,NA
68,1,binary,42,2,trial,21464737.0,21467836.0,3099.0,42,L,21464490,21464874,386,1001.2,556.3,4619,NA
68,1,binary,42,2,trial,21464737.0,21467836.0,3099.0,42,L,21464920,21465214,296,567.2,544.2,4598,left
68,1,binary,42,2,trial,21464737.0,21467836.0,3099.0,42,L,21465284,21465624,342,1391.6,559.2,4199,right
68,1,binary,42,2,trial,21464737.0,21467836.0,3099.0,42,L,21465648,21465782,136,1275.1,546.3,4171,right
68,1,binary,42,2,trial,21464737.0,21467836.0,3099.0,42,L,21465850,21466170,322,511.5,507.3,4365,left
68,1,binary,42,2,trial,21464737.0,21467836.0,3099.0,42,L,21466184,21466368,186,477.8,531.1,4326,left
68,1,binary,42,2,trial,21464737.0,21467836.0,3099.0,42,L,21466444,21466694,252,1439.4,574.8,4111,right
68,1,binary,42,2,trial,21464737.0,21467836.0,3099.0,42,L,21466720,21467182,464,1307.9,542.0,4138,right
68,1,binary,42,2,trial,21464737.0,21467836.0,3099.0,42,L,21467230,21467374,146,1558.9,550.9,4240,right
68,1,binary,42,2,trial,21464737.0,21467836.0,3099.0,42,L,21467448,21467854,408,521.9,517.0,4396,left
68,1,binary,42,2,postResponse,21464737.0,21467836.0,3099.0,42,L,21467876,21468170,296,473.7,564.0,4248,left
68,1,binary,43,2,fixationCross,21468970.0,21470737.0,1767.0,43,L,21468446,21468656,212,1288.3,352.2,4204,right
68,1,binary,43,2,trial,21468970.0,21470737.0,1767.0,43,L,21468694,21469120,428,991.0,452.1,4500,NA
68,1,binary,43,2,trial,21468970.0,21470737.0,1767.0,43,L,21469180,21469480,302,440.0,534.6,4494,left
68,1,binary,43,2,trial,21468970.0,21470737.0,1767.0,43,L,21469552,21470040,490,1366.8,464.4,4121,right
68,1,binary,43,2,trial,21468970.0,21470737.0,1767.0,43,L,21470062,21470300,240,1460.8,465.4,4177,right
68,1,binary,43,2,trial,21468970.0,21470737.0,1767.0,43,L,21470354,21470714,362,1460.0,1031.1,4434,NA
68,1,binary,43,2,trial,21468970.0,21470737.0,1767.0,43,L,21470738,21471012,276,1432.8,958.0,4637,NA
68,1,binary,44,1,fixationCross,21471836.0,21473287.0,1451.0,44,L,21471212,21471544,334,866.5,387.8,4749,NA
68,1,binary,44,1,trial,21471836.0,21473287.0,1451.0,44,L,21471584,21471968,386,997.1,485.2,4648,NA
68,1,binary,44,1,trial,21471836.0,21473287.0,1451.0,44,L,21472016,21472286,272,523.2,512.8,4579,left
68,1,binary,44,1,trial,21471836.0,21473287.0,1451.0,44,L,21472356,21472616,262,1381.6,479.2,4264,right
68,1,binary,44,1,trial,21471836.0,21473287.0,1451.0,44,L,21472642,21472784,144,1526.9,475.3,4205,right
68,1,binary,44,1,trial,21471836.0,21473287.0,1451.0,44,L,21472852,21473382,532,537.0,531.4,4504,left
68,1,binary,44,1,trial,21471836.0,21473287.0,1451.0,44,L,21473404,21473508,106,452.0,552.4,4414,left
68,1,binary,45,1,fixationCross,21474420.0,21476370.0,1950.0,45,L,21473722,21474092,372,1224.0,362.3,4432,right
68,1,binary,45,1,trial,21474420.0,21476370.0,1950.0,45,L,21474124,21474550,428,1004.8,451.3,4698,NA
68,1,binary,45,1,trial,21474420.0,21476370.0,1950.0,45,L,21474606,21474786,182,552.3,499.6,4792,left
68,1,binary,45,1,trial,21474420.0,21476370.0,1950.0,45,L,21474866,21475090,226,1415.8,555.1,4380,right
68,1,binary,45,1,trial,21474420.0,21476370.0,1950.0,45,L,21475124,21475422,300,1502.6,616.2,4203,right
68,1,binary,45,1,trial,21474420.0,21476370.0,1950.0,45,L,21475494,21475872,380,573.5,519.4,4326,left
68,1,binary,45,1,trial,21474420.0,21476370.0,1950.0,45,L,21475892,21476604,714,504.5,557.3,4370,left
68,1,binary,46,2,fixationCross,21477954.0,21479487.0,1533.0,46,L,21476804,21477364,562,947.3,324.4,4491,NA
68,1,binary,46,2,trial,21477954.0,21479487.0,1533.0,46,L,21477406,21478080,676,1045.1,484.5,4577,NA
68,1,binary,46,2,trial,21477954.0,21479487.0,1533.0,46,L,21478128,21478442,316,528.4,513.2,4586,left
68,1,binary,46,2,trial,21477954.0,21479487.0,1533.0,46,L,21478530,21478842,314,1485.3,503.7,4104,right
68,1,binary,46,2,trial,21477954.0,21479487.0,1533.0,46,L,21478862,21479082,222,1410.1,497.6,4136,right
68,1,binary,46,2,trial,21477954.0,21479487.0,1533.0,46,L,21479110,21479516,408,1537.3,508.1,4393,right
68,1,binary,46,2,trial,21477954.0,21479487.0,1533.0,46,L,21479570,21479754,186,1466.8,1027.2,4670,NA
68,1,binary,47,2,fixationCross,21481754.0,21485054.0,3300.0,47,L,21479894,21480526,634,1037.9,411.4,4705,NA
68,1,binary,47,2,fixationCross,21481754.0,21485054.0,3300.0,47,L,21480550,21480918,370,891.4,426.7,4789,NA
68,1,binary,47,2,fixationCross,21481754.0,21485054.0,3300.0,47,L,21480944,21481462,520,992.3,421.1,4666,NA
68,1,binary,47,2,fixationCross,21481754.0,21485054.0,3300.0,47,L,21481490,21481688,200,985.2,519.2,4746,NA
68,1,binary,47,2,trial,21481754.0,21485054.0,3300.0,47,L,21481708,21481944,238,958.5,546.6,4794,NA
68,1,binary,47,2,trial,21481754.0,21485054.0,3300.0,47,L,21481990,21482254,266,565.7,461.6,4682,left
68,1,binary,47,2,trial,21481754.0,21485054.0,3300.0,47,L,21482274,21482408,136,569.4,521.2,4421,left
68,1,binary,47,2,trial,21481754.0,21485054.0,3300.0,47,L,21482490,21482756,268,1479.9,514.0,4186,right
68,1,binary,47,2,trial,21481754.0,21485054.0,3300.0,47,L,21482780,21482980,202,1519.2,535.4,4119,right
68,1,binary,47,2,trial,21481754.0,21485054.0,3300.0,47,L,21483054,21483226,174,588.9,501.5,4344,left
68,1,binary,47,2,trial,21481754.0,21485054.0,3300.0,47,L,21483250,21483568,320,523.6,527.3,4287,left
68,1,binary,47,2,trial,21481754.0,21485054.0,3300.0,47,L,21483586,21483794,210,540.4,482.7,4076,left
68,1,binary,47,2,trial,21481754.0,21485054.0,3300.0,47,L,21483874,21484120,248,1524.2,575.3,3938,right
68,1,binary,47,2,trial,21481754.0,21485054.0,3300.0,47,L,21484142,21484422,282,1509.6,471.1,3937,right
68,1,binary,47,2,trial,21481754.0,21485054.0,3300.0,47,L,21484458,21485122,666,1528.8,665.9,4168,right
68,1,binary,47,2,trial,21481754.0,21485054.0,3300.0,47,L,21485160,21485278,120,1220.2,627.1,4312,right
68,1,binary,48,1,fixationCross,21486920.0,21490904.0,3984.0,48,L,21485506,21485706,202,506.7,289.9,4473,NA
68,1,binary,48,1,fixationCross,21486920.0,21490904.0,3984.0,48,L,21485756,21486142,388,110.6,81.0,4426,NA
68,1,binary,48,1,fixationCross,21486920.0,21490904.0,3984.0,48,L,21486208,21486610,404,900.2,393.8,4229,NA
68,1,binary,48,1,trial,21486920.0,21490904.0,3984.0,48,L,21486636,21487054,420,987.3,490.5,4451,NA
68,1,binary,48,1,trial,21486920.0,21490904.0,3984.0,48,L,21487106,21487304,200,582.1,512.4,4655,left
68,1,binary,48,1,trial,21486920.0,21490904.0,3984.0,48,L,21487384,21487922,540,1455.4,549.2,4416,right
68,1,binary,48,1,trial,21486920.0,21490904.0,3984.0,48,L,21487948,21488084,138,1294.2,463.7,4433,right
68,1,binary,48,1,trial,21486920.0,21490904.0,3984.0,48,L,21488154,21488346,194,503.3,440.6,4575,left
68,1,binary,48,1,trial,21486920.0,21490904.0,3984.0,48,L,21488366,21488582,218,441.2,444.6,4612,left
68,1,binary,48,1,trial,21486920.0,21490904.0,3984.0,48,L,21488616,21488860,246,485.4,601.7,4589,left
68,1,binary,48,1,trial,21486920.0,21490904.0,3984.0,48,L,21488888,21489006,120,637.7,609.7,4615,left
68,1,binary,48,1,trial,21486920.0,21490904.0,3984.0,48,L,21489078,21489692,616,1481.3,575.5,4502,right
68,1,binary,48,1,trial,21486920.0,21490904.0,3984.0,48,L,21489716,21489868,154,1370.0,490.0,4421,right
68,1,binary,48,1,trial,21486920.0,21490904.0,3984.0,48,L,21489936,21490154,220,566.2,606.7,4548,left
68,1,binary,48,1,trial,21486920.0,21490904.0,3984.0,48,L,21490178,21490436,260,463.5,619.3,4556,left
68,1,binary,48,1,trial,21486920.0,21490904.0,3984.0,48,L,21490458,21490754,298,385.6,624.0,4528,left
68,1,binary,48,1,trial,21486920.0,21490904.0,3984.0,48,L,21490772,21491100,330,303.1,619.2,4559,left
68,1,binary,49,2,fixationCross,21492271.0,21493587.0,1316.0,49,L,21491310,21491600,292,1101.2,376.2,4364,NA
68,1,binary,49,2,fixationCross,21492271.0,21493587.0,1316.0,49,L,21491638,21491902,266,1215.2,261.4,4448,NA
68,1,binary,49,2,trial,21492271.0,21493587.0,1316.0,49,L,21491956,21492354,400,877.1,481.4,4537,NA
68,1,binary,49,2,trial,21492271.0,21493587.0,1316.0,49,L,21492390,21492490,102,1074.4,458.0,4502,NA
68,1,binary,49,2,trial,21492271.0,21493587.0,1316.0,49,L,21492548,21492776,230,519.8,524.9,4420,left
68,1,binary,49,2,trial,21492271.0,21493587.0,1316.0,49,L,21492792,21492920,130,466.1,553.6,4218,left
68,1,binary,49,2,trial,21492271.0,21493587.0,1316.0,49,L,21492994,21493602,610,1411.2,539.3,3863,right
68,1,binary,49,2,trial,21492271.0,21493587.0,1316.0,49,L,21493680,21493858,180,510.1,552.9,4198,left
68,1,binary,50,2,fixationCross,21496371.0,21498437.0,2066.0,50,L,21494076,21494442,368,871.2,310.4,4210,NA
68,1,binary,50,2,fixationCross,21496371.0,21498437.0,2066.0,50,L,21494486,21496072,1588,1019.5,413.1,4527,NA
68,1,binary,50,2,trial,21496371.0,21498437.0,2066.0,50,L,21496104,21496512,410,968.4,500.4,4730,NA
68,1,binary,50,2,trial,21496371.0,21498437.0,2066.0,50,L,21496556,21496860,306,611.5,501.0,4721,left
68,1,binary,50,2,trial,21496371.0,21498437.0,2066.0,50,L,21496884,21497040,158,493.5,530.0,4466,left
68,1,binary,50,2,trial,21496371.0,21498437.0,2066.0,50,L,21497116,21497418,304,1455.9,535.7,4204,right
68,1,binary,50,2,trial,21496371.0,21498437.0,2066.0,50,L,21497434,21497932,500,1473.8,499.6,4265,right
68,1,binary,50,2,trial,21496371.0,21498437.0,2066.0,50,L,21498010,21498298,290,579.6,502.9,4645,left
68,1,binary,50,2,trial,21496371.0,21498437.0,2066.0,50,L,21498322,21498484,164,483.9,531.7,4496,left
68,1,binary,50,2,trial,21496371.0,21498437.0,2066.0,50,L,21498510,21498650,142,330.9,495.3,4337,left
68,2,continuous,1,83,fixationCross,21645739.0,21651522.0,5783.0,51,L,21644949,21645069,122,1037.6,863.0,4629,likertHorizontal
68,2,continuous,1,83,fixationCross,21645739.0,21651522.0,5783.0,51,L,21645137,21645425,290,905.0,399.8,4559,NA
68,2,continuous,1,83,fixationCross,21645739.0,21651522.0,5783.0,51,L,21645453,21645619,168,958.3,515.9,4526,NA
68,2,continuous,1,83,trial,21645739.0,21651522.0,5783.0,51,L,21645807,21645923,118,965.9,518.7,4597,NA
68,2,continuous,1,83,trial,21645739.0,21651522.0,5783.0,51,L,21645971,21646151,182,526.7,527.9,4804,left
68,2,continuous,1,83,trial,21645739.0,21651522.0,5783.0,51,L,21646197,21646351,156,853.2,944.9,4757,likertHorizontal
68,2,continuous,1,83,trial,21645739.0,21651522.0,5783.0,51,L,21646375,21646571,198,929.9,971.2,4461,likertHorizontal
68,2,continuous,1,83,trial,21645739.0,21651522.0,5783.0,51,L,21646643,21646897,256,535.1,533.2,4266,left
68,2,continuous,1,83,trial,21645739.0,21651522.0,5783.0,51,L,21646969,21647317,350,1401.2,538.2,4103,right
68,2,continuous,1,83,trial,21645739.0,21651522.0,5783.0,51,L,21647397,21647727,332,480.9,429.9,4323,left
68,2,continuous,1,83,trial,21645739.0,21651522.0,5783.0,51,L,21647781,21647953,174,544.6,967.9,4469,NA
68,2,continuous,1,83,trial,21645739.0,21651522.0,5783.0,51,L,21647979,21648139,162,468.2,996.9,4539,NA
68,2,continuous,1,83,trial,21645739.0,21651522.0,5783.0,51,L,21648205,21648497,294,456.8,444.6,4444,left
68,2,continuous,1,83,trial,21645739.0,21651522.0,5783.0,51,L,21648573,21648925,354,1392.4,556.6,4279,right
68,2,continuous,1,83,trial,21645739.0,21651522.0,5783.0,51,L,21648951,21649179,230,1448.5,589.7,4235,right
68,2,continuous,1,83,trial,21645739.0,21651522.0,5783.0,51,L,21649255,21649541,288,517.2,471.7,4246,left
68,2,continuous,1,83,trial,21645739.0,21651522.0,5783.0,51,L,21649563,21649757,196,443.0,442.1,4172,left
68,2,continuous,1,83,trial,21645739.0,21651522.0,5783.0,51,L,21649771,21650087,318,446.8,416.3,4201,left
68,2,continuous,1,83,trial,21645739.0,21651522.0,5783.0,51,L,21650169,21650349,182,1373.8,567.7,4205,right
68,2,continuous,1,83,trial,21645739.0,21651522.0,5783.0,51,L,21650407,21650529,124,980.6,938.6,4277,likertHorizontal
68,2,continuous,1,83,trial,21645739.0,21651522.0,5783.0,51,L,21650567,21650759,194,1161.8,979.8,4297,likertHorizontal
68,2,continuous,1,83,trial,21645739.0,21651522.0,5783.0,51,L,21650805,21651005,202,1349.9,1002.4,4364,NA
68,2,continuous,1,83,trial,21645739.0,21651522.0,5783.0,51,L,21651031,21651173,144,1221.8,984.5,4411,NA
68,2,continuous,1,83,trial,21645739.0,21651522.0,5783.0,51,L,21651227,21651725,500,1343.7,544.7,4299,right
68,2,continuous,2,9,fixationCross,21653272.0,21657439.0,4167.0,52,L,21651929,21652959,1032,968.1,373.3,4490,NA
68,2,continuous,2,9,fixationCross,21653272.0,21657439.0,4167.0,52,L,21652987,21653267,282,951.8,463.5,4535,NA
68,2,continuous,2,9,trial,21653272.0,21657439.0,4167.0,52,L,21653289,21653451,164,971.3,505.3,4596,NA
68,2,continuous,2,9,trial,21653272.0,21657439.0,4167.0,52,L,21653499,21653809,312,577.0,471.6,4617,left
68,2,continuous,2,9,trial,21653272.0,21657439.0,4167.0,52,L,21653835,21653941,108,602.4,576.8,4449,left
68,2,continuous,2,9,trial,21653272.0,21657439.0,4167.0,52,L,21654021,21654201,182,1450.7,507.0,4288,right
68,2,continuous,2,9,trial,21653272.0,21657439.0,4167.0,52,L,21654229,21654475,248,1343.5,399.8,4263,right
68,2,continuous,2,9,trial,21653272.0,21657439.0,4167.0,52,L,21654505,21654831,328,1477.9,510.3,4308,right
68,2,continuous,2,9,trial,21653272.0,21657439.0,4167.0,52,L,21654859,21655129,272,1485.2,625.9,4470,right
68,2,continuous,2,9,trial,21653272.0,21657439.0,4167.0,52,L,21655151,21655355,206,1456.0,520.7,4486,right
68,2,continuous,2,9,trial,21653272.0,21657439.0,4167.0,52,L,21655563,21655801,240,470.7,611.6,4546,left
68,2,continuous,2,9,trial,21653272.0,21657439.0,4167.0,52,L,21655823,21656293,472,504.3,672.1,4400,left
68,2,continuous,2,9,trial,21653272.0,21657439.0,4167.0,52,L,21656331,21656641,312,505.4,535.4,4213,left
68,2,continuous,2,9,trial,21653272.0,21657439.0,4167.0,52,L,21656669,21656955,288,472.8,652.6,4356,left
68,2,continuous,2,9,trial,21653272.0,21657439.0,4167.0,52,L,21657007,21657253,248,570.4,945.4,4529,NA
68,2,continuous,2,9,trial,21653272.0,21657439.0,4167.0,52,L,21657317,21657427,112,491.3,631.9,4475,left
68,2,continuous,2,9,postResponse,21653272.0,21657439.0,4167.0,52,L,21657513,21657777,266,1399.2,546.6,4347,right
68,2,continuous,3,50,fixationCross,21659573.0,21662072.0,2499.0,53,L,21658015,21658419,406,934.3,277.9,4628,NA
68,2,continuous,3,50,fixationCross,21659573.0,21662072.0,2499.0,53,L,21658457,21659329,874,961.5,428.0,4528,NA
68,2,continuous,3,50,trial,21659573.0,21662072.0,2499.0,53,L,21659351,21659753,404,977.1,497.5,4637,NA
68,2,continuous,3,50,trial,21659573.0,21662072.0,2499.0,53,L,21659817,21659935,120,1388.6,478.3,4665,right
68,2,continuous,3,50,trial,21659573.0,21662072.0,2499.0,53,L,21659959,21660117,160,1349.6,414.5,4409,right
68,2,continuous,3,50,trial,21659573.0,21662072.0,2499.0,53,L,21660189,21660581,394,508.8,462.0,4383,left
68,2,continuous,3,50,trial,21659573.0,21662072.0,2499.0,53,L,21660599,21660733,136,480.9,452.9,4226,left
68,2,continuous,3,50,trial,21659573.0,21662072.0,2499.0,53,L,21660787,21661125,340,963.9,965.7,4139,likertHorizontal
68,2,continuous,3,50,trial,21659573.0,21662072.0,2499.0,53,L,21661145,21661429,286,947.8,997.8,4327,likertHorizontal
68,2,continuous,3,50,trial,21659573.0,21662072.0,2499.0,53,L,21661489,21661651,164,1338.2,489.2,4370,right
68,2,continuous,3,50,trial,21659573.0,21662072.0,2499.0,53,L,21661673,21661803,132,1342.8,423.9,4320,right
68,2,continuous,3,50,trial,21659573.0,21662072.0,2499.0,53,L,21661949,21662073,126,977.7,891.9,4482,likertHorizontal
68,2,continuous,3,50,postResponse,21659573.0,21662072.0,2499.0,53,L,21662099,21662405,308,965.7,961.9,4693,likertHorizontal
68,2,continuous,4,37,fixationCross,21663972.0,21667773.0,3801.0,54,L,21662669,21662675,8,1047.9,275.3,4721,NA
68,2,continuous,4,37,fixationCross,21663972.0,21667773.0,3801.0,54,L,21662679,21663425,748,1034.0,320.1,4676,NA
68,2,continuous,4,37,fixationCross,21663972.0,21667773.0,3801.0,54,L,21663449,21663663,216,934.5,391.3,4589,NA
68,2,continuous,4,37,trial,21663972.0,21667773.0,3801.0,54,L,21663689,21664179,492,983.6,492.1,4643,NA
68,2,continuous,4,37,trial,21663972.0,21667773.0,3801.0,54,L,21664243,21664439,198,1370.0,487.3,4555,right
68,2,continuous,4,37,trial,21663972.0,21667773.0,3801.0,54,L,21664463,21664647,186,1312.6,447.3,4339,right
68,2,continuous,4,37,trial,21663972.0,21667773.0,3801.0,54,L,21664715,21664951,238,411.9,492.8,4413,left
68,2,continuous,4,37,trial,21663972.0,21667773.0,3801.0,54,L,21664971,21665257,288,387.9,472.7,4402,left
68,2,continuous,4,37,trial,21663972.0,21667773.0,3801.0,54,L,21665337,21665593,258,1389.1,473.5,4210,right
68,2,continuous,4,37,trial,21663972.0,21667773.0,3801.0,54,L,21665607,21665775,170,1346.2,448.3,4248,right
68,2,continuous,4,37,trial,21663972.0,21667773.0,3801.0,54,L,21665815,21665987,174,1505.5,429.7,4350,right
68,2,continuous,4,37,trial,21663972.0,21667773.0,3801.0,54,L,21666127,21666455,330,1449.3,536.4,4519,right
68,2,continuous,4,37,trial,21663972.0,21667773.0,3801.0,54,L,21666481,21666611,132,1305.8,439.1,4529,right
68,2,continuous,4,37,trial,21663972.0,21667773.0,3801.0,54,L,21666681,21667235,556,428.7,494.4,4449,left
68,2,continuous,4,37,trial,21663972.0,21667773.0,3801.0,54,L,21667291,21667987,698,820.4,963.5,4403,likertHorizontal
68,2,continuous,5,65,fixationCross,21669572.0,21672122.0,2550.0,55,L,21668193,21668701,510,894.2,371.3,4597,NA
68,2,continuous,5,65,fixationCross,21669572.0,21672122.0,2550.0,55,L,21668723,21669257,536,983.7,384.2,4570,NA
68,2,continuous,5,65,trial,21669572.0,21672122.0,2550.0,55,L,21669281,21669737,458,949.3,494.0,4639,NA
68,2,continuous,5,65,trial,21669572.0,21672122.0,2550.0,55,L,21669781,21670089,310,549.2,500.3,4632,left
68,2,continuous,5,65,trial,21669572.0,21672122.0,2550.0,55,L,21670161,21671063,904,1408.2,511.2,4201,right
68,2,continuous,5,65,trial,21669572.0,21672122.0,2550.0,55,L,21671125,21671353,230,705.5,511.6,4522,left
68,2,continuous,5,65,trial,21669572.0,21672122.0,2550.0,55,L,21671381,21671633,254,528.2,517.7,4510,left
68,2,continuous,5,65,trial,21669572.0,21672122.0,2550.0,55,L,21671701,21671819,120,1148.9,943.9,4525,likertHorizontal
68,2,continuous,5,65,trial,21669572.0,21672122.0,2550.0,55,L,21671853,21672031,180,1070.6,965.4,4492,likertHorizontal
68,2,continuous,5,65,trial,21669572.0,21672122.0,2550.0,55,L,21672101,21672327,228,1379.3,567.7,4292,right
68,2,continuous,6,93,fixationCross,21674556.0,21677206.0,2650.0,56,L,21672533,21674013,1482,990.1,376.8,4466,NA
68,2,continuous,6,93,fixationCross,21674556.0,21677206.0,2650.0,56,L,21674031,21674237,208,1040.7,392.7,4662,NA
68,2,continuous,6,93,trial,21674556.0,21677206.0,2650.0,56,L,21674269,21674639,372,965.3,458.2,4749,NA
68,2,continuous,6,93,trial,21674556.0,21677206.0,2650.0,56,L,21674657,21674771,116,955.8,501.5,4759,NA
68,2,continuous,6,93,trial,21674556.0,21677206.0,2650.0,56,L,21674815,21675059,246,563.6,502.0,4687,left
68,2,continuous,6,93,trial,21674556.0,21677206.0,2650.0,56,L,21675129,21675469,342,1370.1,549.3,4123,right
68,2,continuous,6,93,trial,21674556.0,21677206.0,2650.0,56,L,21675511,21675739,230,1587.0,564.2,3960,right
68,2,continuous,6,93,trial,21674556.0,21677206.0,2650.0,56,L,21675885,21676025,142,1068.9,893.7,4302,likertHorizontal
68,2,continuous,6,93,trial,21674556.0,21677206.0,2650.0,56,L,21676053,21676175,124,1055.1,899.6,4451,likertHorizontal
68,2,continuous,6,93,trial,21674556.0,21677206.0,2650.0,56,L,21676235,21676763,530,536.9,610.9,4555,left
68,2,continuous,6,93,trial,21674556.0,21677206.0,2650.0,56,L,21676785,21677013,230,587.4,560.8,4254,left
68,2,continuous,6,93,trial,21674556.0,21677206.0,2650.0,56,L,21677085,21677459,376,1382.3,966.3,4302,NA
68,2,continuous,7,28,fixationCross,21679023.0,21686606.0,7583.0,57,L,21677665,21678131,468,890.1,292.4,4554,NA
68,2,continuous,7,28,fixationCross,21679023.0,21686606.0,7583.0,57,L,21678167,21678739,574,987.9,408.8,4485,NA
68,2,continuous,7,28,fixationCross,21679023.0,21686606.0,7583.0,57,L,21678771,21678957,188,937.3,486.8,4555,NA
68,2,continuous,7,28,trial,21679023.0,21686606.0,7583.0,57,L,21678981,21679325,346,966.2,532.4,4613,NA
68,2,continuous,7,28,trial,21679023.0,21686606.0,7583.0,57,L,21679397,21679685,290,1495.3,480.8,4361,right
68,2,continuous,7,28,trial,21679023.0,21686606.0,7583.0,57,L,21679769,21679899,132,441.6,521.4,4465,left
68,2,continuous,7,28,trial,21679023.0,21686606.0,7583.0,57,L,21679923,21680243,322,306.6,444.5,4386,left
68,2,continuous,7,28,trial,21679023.0,21686606.0,7583.0,57,L,21680269,21680445,178,332.4,542.0,4295,left
68,2,continuous,7,28,trial,21679023.0,21686606.0,7583.0,57,L,21680475,21680681,208,507.6,583.3,4334,left
68,2,continuous,7,28,trial,21679023.0,21686606.0,7583.0,57,L,21680759,21680971,214,1498.2,459.5,4255,right
68,2,continuous,7,28,trial,21679023.0,21686606.0,7583.0,57,L,21680983,21681397,416,1510.3,434.6,4220,right
68,2,continuous,7,28,trial,21679023.0,21686606.0,7583.0,57,L,21681579,21681737,160,1007.7,889.1,4542,likertHorizontal
68,2,continuous,7,28,trial,21679023.0,21686606.0,7583.0,57,L,21681791,21682139,350,559.1,638.2,4692,left
68,2,continuous,7,28,trial,21679023.0,21686606.0,7583.0,57,L,21682161,21682379,220,453.2,627.2,4407,left
68,2,continuous,7,28,trial,21679023.0,21686606.0,7583.0,57,L,21682405,21682609,206,307.2,525.0,4125,left
68,2,continuous,7,28,trial,21679023.0,21686606.0,7583.0,57,L,21682631,21682857,228,319.6,470.8,4013,left
68,2,continuous,7,28,trial,21679023.0,21686606.0,7583.0,57,L,21682911,21683111,202,803.9,946.6,4130,likertHorizontal
68,2,continuous,7,28,trial,21679023.0,21686606.0,7583.0,57,L,21683131,21683377,248,772.4,976.9,4265,likertHorizontal
68,2,continuous,7,28,trial,21679023.0,21686606.0,7583.0,57,L,21683441,21683547,108,489.2,544.4,4299,left
68,2,continuous,7,28,trial,21679023.0,21686606.0,7583.0,57,L,21683625,21683849,226,1489.1,514.0,4154,right
68,2,continuous,7,28,trial,21679023.0,21686606.0,7583.0,57,L,21683871,21684345,476,1504.0,430.1,4218,right
68,2,continuous,7,28,trial,21679023.0,21686606.0,7583.0,57,L,21684371,21684589,220,1500.6,506.2,4485,right
68,2,continuous,7,28,trial,21679023.0,21686606.0,7583.0,57,L,21684613,21685271,660,1496.8,420.9,4453,right
68,2,continuous,7,28,trial,21679023.0,21686606.0,7583.0,57,L,21685351,21685511,162,452.6,498.6,4542,left
68,2,continuous,7,28,trial,21679023.0,21686606.0,7583.0,57,L,21685535,21685785,252,319.4,471.8,4509,left
68,2,continuous,7,28,trial,21679023.0,21686606.0,7583.0,57,L,21685813,21686215,404,289.5,617.3,4286,left
68,2,continuous,7,28,trial,21679023.0,21686606.0,7583.0,57,L,21686247,21686495,250,517.7,587.8,4340,left
68,2,continuous,7,28,trial,21679023.0,21686606.0,7583.0,57,L,21686531,21686835,306,301.7,617.3,4318,left
68,2,continuous,8,50,fixationCross,21687773.0,21690640.0,2867.0,58,L,21687063,21687479,418,1034.0,384.3,4263,NA
68,2,continuous,8,50,trial,21687773.0,21690640.0,2867.0,58,L,21687507,21687907,402,961.1,499.9,4421,NA
68,2,continuous,8,50,trial,21687773.0,21690640.0,2867.0,58,L,21687961,21688139,180,553.7,517.5,4540,left
68,2,continuous,8,50,trial,21687773.0,21690640.0,2867.0,58,L,21688163,21688351,190,625.6,480.9,4332,left
68,2,continuous,8,50,trial,21687773.0,21690640.0,2867.0,58,L,21688415,21688605,192,1316.3,551.2,4076,right
68,2,continuous,8,50,trial,21687773.0,21690640.0,2867.0,58,L,21688629,21689047,420,1361.4,583.3,4102,right
68,2,continuous,8,50,trial,21687773.0,21690640.0,2867.0,58,L,21689117,21689357,242,536.8,511.4,4302,left
68,2,continuous,8,50,trial,21687773.0,21690640.0,2867.0,58,L,21689383,21689615,234,486.7,570.2,4318,left
68,2,continuous,8,50,trial,21687773.0,21690640.0,2867.0,58,L,21689645,21689947,304,638.3,472.8,4245,left
68,2,continuous,8,50,trial,21687773.0,21690640.0,2867.0,58,L,21690007,21690171,166,928.5,947.1,4262,likertHorizontal
68,2,continuous,8,50,trial,21687773.0,21690640.0,2867.0,58,L,21690195,21690485,292,969.6,979.1,4408,likertHorizontal
68,2,continuous,8,50,trial,21687773.0,21690640.0,2867.0,58,L,21690545,21690853,310,645.8,523.9,4483,left
68,2,continuous,9,100,fixationCross,21691840.0,21694807.0,2967.0,59,L,21691047,21691541,496,988.3,361.8,4566,NA
68,2,continuous,9,100,trial,21691840.0,21694807.0,2967.0,59,L,21691569,21691967,400,991.9,463.4,4581,NA
68,2,continuous,9,100,trial,21691840.0,21694807.0,2967.0,59,L,21692011,21692315,306,562.1,490.7,4571,left
68,2,continuous,9,100,trial,21691840.0,21694807.0,2967.0,59,L,21692393,21692559,168,1416.1,498.5,4211,right
68,2,continuous,9,100,trial,21691840.0,21694807.0,2967.0,59,L,21692583,21692779,198,1539.3,502.1,4106,right
68,2,continuous,9,100,trial,21691840.0,21694807.0,2967.0,59,L,21692821,21693021,202,1543.3,703.0,4197,right
68,2,continuous,9,100,trial,21691840.0,21694807.0,2967.0,59,L,21693099,21693469,372,537.8,511.2,4376,left
68,2,continuous,9,100,trial,21691840.0,21694807.0,2967.0,59,L,21693491,21694017,528,624.7,498.5,4134,left
68,2,continuous,9,100,trial,21691840.0,21694807.0,2967.0,59,L,21694041,21694339,300,515.0,447.7,4154,left
68,2,continuous,9,100,trial,21691840.0,21694807.0,2967.0,59,L,21694419,21694601,184,1436.2,474.6,4218,right
68,2,continuous,9,100,trial,21691840.0,21694807.0,2967.0,59,L,21694627,21694861,236,1329.6,463.4,4348,right
68,2,continuous,9,100,trial,21691840.0,21694807.0,2967.0,59,L,21694921,21695063,144,1539.6,679.1,4567,right
68,2,continuous,10,49,fixationCross,21695706.0,21698940.0,3234.0,60,L,21695241,21695589,350,1038.2,518.2,4850,NA
68,2,continuous,10,49,trial,21695706.0,21698940.0,3234.0,60,L,21695623,21695867,246,943.1,523.3,4844,NA
68,2,continuous,10,49,trial,21695706.0,21698940.0,3234.0,60,L,21695921,21696117,198,476.6,534.2,4620,left
68,2,continuous,10,49,trial,21695706.0,21698940.0,3234.0,60,L,21696193,21696391,200,1452.2,490.1,4209,right
68,2,continuous,10,49,trial,21695706.0,21698940.0,3234.0,60,L,21696417,21696729,314,1595.2,505.0,4090,right
68,2,continuous,10,49,trial,21695706.0,21698940.0,3234.0,60,L,21696813,21697037,226,531.5,515.6,4441,left
68,2,continuous,10,49,trial,21695706.0,21698940.0,3234.0,60,L,21697061,21697297,238,431.9,533.1,4494,left
68,2,continuous,10,49,trial,21695706.0,21698940.0,3234.0,60,L,21697323,21697643,322,561.0,575.9,4425,left
68,2,continuous,10,49,trial,21695706.0,21698940.0,3234.0,60,L,21697789,21697985,198,723.6,921.6,4513,NA
68,2,continuous,10,49,trial,21695706.0,21698940.0,3234.0,60,L,21698023,21698207,186,1047.1,872.5,4627,likertHorizontal
68,2,continuous,10,49,trial,21695706.0,21698940.0,3234.0,60,L,21698233,21699151,920,938.3,969.0,4587,likertHorizontal
68,2,continuous,11,34,fixationCross,21700140.0,21703406.0,3266.0,61,L,21699377,21699811,436,886.5,343.6,4598,NA
68,2,continuous,11,34,trial,21700140.0,21703406.0,3266.0,61,L,21699851,21700269,420,959.1,477.2,4466,NA
68,2,continuous,11,34,trial,21700140.0,21703406.0,3266.0,61,L,21700313,21700493,182,561.4,476.2,4484,left
68,2,continuous,11,34,trial,21700140.0,21703406.0,3266.0,61,L,21700515,21700665,152,482.9,503.6,4352,left
68,2,continuous,11,34,trial,21700140.0,21703406.0,3266.0,61,L,21700747,21701101,356,1359.9,427.3,4108,right
68,2,continuous,11,34,trial,21700140.0,21703406.0,3266.0,61,L,21701125,21701323,200,1438.7,497.5,4205,right
68,2,continuous,11,34,trial,21700140.0,21703406.0,3266.0,61,L,21701349,21701591,244,1328.1,544.7,4409,right
68,2,continuous,11,34,trial,21700140.0,21703406.0,3266.0,61,L,21701615,21701925,312,1293.1,602.1,4577,right
68,2,continuous,11,34,trial,21700140.0,21703406.0,3266.0,61,L,21701999,21702159,162,548.4,462.7,4678,left
68,2,continuous,11,34,trial,21700140.0,21703406.0,3266.0,61,L,21702183,21702453,272,469.1,501.7,4483,left
68,2,continuous,11,34,trial,21700140.0,21703406.0,3266.0,61,L,21702479,21702791,314,569.1,396.7,4183,left
68,2,continuous,11,34,trial,21700140.0,21703406.0,3266.0,61,L,21702819,21702993,176,492.0,530.7,4209,left
68,2,continuous,11,34,trial,21700140.0,21703406.0,3266.0,61,L,21703005,21703233,230,489.5,513.3,4292,left
68,2,continuous,11,34,trial,21700140.0,21703406.0,3266.0,61,L,21703287,21703467,182,782.7,932.4,4318,likertHorizontal
68,2,continuous,11,34,trial,21700140.0,21703406.0,3266.0,61,L,21703483,21703615,134,805.6,964.2,4318,likertHorizontal
68,2,continuous,12,84,fixationCross,21705523.0,21707890.0,2367.0,62,L,21703821,21704869,1050,890.9,396.9,4399,NA
68,2,continuous,12,84,fixationCross,21705523.0,21707890.0,2367.0,62,L,21704889,21705157,270,990.9,379.8,4405,NA
68,2,continuous,12,84,fixationCross,21705523.0,21707890.0,2367.0,62,L,21705187,21705297,112,970.1,494.9,4417,NA
68,2,continuous,12,84,fixationCross,21705523.0,21707890.0,2367.0,62,L,21705409,21705519,112,969.7,518.8,4469,NA
68,2,continuous,12,84,trial,21705523.0,21707890.0,2367.0,62,L,21705719,21705829,112,965.9,470.4,4633,NA
68,2,continuous,12,84,trial,21705523.0,21707890.0,2367.0,62,L,21705881,21706229,350,559.5,497.0,4659,left
68,2,continuous,12,84,trial,21705523.0,21707890.0,2367.0,62,L,21706307,21706553,248,1345.4,543.9,4156,right
68,2,continuous,12,84,trial,21705523.0,21707890.0,2367.0,62,L,21706577,21706751,176,1395.6,562.2,4118,right
68,2,continuous,12,84,trial,21705523.0,21707890.0,2367.0,62,L,21706793,21707125,334,1530.6,427.2,4232,right
68,2,continuous,12,84,trial,21705523.0,21707890.0,2367.0,62,L,21707203,21707441,240,542.8,485.6,4617,left
68,2,continuous,12,84,trial,21705523.0,21707890.0,2367.0,62,L,21707475,21707745,272,657.6,511.2,4617,left
68,2,continuous,12,84,trial,21705523.0,21707890.0,2367.0,62,L,21707805,21708101,298,1287.7,933.5,4538,NA
68,2,continuous,13,100,fixationCross,21708973.0,21710940.0,1967.0,63,L,21708341,21708671,332,661.6,367.3,4718,left
68,2,continuous,13,100,trial,21708973.0,21710940.0,1967.0,63,L,21708715,21709159,446,938.2,456.6,4565,NA
68,2,continuous,13,100,trial,21708973.0,21710940.0,1967.0,63,L,21709225,21709433,210,1450.2,525.5,4349,right
68,2,continuous,13,100,trial,21708973.0,21710940.0,1967.0,63,L,21709453,21709911,460,1445.1,464.4,4227,right
68,2,continuous,13,100,trial,21708973.0,21710940.0,1967.0,63,L,21709925,21710087,164,1458.2,498.5,4293,right
68,2,continuous,13,100,trial,21708973.0,21710940.0,1967.0,63,L,21710167,21710365,200,493.2,523.5,4477,left
68,2,continuous,13,100,trial,21708973.0,21710940.0,1967.0,63,L,21710421,21710613,194,1180.5,932.2,4329,likertHorizontal
68,2,continuous,13,100,trial,21708973.0,21710940.0,1967.0,63,L,21710653,21710919,268,1417.9,978.6,4111,NA
68,2,continuous,13,100,trial,21708973.0,21710940.0,1967.0,63,L,21710977,21711229,254,1418.1,513.6,4339,right
68,2,continuous,14,58,fixationCross,21712990.0,21715957.0,2967.0,64,L,21711421,21711821,402,772.8,269.4,4724,NA
68,2,continuous,14,58,fixationCross,21712990.0,21715957.0,2967.0,64,L,21711849,21712445,598,942.3,351.2,4530,NA
68,2,continuous,14,58,fixationCross,21712990.0,21715957.0,2967.0,64,L,21712469,21712685,218,1064.5,420.9,4564,NA
68,2,continuous,14,58,fixationCross,21712990.0,21715957.0,2967.0,64,L,21712721,21712931,212,969.9,466.3,4636,NA
68,2,continuous,14,58,trial,21712990.0,21715957.0,2967.0,64,L,21712957,21713145,190,941.0,521.2,4695,NA
68,2,continuous,14,58,trial,21712990.0,21715957.0,2967.0,64,L,21713185,21713337,154,625.6,515.7,4708,left
68,2,continuous,14,58,trial,21712990.0,21715957.0,2967.0,64,L,21713407,21713689,284,1385.6,565.4,4316,right
68,2,continuous,14,58,trial,21712990.0,21715957.0,2967.0,64,L,21713713,21714227,516,1475.2,616.4,4261,right
68,2,continuous,14,58,trial,21712990.0,21715957.0,2967.0,64,L,21714301,21714579,280,678.8,565.2,4573,left
68,2,continuous,14,58,trial,21712990.0,21715957.0,2967.0,64,L,21714605,21714867,264,552.0,551.2,4400,left
68,2,continuous,14,58,trial,21712990.0,21715957.0,2967.0,64,L,21714889,21715217,330,488.0,509.9,4259,left
68,2,continuous,14,58,trial,21712990.0,21715957.0,2967.0,64,L,21715275,21715485,212,901.5,889.2,4255,likertHorizontal
68,2,continuous,14,58,trial,21712990.0,21715957.0,2967.0,64,L,21715509,21715829,322,999.9,967.2,4358,likertHorizontal
68,2,continuous,14,58,trial,21712990.0,21715957.0,2967.0,64,L,21715845,21716155,312,1052.4,971.4,4521,likertHorizontal
68,2,continuous,15,72,fixationCross,21717857.0,21721873.0,4016.0,65,L,21716365,21717557,1194,974.5,411.3,4513,NA
68,2,continuous,15,72,fixationCross,21717857.0,21721873.0,4016.0,65,L,21717575,21717745,172,974.1,459.2,4513,NA
68,2,continuous,15,72,trial,21717857.0,21721873.0,4016.0,65,L,21717773,21718001,230,933.2,523.8,4582,NA
68,2,continuous,15,72,trial,21717857.0,21721873.0,4016.0,65,L,21718047,21718259,214,483.5,505.8,4665,left
68,2,continuous,15,72,trial,21717857.0,21721873.0,4016.0,65,L,21718335,21718547,214,1351.5,557.4,4338,right
68,2,continuous,15,72,trial,21717857.0,21721873.0,4016.0,65,L,21718573,21718779,208,1521.1,543.7,4142,right
68,2,continuous,15,72,trial,21717857.0,21721873.0,4016.0,65,L,21718799,21719049,252,1583.9,493.9,4193,right
68,2,continuous,15,72,trial,21717857.0,21721873.0,4016.0,65,L,21719183,21719315,134,484.7,514.9,4387,left
68,2,continuous,15,72,trial,21717857.0,21721873.0,4016.0,65,L,21719497,21719739,244,513.3,523.9,4453,left
68,2,continuous,15,72,trial,21717857.0,21721873.0,4016.0,65,L,21719827,21720045,220,1511.9,525.7,4230,right
68,2,continuous,15,72,trial,21717857.0,21721873.0,4016.0,65,L,21720067,21720455,390,1603.9,491.0,3986,right
68,2,continuous,15,72,trial,21717857.0,21721873.0,4016.0,65,L,21720483,21720699,218,1419.1,526.4,4144,right
68,2,continuous,15,72,trial,21717857.0,21721873.0,4016.0,65,L,21720753,21721085,334,970.7,956.8,4525,likertHorizontal
68,2,continuous,15,72,trial,21717857.0,21721873.0,4016.0,65,L,21721123,21721363,242,1116.8,962.2,4459,likertHorizontal
68,2,continuous,15,72,trial,21717857.0,21721873.0,4016.0,65,L,21721395,21721499,106,1313.2,983.4,4428,NA
68,2,continuous,15,72,trial,21717857.0,21721873.0,4016.0,65,L,21721529,21721731,204,1117.6,964.8,4563,likertHorizontal
68,2,continuous,15,72,trial,21717857.0,21721873.0,4016.0,65,L,21721799,21722109,312,490.5,487.3,4604,left
68,2,continuous,16,85,fixationCross,21723673.0,21726574.0,2901.0,66,L,21722293,21723213,922,928.0,434.8,4428,NA
68,2,continuous,16,85,fixationCross,21723673.0,21726574.0,2901.0,66,L,21723237,21723483,248,1034.1,444.1,4506,NA
68,2,continuous,16,85,trial,21723673.0,21726574.0,2901.0,66,L,21723507,21723719,214,936.7,476.1,4553,NA
68,2,continuous,16,85,trial,21723673.0,21726574.0,2901.0,66,L,21723749,21723897,150,978.2,519.5,4584,NA
68,2,continuous,16,85,trial,21723673.0,21726574.0,2901.0,66,L,21723951,21724127,178,535.0,503.7,4615,left
68,2,continuous,16,85,trial,21723673.0,21726574.0,2901.0,66,L,21724147,21724327,182,598.7,473.9,4565,left
68,2,continuous,16,85,trial,21723673.0,21726574.0,2901.0,66,L,21724399,21724681,284,1405.9,547.2,4225,right
68,2,continuous,16,85,trial,21723673.0,21726574.0,2901.0,66,L,21724705,21724959,256,1356.7,597.9,4222,right
68,2,continuous,16,85,trial,21723673.0,21726574.0,2901.0,66,L,21724999,21725255,258,1533.8,631.8,4437,right
68,2,continuous,16,85,trial,21723673.0,21726574.0,2901.0,66,L,21725275,21725445,172,1567.0,653.3,4483,right
68,2,continuous,16,85,trial,21723673.0,21726574.0,2901.0,66,L,21725475,21725897,424,1332.9,590.3,4505,right
68,2,continuous,16,85,trial,21723673.0,21726574.0,2901.0,66,L,21725967,21726235,270,573.4,496.3,4734,left
68,2,continuous,16,85,trial,21723673.0,21726574.0,2901.0,66,L,21726251,21726457,208,561.4,461.0,4556,left
68,2,continuous,16,85,trial,21723673.0,21726574.0,2901.0,66,L,21726487,21726815,330,389.9,540.4,4328,left
68,2,continuous,17,21,fixationCross,21727640.0,21730307.0,2667.0,67,L,21727013,21727353,342,1060.7,505.6,4397,NA
68,2,continuous,17,21,trial,21727640.0,21730307.0,2667.0,67,L,21727387,21727777,392,941.4,520.4,4685,NA
68,2,continuous,17,21,trial,21727640.0,21730307.0,2667.0,67,L,21727831,21728289,460,488.7,513.4,4552,left
68,2,continuous,17,21,trial,21727640.0,21730307.0,2667.0,67,L,21728363,21728761,400,1384.7,504.5,4145,right
68,2,continuous,17,21,trial,21727640.0,21730307.0,2667.0,67,L,21728785,21729101,318,1463.8,563.3,4120,right
68,2,continuous,17,21,trial,21727640.0,21730307.0,2667.0,67,L,21729125,21729295,172,1416.7,483.9,4177,right
68,2,continuous,17,21,trial,21727640.0,21730307.0,2667.0,67,L,21729365,21729723,360,470.8,495.1,4302,left
68,2,continuous,17,21,trial,21727640.0,21730307.0,2667.0,67,L,21729745,21730095,352,510.2,562.0,4242,left
68,2,continuous,17,21,trial,21727640.0,21730307.0,2667.0,67,L,21730121,21730515,396,483.2,474.4,4298,left
68,2,continuous,18,28,fixationCross,21732790.0,21735024.0,2234.0,68,L,21730719,21731967,1250,937.7,343.8,4357,NA
68,2,continuous,18,28,fixationCross,21732790.0,21735024.0,2234.0,68,L,21731991,21732475,486,1027.3,401.3,4607,NA
68,2,continuous,18,28,fixationCross,21732790.0,21735024.0,2234.0,68,L,21732499,21732725,228,945.5,444.6,4777,NA
68,2,continuous,18,28,trial,21732790.0,21735024.0,2234.0,68,L,21732749,21732933,186,976.9,518.7,4753,NA
68,2,continuous,18,28,trial,21732790.0,21735024.0,2234.0,68,L,21732977,21733299,324,596.2,504.8,4592,left
68,2,continuous,18,28,trial,21732790.0,21735024.0,2234.0,68,L,21733369,21733669,302,1423.6,494.1,4132,right
68,2,continuous,18,28,trial,21732790.0,21735024.0,2234.0,68,L,21733685,21733945,262,1457.4,535.2,4008,right
68,2,continuous,18,28,trial,21732790.0,21735024.0,2234.0,68,L,21734013,21734177,166,559.0,514.2,4187,left
68,2,continuous,18,28,trial,21732790.0,21735024.0,2234.0,68,L,21734197,21734457,262,481.7,513.9,4145,left
68,2,continuous,18,28,trial,21732790.0,21735024.0,2234.0,68,L,21734485,21734863,380,643.1,499.5,4159,left
68,2,continuous,18,28,trial,21732790.0,21735024.0,2234.0,68,L,21734915,21735211,298,728.4,961.2,4397,NA
68,2,continuous,19,37,fixationCross,21736540.0,21741190.0,4650.0,69,L,21735437,21735569,134,1114.4,370.1,4239,NA
68,2,continuous,19,37,fixationCross,21736540.0,21741190.0,4650.0,69,L,21735919,21736099,182,1017.4,371.7,4421,NA
68,2,continuous,19,37,fixationCross,21736540.0,21741190.0,4650.0,69,L,21736137,21736399,264,918.6,448.2,4477,NA
68,2,continuous,19,37,trial,21736540.0,21741190.0,4650.0,69,L,21736429,21736675,248,963.2,490.8,4320,NA
68,2,continuous,19,37,trial,21736540.0,21741190.0,4650.0,69,L,21736731,21736919,190,538.9,482.0,4338,left
68,2,continuous,19,37,trial,21736540.0,21741190.0,4650.0,69,L,21736941,21737107,168,554.6,426.8,4248,left
68,2,continuous,19,37,trial,21736540.0,21741190.0,4650.0,69,L,21737179,21737557,380,1489.0,464.8,4048,right
68,2,continuous,19,37,trial,21736540.0,21741190.0,4650.0,69,L,21737623,21737785,164,554.2,403.3,4274,left
68,2,continuous,19,37,trial,21736540.0,21741190.0,4650.0,69,L,21737801,21738291,492,520.1,395.7,4209,left
68,2,continuous,19,37,trial,21736540.0,21741190.0,4650.0,69,L,21738321,21738547,228,539.1,510.4,4275,left
68,2,continuous,19,37,trial,21736540.0,21741190.0,4650.0,69,L,21738603,21738765,164,1177.6,933.7,4392,likertHorizontal
68,2,continuous,19,37,trial,21736540.0,21741190.0,4650.0,69,L,21738831,21739359,530,1448.7,497.2,4265,right
68,2,continuous,19,37,trial,21736540.0,21741190.0,4650.0,69,L,21739375,21739695,322,1483.5,470.0,4331,right
68,2,continuous,19,37,trial,21736540.0,21741190.0,4650.0,69,L,21739757,21740097,342,935.7,905.4,4588,likertHorizontal
68,2,continuous,19,37,trial,21736540.0,21741190.0,4650.0,69,L,21740131,21740449,320,854.8,988.6,4620,likertHorizontal
68,2,continuous,19,37,trial,21736540.0,21741190.0,4650.0,69,L,21740507,21740661,156,533.1,440.1,4600,left
68,2,continuous,19,37,trial,21736540.0,21741190.0,4650.0,69,L,21740681,21741409,730,526.6,407.8,4374,left
68,2,continuous,20,83,fixationCross,21743040.0,21747607.0,4567.0,70,L,21741779,21741989,212,1148.9,378.2,4597,NA
68,2,continuous,20,83,trial,21743040.0,21747607.0,4567.0,70,L,21742019,21743185,1168,971.5,440.0,4598,NA
68,2,continuous,20,83,trial,21743040.0,21747607.0,4567.0,70,L,21743237,21743421,186,521.3,477.1,4662,left
68,2,continuous,20,83,trial,21743040.0,21747607.0,4567.0,70,L,21743443,21743605,164,412.4,449.5,4482,left
68,2,continuous,20,83,trial,21743040.0,21747607.0,4567.0,70,L,21743687,21744079,394,1411.3,495.8,4112,right
68,2,continuous,20,83,trial,21743040.0,21747607.0,4567.0,70,L,21744099,21744307,210,1459.6,540.9,4209,right
68,2,continuous,20,83,trial,21743040.0,21747607.0,4567.0,70,L,21744337,21744465,130,1342.3,676.7,4331,right
68,2,continuous,20,83,trial,21743040.0,21747607.0,4567.0,70,L,21744545,21744741,198,479.5,480.5,4330,left
68,2,continuous,20,83,trial,21743040.0,21747607.0,4567.0,70,L,21744763,21744943,182,400.7,471.1,4173,left
68,2,continuous,20,83,trial,21743040.0,21747607.0,4567.0,70,L,21744979,21745301,324,599.9,670.4,4110,left
68,2,continuous,20,83,trial,21743040.0,21747607.0,4567.0,70,L,21745347,21745485,140,428.8,464.1,4163,left
68,2,continuous,20,83,trial,21743040.0,21747607.0,4567.0,70,L,21745573,21745901,330,1468.3,543.3,4108,right
68,2,continuous,20,83,trial,21743040.0,21747607.0,4567.0,70,L,21745927,21746215,290,1336.6,624.1,4064,right
68,2,continuous,20,83,trial,21743040.0,21747607.0,4567.0,70,L,21746241,21746337,98,1397.0,676.9,4135,right
68,2,continuous,20,83,trial,21743040.0,21747607.0,4567.0,70,L,21746407,21746637,232,444.5,464.6,4322,left
68,2,continuous,20,83,trial,21743040.0,21747607.0,4567.0,70,L,21746657,21746791,136,403.3,464.9,4302,left
68,2,continuous,20,83,trial,21743040.0,21747607.0,4567.0,70,L,21746873,21747049,178,1365.4,937.9,4149,NA
68,2,continuous,20,83,trial,21743040.0,21747607.0,4567.0,70,L,21747073,21747295,224,1422.6,973.8,4084,NA
68,2,continuous,20,83,trial,21743040.0,21747607.0,4567.0,70,L,21747323,21747529,208,1243.4,949.1,4192,NA
68,2,continuous,20,83,trial,21743040.0,21747607.0,4567.0,70,L,21747551,21747819,270,1285.2,973.2,4386,NA
68,2,continuous,21,76,fixationCross,21748807.0,21752740.0,3933.0,71,L,21748047,21748487,442,869.6,443.9,4501,NA
68,2,continuous,21,76,trial,21748807.0,21752740.0,3933.0,71,L,21748521,21748937,418,974.8,457.8,4316,NA
68,2,continuous,21,76,trial,21748807.0,21752740.0,3933.0,71,L,21748981,21749277,298,535.8,495.1,4334,left
68,2,continuous,21,76,trial,21748807.0,21752740.0,3933.0,71,L,21749357,21749595,240,1405.3,539.5,3935,right
68,2,continuous,21,76,trial,21748807.0,21752740.0,3933.0,71,L,21749623,21749823,202,1559.1,573.1,3855,right
68,2,continuous,21,76,trial,21748807.0,21752740.0,3933.0,71,L,21749847,21750005,160,1619.1,591.2,3960,right
68,2,continuous,21,76,trial,21748807.0,21752740.0,3933.0,71,L,21750033,21750353,322,1406.9,636.6,4178,right
68,2,continuous,21,76,trial,21748807.0,21752740.0,3933.0,71,L,21750433,21751131,700,501.5,513.1,4298,left
68,2,continuous,21,76,trial,21748807.0,21752740.0,3933.0,71,L,21751209,21751433,226,1407.5,554.2,4005,right
68,2,continuous,21,76,trial,21748807.0,21752740.0,3933.0,71,L,21751461,21751743,284,1578.1,583.6,3980,right
68,2,continuous,21,76,trial,21748807.0,21752740.0,3933.0,71,L,21751781,21752009,230,1371.2,616.7,4166,right
68,2,continuous,21,76,trial,21748807.0,21752740.0,3933.0,71,L,21752091,21752563,474,454.5,499.2,4215,left
68,2,continuous,21,76,trial,21748807.0,21752740.0,3933.0,71,L,21752647,21752993,348,1475.9,594.1,3817,right
68,2,continuous,22,69,fixationCross,21753840.0,21757991.0,4151.0,72,L,21753183,21753525,344,1285.5,457.9,4120,right
68,2,continuous,22,69,trial,21753840.0,21757991.0,4151.0,72,L,21753573,21753975,404,938.7,499.5,4414,NA
68,2,continuous,22,69,trial,21753840.0,21757991.0,4151.0,72,L,21754025,21754373,350,551.5,512.3,4407,left
68,2,continuous,22,69,trial,21753840.0,21757991.0,4151.0,72,L,21754395,21754639,246,504.4,546.0,4282,left
68,2,continuous,22,69,trial,21753840.0,21757991.0,4151.0,72,L,21754667,21754807,142,615.5,483.1,4296,left
68,2,continuous,22,69,trial,21753840.0,21757991.0,4151.0,72,L,21754877,21755181,306,1411.3,490.3,4175,right
68,2,continuous,22,69,trial,21753840.0,21757991.0,4151.0,72,L,21755207,21755639,434,1494.0,492.3,4266,right
68,2,continuous,22,69,trial,21753840.0,21757991.0,4151.0,72,L,21755715,21756107,394,504.6,496.7,4540,left
68,2,continuous,22,69,trial,21753840.0,21757991.0,4151.0,72,L,21756129,21756397,270,437.1,500.0,4380,left
68,2,continuous,22,69,trial,21753840.0,21757991.0,4151.0,72,L,21756427,21756555,130,621.5,523.8,4366,left
68,2,continuous,22,69,trial,21753840.0,21757991.0,4151.0,72,L,21756623,21756995,374,1414.5,523.5,4322,right
68,2,continuous,22,69,trial,21753840.0,21757991.0,4151.0,72,L,21757021,21757289,270,1488.2,529.1,4409,right
68,2,continuous,22,69,trial,21753840.0,21757991.0,4151.0,72,L,21757351,21757503,154,1088.4,971.5,4538,likertHorizontal
68,2,continuous,22,69,trial,21753840.0,21757991.0,4151.0,72,L,21757527,21757755,230,986.5,974.2,4515,likertHorizontal
68,2,continuous,22,69,trial,21753840.0,21757991.0,4151.0,72,L,21757815,21758191,378,521.1,521.0,4368,left
68,2,continuous,23,16,fixationCross,21760307.0,21762674.0,2367.0,73,L,21758423,21758643,222,1144.5,698.8,4288,NA
68,2,continuous,23,16,fixationCross,21760307.0,21762674.0,2367.0,73,L,21758703,21759253,552,901.5,404.0,4514,NA
68,2,continuous,23,16,fixationCross,21760307.0,21762674.0,2367.0,73,L,21759279,21760021,744,1010.0,438.4,4567,NA
68,2,continuous,23,16,fixationCross,21760307.0,21762674.0,2367.0,73,L,21760045,21760223,180,933.4,451.4,4776,NA
68,2,continuous,23,16,trial,21760307.0,21762674.0,2367.0,73,L,21760245,21760451,208,948.0,524.7,4782,NA
68,2,continuous,23,16,trial,21760307.0,21762674.0,2367.0,73,L,21760497,21760789,294,491.6,520.3,4691,left
68,2,continuous,23,16,trial,21760307.0,21762674.0,2367.0,73,L,21760861,21761167,308,1352.8,510.4,4166,right
68,2,continuous,23,16,trial,21760307.0,21762674.0,2367.0,73,L,21761187,21761629,444,1423.7,492.2,4122,right
68,2,continuous,23,16,trial,21760307.0,21762674.0,2367.0,73,L,21761707,21761847,142,555.1,525.8,4424,left
68,2,continuous,23,16,trial,21760307.0,21762674.0,2367.0,73,L,21761867,21762335,470,479.2,528.1,4267,left
68,2,continuous,23,16,trial,21760307.0,21762674.0,2367.0,73,L,21762391,21762617,228,620.9,969.7,4185,NA
68,2,continuous,23,16,trial,21760307.0,21762674.0,2367.0,73,L,21762685,21762849,166,512.3,534.9,4201,left
68,2,continuous,24,67,fixationCross,21765190.0,21771157.0,5967.0,74,L,21763081,21764175,1096,1016.1,398.8,4406,NA
68,2,continuous,24,67,fixationCross,21765190.0,21771157.0,5967.0,74,L,21764197,21764623,428,952.6,423.5,4502,NA
68,2,continuous,24,67,fixationCross,21765190.0,21771157.0,5967.0,74,L,21764645,21764891,248,1008.8,447.8,4599,NA
68,2,continuous,24,67,trial,21765190.0,21771157.0,5967.0,74,L,21764921,21765251,332,954.4,490.3,4619,NA
68,2,continuous,24,67,trial,21765190.0,21771157.0,5967.0,74,L,21765275,21765329,56,1044.5,459.9,4595,NA
68,2,continuous,24,67,trial,21765190.0,21771157.0,5967.0,74,L,21765371,21765547,178,642.5,473.1,4583,left
68,2,continuous,24,67,trial,21765190.0,21771157.0,5967.0,74,L,21765573,21765777,206,480.5,500.5,4432,left
68,2,continuous,24,67,trial,21765190.0,21771157.0,5967.0,74,L,21765795,21766049,256,425.1,520.5,4290,left
68,2,continuous,24,67,trial,21765190.0,21771157.0,5967.0,74,L,21766131,21766421,292,1426.0,480.0,4114,right
68,2,continuous,24,67,trial,21765190.0,21771157.0,5967.0,74,L,21766451,21766739,290,1442.6,569.7,4135,right
68,2,continuous,24,67,trial,21765190.0,21771157.0,5967.0,74,L,21766817,21767051,236,531.7,487.6,4373,left
68,2,continuous,24,67,trial,21765190.0,21771157.0,5967.0,74,L,21767075,21767541,468,427.1,519.9,4237,left
68,2,continuous,24,67,trial,21765190.0,21771157.0,5967.0,74,L,21767715,21768061,348,1464.9,528.8,4106,right
68,2,continuous,24,67,trial,21765190.0,21771157.0,5967.0,74,L,21768087,21768355,270,1421.4,612.0,4252,right
68,2,continuous,24,67,trial,21765190.0,21771157.0,5967.0,74,L,21768383,21768613,232,1466.1,522.2,4272,right
68,2,continuous,24,67,trial,21765190.0,21771157.0,5967.0,74,L,21768687,21768899,214,530.5,458.9,4377,left
68,2,continuous,24,67,trial,21765190.0,21771157.0,5967.0,74,L,21768923,21769333,412,440.3,497.2,4287,left
68,2,continuous,24,67,trial,21765190.0,21771157.0,5967.0,74,L,21769365,21769511,148,628.6,464.3,4264,left
68,2,continuous,24,67,trial,21765190.0,21771157.0,5967.0,74,L,21769573,21769703,132,883.8,932.0,4349,likertHorizontal
68,2,continuous,24,67,trial,21765190.0,21771157.0,5967.0,74,L,21769727,21769879,154,969.7,980.1,4378,likertHorizontal
68,2,continuous,24,67,trial,21765190.0,21771157.0,5967.0,74,L,21769937,21770261,326,1445.5,555.7,4298,right
68,2,continuous,24,67,trial,21765190.0,21771157.0,5967.0,74,L,21770283,21770663,382,1408.6,615.5,4396,right
68,2,continuous,24,67,trial,21765190.0,21771157.0,5967.0,74,L,21770713,21770921,210,1007.9,976.0,4640,likertHorizontal
68,2,continuous,24,67,trial,21765190.0,21771157.0,5967.0,74,L,21770943,21771089,148,1094.4,964.0,4620,likertHorizontal
68,2,continuous,24,67,trial,21765190.0,21771157.0,5967.0,74,L,21771161,21771385,226,529.3,480.9,4438,left
68,2,continuous,25,27,fixationCross,21772257.0,21775124.0,2867.0,75,L,21771575,21771933,360,611.8,322.1,4294,NA
68,2,continuous,25,27,trial,21772257.0,21775124.0,2867.0,75,L,21771983,21772405,424,953.3,452.2,4342,NA
68,2,continuous,25,27,trial,21772257.0,21775124.0,2867.0,75,L,21772459,21772625,168,548.8,494.1,4410,left
68,2,continuous,25,27,trial,21772257.0,21775124.0,2867.0,75,L,21772647,21772917,272,455.9,552.4,4384,left
68,2,continuous,25,27,trial,21772257.0,21775124.0,2867.0,75,L,21772999,21773399,402,1347.1,456.5,4224,right
68,2,continuous,25,27,trial,21772257.0,21775124.0,2867.0,75,L,21773427,21773813,388,1371.5,566.9,4401,right
68,2,continuous,25,27,trial,21772257.0,21775124.0,2867.0,75,L,21773891,21774087,198,489.6,588.1,4669,left
68,2,continuous,25,27,trial,21772257.0,21775124.0,2867.0,75,L,21774113,21774271,160,362.5,568.9,4587,left
68,2,continuous,25,27,trial,21772257.0,21775124.0,2867.0,75,L,21774283,21774597,316,339.9,554.0,4384,left
68,2,continuous,25,27,trial,21772257.0,21775124.0,2867.0,75,L,21774655,21775023,370,760.3,903.4,4350,likertHorizontal
68,2,continuous,25,27,trial,21772257.0,21775124.0,2867.0,75,L,21775047,21775285,240,717.0,964.3,4459,NA
