participantNo,block,task,blockTrial,response,trialStage,trialStartTime,trialFinishTime,rt,trial,eye,fixStart,fixEnd,fixLength,fixPosX,fixPosY,dilation,aoi
47,1,continuous,1,50,fixationCross,2084453.0,2087403.0,2950.0,1,L,2074023,2074295,274,1051.5,872.4,5991,likertHorizontal
47,1,continuous,1,50,fixationCross,2084453.0,2087403.0,2950.0,1,L,2074343,2074463,122,824.0,670.5,6074,NA
47,1,continuous,1,50,fixationCross,2084453.0,2087403.0,2950.0,1,L,2074491,2074655,166,919.8,571.3,6062,NA
47,1,continuous,1,50,trial,2084453.0,2087403.0,2950.0,1,L,2074665,2084935,10272,933.9,543.2,6006,NA
47,1,continuous,1,50,trial,2084453.0,2087403.0,2950.0,1,L,2084975,2085281,308,1282.7,535.2,4498,right
47,1,continuous,1,50,trial,2084453.0,2087403.0,2950.0,1,L,2085297,2085445,150,1339.9,529.7,4397,right
47,1,continuous,1,50,trial,2084453.0,2087403.0,2950.0,1,L,2085461,2085637,178,1402.4,538.8,4386,right
47,1,continuous,1,50,trial,2084453.0,2087403.0,2950.0,1,L,2085691,2085859,170,760.7,434.4,4398,NA
47,1,continuous,1,50,trial,2084453.0,2087403.0,2950.0,1,L,2085879,2086113,236,659.3,440.5,4424,left
47,1,continuous,1,50,trial,2084453.0,2087403.0,2950.0,1,L,2086123,2086331,210,627.8,443.3,4422,left
47,1,continuous,1,50,trial,2084453.0,2087403.0,2950.0,1,L,2086397,2086919,524,1436.0,550.9,4373,right
47,1,continuous,1,50,trial,2084453.0,2087403.0,2950.0,1,L,2086989,2087177,190,578.1,471.4,4360,left
47,1,continuous,1,50,postResponse,2084453.0,2087403.0,2950.0,1,L,2087193,2087767,576,624.6,452.4,4331,left
47,1,continuous,2,48,fixationCross,2098136.0,2102403.0,4267.0,2,L,2087841,2088195,356,979.5,685.1,5022,NA
47,1,continuous,2,48,fixationCross,2098136.0,2102403.0,4267.0,2,L,2088221,2090029,1810,962.0,555.6,5583,NA
47,1,continuous,2,48,fixationCross,2098136.0,2102403.0,4267.0,2,L,2090043,2090199,158,982.3,569.8,5675,NA
47,1,continuous,2,48,fixationCross,2098136.0,2102403.0,4267.0,2,L,2090209,2094235,4028,965.1,541.4,5698,NA
47,1,continuous,2,48,fixationCross,2098136.0,2102403.0,4267.0,2,L,2094247,2094733,488,983.6,536.0,5751,NA
47,1,continuous,2,48,trial,2098136.0,2102403.0,4267.0,2,L,2094743,2100351,5610,967.1,535.8,5532,NA
47,1,continuous,2,48,trial,2098136.0,2102403.0,4267.0,2,L,2100371,2100833,464,911.3,531.7,5227,NA
47,1,continuous,2,48,trial,2098136.0,2102403.0,4267.0,2,L,2100875,2101183,310,1245.8,510.4,5396,right
47,1,continuous,2,48,trial,2098136.0,2102403.0,4267.0,2,L,2101235,2101371,138,991.1,928.5,5266,likertHorizontal
47,1,continuous,2,48,trial,2098136.0,2102403.0,4267.0,2,L,2101397,2101697,302,929.6,981.8,5225,likertHorizontal
47,1,continuous,2,48,trial,2098136.0,2102403.0,4267.0,2,L,2101745,2102203,460,1404.2,601.4,5117,right
47,1,continuous,2,48,postResponse,2098136.0,2102403.0,4267.0,2,L,2102239,2102771,534,1209.0,567.6,5333,right
47,1,continuous,3,72,fixationCross,2113170.0,2116887.0,3717.0,3,L,2102873,2103209,338,1011.6,606.6,5708,NA
47,1,continuous,3,72,fixationCross,2113170.0,2116887.0,3717.0,3,L,2103233,2103685,454,968.4,531.0,5809,NA
47,1,continuous,3,72,fixationCross,2113170.0,2116887.0,3717.0,3,L,2103699,2103719,22,974.6,546.8,5809,NA
47,1,continuous,3,72,fixationCross,2113170.0,2116887.0,3717.0,3,L,2103813,2104113,302,966.8,534.8,5785,NA
47,1,continuous,3,72,fixationCross,2113170.0,2116887.0,3717.0,3,L,2104225,2105311,1088,962.6,542.6,5666,NA
47,1,continuous,3,72,fixationCross,2113170.0,2116887.0,3717.0,3,L,2105435,2105793,360,931.9,531.2,6005,NA
47,1,continuous,3,72,fixationCross,2113170.0,2116887.0,3717.0,3,L,2105945,2106059,116,897.9,681.6,6125,NA
47,1,continuous,3,72,fixationCross,2113170.0,2116887.0,3717.0,3,L,2106099,2106243,146,921.3,521.0,6059,NA
47,1,continuous,3,72,fixationCross,2113170.0,2116887.0,3717.0,3,L,2106263,2107561,1300,951.9,528.3,5902,NA
47,1,continuous,3,72,fixationCross,2113170.0,2116887.0,3717.0,3,L,2107707,2108033,328,959.2,465.4,5873,NA
47,1,continuous,3,72,fixationCross,2113170.0,2116887.0,3717.0,3,L,2108051,2108319,270,951.9,525.7,5884,NA
47,1,continuous,3,72,fixationCross,2113170.0,2116887.0,3717.0,3,L,2108673,2108775,104,840.0,496.1,5754,NA
47,1,continuous,3,72,fixationCross,2113170.0,2116887.0,3717.0,3,L,2108799,2110005,1208,952.4,459.4,5585,NA
47,1,continuous,3,72,fixationCross,2113170.0,2116887.0,3717.0,3,L,2110171,2111079,910,927.3,496.0,5830,NA
47,1,continuous,3,72,fixationCross,2113170.0,2116887.0,3717.0,3,L,2111223,2111507,286,929.0,492.5,5728,NA
47,1,continuous,3,72,fixationCross,2113170.0,2116887.0,3717.0,3,L,2111517,2112163,648,957.5,513.9,5753,NA
47,1,continuous,3,72,fixationCross,2113170.0,2116887.0,3717.0,3,L,2112173,2112829,658,942.6,533.8,5961,NA
47,1,continuous,3,72,trial,2113170.0,2116887.0,3717.0,3,L,2112961,2113479,520,956.2,507.8,5889,NA
47,1,continuous,3,72,trial,2113170.0,2116887.0,3717.0,3,L,2113521,2113785,266,1296.0,500.9,4911,right
47,1,continuous,3,72,trial,2113170.0,2116887.0,3717.0,3,L,2113797,2113985,190,1343.7,493.9,4538,right
47,1,continuous,3,72,trial,2113170.0,2116887.0,3717.0,3,L,2114043,2114453,412,670.8,486.2,4275,left
47,1,continuous,3,72,trial,2113170.0,2116887.0,3717.0,3,L,2114507,2114689,184,1012.1,988.2,4434,likertHorizontal
47,1,continuous,3,72,trial,2113170.0,2116887.0,3717.0,3,L,2114721,2114823,104,822.4,1008.1,4550,likertHorizontal
47,1,continuous,3,72,trial,2113170.0,2116887.0,3717.0,3,L,2114863,2115115,254,533.3,1048.5,4646,NA
47,1,continuous,3,72,trial,2113170.0,2116887.0,3717.0,3,L,2115163,2115319,158,981.0,997.7,4817,likertHorizontal
47,1,continuous,3,72,trial,2113170.0,2116887.0,3717.0,3,L,2115377,2115543,168,1427.6,1053.2,4947,NA
47,1,continuous,3,72,trial,2113170.0,2116887.0,3717.0,3,L,2115589,2115819,232,1384.8,570.6,4991,right
47,1,continuous,3,72,trial,2113170.0,2116887.0,3717.0,3,L,2115839,2116373,536,1376.8,511.6,4863,right
47,1,continuous,3,72,trial,2113170.0,2116887.0,3717.0,3,L,2116427,2116667,242,804.6,494.5,4740,NA
47,1,continuous,3,72,trial,2113170.0,2116887.0,3717.0,3,L,2116723,2116923,202,1423.9,502.7,4556,right
47,1,continuous,3,72,postResponse,2113170.0,2116887.0,3717.0,3,L,2116941,2117227,288,1380.5,499.0,4531,right
47,1,continuous,4,66,fixationCross,2127587.0,2131870.0,4283.0,4,L,2117329,2117401,74,1375.2,502.3,4631,right
47,1,continuous,4,66,fixationCross,2127587.0,2131870.0,4283.0,4,L,2117527,2117659,134,1089.9,880.9,5061,likertHorizontal
47,1,continuous,4,66,fixationCross,2127587.0,2131870.0,4283.0,4,L,2117807,2117919,114,1017.1,548.1,5345,NA
47,1,continuous,4,66,fixationCross,2127587.0,2131870.0,4283.0,4,L,2117939,2118241,304,963.6,535.2,5578,NA
47,1,continuous,4,66,fixationCross,2127587.0,2131870.0,4283.0,4,L,2118251,2118593,344,964.6,544.1,5498,NA
47,1,continuous,4,66,fixationCross,2127587.0,2131870.0,4283.0,4,L,2118739,2118943,206,961.0,473.1,5455,NA
47,1,continuous,4,66,fixationCross,2127587.0,2131870.0,4283.0,4,L,2118955,2121255,2302,969.6,535.7,5714,NA
47,1,continuous,4,66,fixationCross,2127587.0,2131870.0,4283.0,4,L,2121395,2122603,1210,953.3,533.7,5753,NA
47,1,continuous,4,66,fixationCross,2127587.0,2131870.0,4283.0,4,L,2122783,2125601,2820,951.4,532.5,5864,NA
47,1,continuous,4,66,fixationCross,2127587.0,2131870.0,4283.0,4,L,2125753,2126013,262,950.5,516.2,5827,NA
47,1,continuous,4,66,trial,2127587.0,2131870.0,4283.0,4,L,2126023,2127909,1888,943.4,536.7,5740,NA
47,1,continuous,4,66,trial,2127587.0,2131870.0,4283.0,4,L,2127947,2128315,370,1189.2,513.8,4833,right
47,1,continuous,4,66,trial,2127587.0,2131870.0,4283.0,4,L,2128357,2128571,216,841.7,502.1,4554,NA
47,1,continuous,4,66,trial,2127587.0,2131870.0,4283.0,4,L,2128605,2128985,382,661.4,525.0,4770,left
47,1,continuous,4,66,trial,2127587.0,2131870.0,4283.0,4,L,2129005,2129205,202,597.2,572.2,4772,left
47,1,continuous,4,66,trial,2127587.0,2131870.0,4283.0,4,L,2129261,2129431,172,1234.6,542.7,4626,right
47,1,continuous,4,66,trial,2127587.0,2131870.0,4283.0,4,L,2129455,2130103,650,1391.2,545.6,4399,right
47,1,continuous,4,66,trial,2127587.0,2131870.0,4283.0,4,L,2130167,2130409,244,687.5,519.4,4517,left
47,1,continuous,4,66,trial,2127587.0,2131870.0,4283.0,4,L,2130457,2130609,154,1044.2,930.5,4532,likertHorizontal
47,1,continuous,4,66,trial,2127587.0,2131870.0,4283.0,4,L,2130657,2131051,396,1327.5,563.7,4545,right
47,1,continuous,4,66,trial,2127587.0,2131870.0,4283.0,4,L,2131069,2131691,624,1416.1,560.3,4681,right
47,1,continuous,4,66,trial,2127587.0,2131870.0,4283.0,4,L,2131725,2131915,192,1252.0,556.0,4765,right
47,1,continuous,4,66,postResponse,2127587.0,2131870.0,4283.0,4,L,2131939,2132227,290,1375.8,542.0,4833,right
47,1,continuous,5,21,fixationCross,2142603.0,2144804.0,2201.0,5,L,2132331,2132541,212,1341.0,526.2,5076,right
47,1,continuous,5,21,fixationCross,2142603.0,2144804.0,2201.0,5,L,2132631,2132795,166,949.3,800.0,5391,likertHorizontal
47,1,continuous,5,21,fixationCross,2142603.0,2144804.0,2201.0,5,L,2132833,2133049,218,977.5,562.8,5464,NA
47,1,continuous,5,21,fixationCross,2142603.0,2144804.0,2201.0,5,L,2133261,2133753,494,969.2,523.9,5527,NA
47,1,continuous,5,21,fixationCross,2142603.0,2144804.0,2201.0,5,L,2133773,2133933,162,945.5,491.7,5484,NA
47,1,continuous,5,21,fixationCross,2142603.0,2144804.0,2201.0,5,L,2133945,2134133,190,969.7,511.1,5484,NA
47,1,continuous,5,21,fixationCross,2142603.0,2144804.0,2201.0,5,L,2134337,2134439,104,920.2,462.4,5611,NA
47,1,continuous,5,21,fixationCross,2142603.0,2144804.0,2201.0,5,L,2134451,2135889,1440,950.2,490.7,5467,NA
47,1,continuous,5,21,fixationCross,2142603.0,2144804.0,2201.0,5,L,2135899,2136043,146,936.6,511.8,5755,NA
47,1,continuous,5,21,fixationCross,2142603.0,2144804.0,2201.0,5,L,2136207,2136405,200,923.1,492.1,5726,NA
47,1,continuous,5,21,fixationCross,2142603.0,2144804.0,2201.0,5,L,2136415,2139471,3058,947.9,519.3,5707,NA
47,1,continuous,5,21,trial,2142603.0,2144804.0,2201.0,5,L,2139489,2143795,4308,942.5,527.7,5685,NA
47,1,continuous,5,21,trial,2142603.0,2144804.0,2201.0,5,L,2143835,2143971,138,667.4,495.0,5185,left
47,1,continuous,5,21,trial,2142603.0,2144804.0,2201.0,5,L,2143997,2144545,550,533.5,458.7,5113,left
47,1,continuous,5,21,trial,2142603.0,2144804.0,2201.0,5,L,2144593,2144737,146,938.7,417.9,4881,NA
47,1,continuous,5,21,postResponse,2142603.0,2144804.0,2201.0,5,L,2144779,2145143,366,631.3,426.7,4789,left
47,1,continuous,6,27,fixationCross,2145521.0,2147536.0,2015.0,6,L,2145259,2145389,132,555.5,455.8,4859,left
47,1,continuous,6,27,trial,2145521.0,2147536.0,2015.0,6,L,2145509,2145781,274,660.7,546.7,5300,left
47,1,continuous,6,27,trial,2145521.0,2147536.0,2015.0,6,L,2145843,2146079,238,1246.3,523.9,5051,right
47,1,continuous,6,27,trial,2145521.0,2147536.0,2015.0,6,L,2146125,2146533,410,783.6,445.5,4674,NA
47,1,continuous,6,27,trial,2145521.0,2147536.0,2015.0,6,L,2146581,2146731,152,1154.8,498.3,4998,NA
47,1,continuous,6,27,trial,2145521.0,2147536.0,2015.0,6,L,2146767,2147003,238,1361.5,533.0,5072,right
47,1,continuous,6,27,trial,2145521.0,2147536.0,2015.0,6,L,2147019,2147167,150,1410.1,530.2,5084,right
47,1,continuous,6,27,postResponse,2145521.0,2147536.0,2015.0,6,L,2147233,2147857,626,514.7,488.0,5025,left
47,1,continuous,7,21,fixationCross,2148237.0,2150370.0,2133.0,7,L,2147947,2148151,206,705.7,514.5,4949,left
47,1,continuous,7,21,trial,2148237.0,2150370.0,2133.0,7,L,2148259,2148481,224,884.7,429.6,5385,NA
47,1,continuous,7,21,trial,2148237.0,2150370.0,2133.0,7,L,2148539,2148765,228,1324.4,490.0,5262,right
47,1,continuous,7,21,trial,2148237.0,2150370.0,2133.0,7,L,2148809,2149377,570,930.7,560.8,4786,NA
47,1,continuous,7,21,trial,2148237.0,2150370.0,2133.0,7,L,2149413,2149781,370,1122.0,540.5,4655,NA
47,1,continuous,7,21,trial,2148237.0,2150370.0,2133.0,7,L,2149823,2149873,52,764.9,535.8,4835,NA
47,1,continuous,7,21,trial,2148237.0,2150370.0,2133.0,7,L,2149901,2150683,784,611.6,542.5,4787,left
47,1,continuous,8,84,fixationCross,2151087.0,2152887.0,1800.0,8,L,2150817,2150953,138,863.6,538.2,4533,NA
47,1,continuous,8,84,trial,2151087.0,2152887.0,1800.0,8,L,2150985,2151217,234,1119.7,496.3,4945,NA
47,1,continuous,8,84,trial,2151087.0,2152887.0,1800.0,8,L,2151263,2151783,522,734.7,479.5,4980,left
47,1,continuous,8,84,trial,2151087.0,2152887.0,1800.0,8,L,2151835,2152095,262,1364.5,511.3,4460,right
47,1,continuous,8,84,trial,2151087.0,2152887.0,1800.0,8,L,2152123,2152873,752,1509.5,485.4,4386,right
47,1,continuous,8,84,postResponse,2151087.0,2152887.0,1800.0,8,L,2152921,2153235,316,1011.3,461.7,4734,NA
47,1,continuous,9,76,trial,2153570.0,2154787.0,1217.0,9,L,2153391,2153639,250,741.9,421.0,5209,NA
47,1,continuous,9,76,trial,2153570.0,2154787.0,1217.0,9,L,2153677,2154517,842,1033.0,492.8,4866,NA
47,1,continuous,9,76,trial,2153570.0,2154787.0,1217.0,9,L,2154559,2154751,194,1354.3,460.0,4689,right
47,1,continuous,9,76,postResponse,2153570.0,2154787.0,1217.0,9,L,2154771,2155125,356,1455.2,458.7,4617,right
47,1,continuous,10,11,trial,2155471.0,2156471.0,1000.0,10,L,2155203,2156351,1150,1018.0,483.6,4780,NA
47,1,continuous,10,11,postResponse,2155471.0,2156471.0,1000.0,10,L,2156395,2156819,426,690.0,521.3,4629,left
47,1,continuous,11,7,trial,2157154.0,2158754.0,1600.0,11,L,2156921,2157193,274,810.3,438.9,4698,NA
47,1,continuous,11,7,trial,2157154.0,2158754.0,1600.0,11,L,2157225,2157591,368,1045.8,506.8,5012,NA
47,1,continuous,11,7,trial,2157154.0,2158754.0,1600.0,11,L,2157625,2157973,350,1200.8,510.0,4575,right
47,1,continuous,11,7,trial,2157154.0,2158754.0,1600.0,11,L,2158019,2158199,182,837.6,508.4,4531,NA
47,1,continuous,11,7,trial,2157154.0,2158754.0,1600.0,11,L,2158235,2158661,428,624.3,513.1,4444,left
47,1,continuous,11,7,postResponse,2157154.0,2158754.0,1600.0,11,L,2158677,2159089,414,552.7,484.5,4133,left
47,1,continuous,12,76,fixationCross,2159437.0,2161237.0,1800.0,12,L,2159165,2159187,24,554.8,487.0,4063,left
47,1,continuous,12,76,trial,2159437.0,2161237.0,1800.0,12,L,2159283,2159579,298,1037.7,456.7,4349,NA
47,1,continuous,12,76,trial,2159437.0,2161237.0,1800.0,12,L,2159633,2159989,358,1381.7,519.2,4600,right
47,1,continuous,12,76,trial,2159437.0,2161237.0,1800.0,12,L,2160003,2160187,186,1428.7,525.2,4377,right
47,1,continuous,12,76,trial,2159437.0,2161237.0,1800.0,12,L,2160255,2160647,394,555.7,509.5,4262,left
47,1,continuous,12,76,postResponse,2159437.0,2161237.0,1800.0,12,L,2160717,2161587,872,1509.0,528.1,4402,right
47,1,continuous,13,21,trial,2161920.0,2163720.0,1800.0,13,L,2161661,2161999,340,926.3,553.5,4890,NA
47,1,continuous,13,21,trial,2161920.0,2163720.0,1800.0,13,L,2162017,2162247,232,974.4,544.3,5168,NA
47,1,continuous,13,21,trial,2161920.0,2163720.0,1800.0,13,L,2162293,2162615,324,1330.4,525.6,4580,right
47,1,continuous,13,21,trial,2161920.0,2163720.0,1800.0,13,L,2162675,2163219,546,654.1,530.3,4361,left
47,1,continuous,13,21,trial,2161920.0,2163720.0,1800.0,13,L,2163275,2163499,226,1350.2,535.2,4294,right
47,1,continuous,13,21,trial,2161920.0,2163720.0,1800.0,13,L,2163515,2164033,520,1438.6,517.7,4228,right
47,1,continuous,14,13,trial,2164421.0,2166820.0,2399.0,14,L,2164177,2164481,306,886.7,477.1,4535,NA
47,1,continuous,14,13,trial,2164421.0,2166820.0,2399.0,14,L,2164509,2164675,168,1009.1,511.0,4877,NA
47,1,continuous,14,13,trial,2164421.0,2166820.0,2399.0,14,L,2164729,2165193,466,1397.0,511.1,4575,right
47,1,continuous,14,13,trial,2164421.0,2166820.0,2399.0,14,L,2165233,2165449,218,1119.8,498.1,4403,NA
47,1,continuous,14,13,trial,2164421.0,2166820.0,2399.0,14,L,2165487,2165683,198,863.0,519.4,4634,NA
47,1,continuous,14,13,trial,2164421.0,2166820.0,2399.0,14,L,2165707,2166561,856,987.2,515.9,5000,NA
47,1,continuous,14,13,postResponse,2164421.0,2166820.0,2399.0,14,L,2166601,2167169,570,697.1,540.6,5175,left
47,1,continuous,15,24,fixationCross,2167520.0,2168788.0,1268.0,15,L,2167245,2167403,160,700.1,535.7,5279,left
47,1,continuous,15,24,trial,2167520.0,2168788.0,1268.0,15,L,2167473,2167759,288,1185.2,484.1,5468,right
47,1,continuous,15,24,trial,2167520.0,2168788.0,1268.0,15,L,2167801,2167903,104,1389.7,471.3,5279,right
47,1,continuous,15,24,trial,2167520.0,2168788.0,1268.0,15,L,2167959,2168315,358,709.1,540.8,4871,left
47,1,continuous,15,24,trial,2167520.0,2168788.0,1268.0,15,L,2168345,2168413,70,852.9,527.5,4585,NA
47,1,continuous,15,24,trial,2167520.0,2168788.0,1268.0,15,L,2168439,2168685,248,633.5,537.4,4430,left
47,1,continuous,15,24,postResponse,2167520.0,2168788.0,1268.0,15,L,2168753,2169133,382,1589.4,448.9,4135,right
47,1,continuous,16,9,fixationCross,2169504.0,2172188.0,2684.0,16,L,2169233,2169283,52,1573.3,452.1,4394,right
47,1,continuous,16,9,trial,2169504.0,2172188.0,2684.0,16,L,2169345,2169685,342,1033.9,467.1,4914,NA
47,1,continuous,16,9,trial,2169504.0,2172188.0,2684.0,16,L,2169727,2170023,298,1348.8,508.9,5142,right
47,1,continuous,16,9,trial,2169504.0,2172188.0,2684.0,16,L,2170091,2170301,212,588.2,532.3,5028,left
47,1,continuous,16,9,trial,2169504.0,2172188.0,2684.0,16,L,2170321,2170821,502,514.4,541.2,4688,left
47,1,continuous,16,9,trial,2169504.0,2172188.0,2684.0,16,L,2170887,2170969,84,1190.8,503.9,4408,right
47,1,continuous,16,9,trial,2169504.0,2172188.0,2684.0,16,L,2171011,2171647,638,1492.0,537.1,4301,right
47,1,continuous,16,9,trial,2169504.0,2172188.0,2684.0,16,L,2171719,2172475,758,527.6,548.3,4708,left
47,1,continuous,16,9,postResponse,2169504.0,2172188.0,2684.0,16,L,2172499,2172521,24,696.6,537.6,4893,left
47,1,continuous,17,20,trial,2172904.0,2175520.0,2616.0,17,L,2172657,2173113,458,933.9,418.0,5159,NA
47,1,continuous,17,20,trial,2172904.0,2175520.0,2616.0,17,L,2173157,2173505,350,627.8,575.9,5029,left
47,1,continuous,17,20,trial,2172904.0,2175520.0,2616.0,17,L,2173563,2173789,228,1272.2,590.0,4487,right
47,1,continuous,17,20,trial,2172904.0,2175520.0,2616.0,17,L,2173825,2174079,256,1501.1,583.1,4378,right
47,1,continuous,17,20,trial,2172904.0,2175520.0,2616.0,17,L,2174125,2174369,246,1043.7,539.1,4510,NA
47,1,continuous,17,20,trial,2172904.0,2175520.0,2616.0,17,L,2174387,2174531,146,1012.6,522.4,4537,NA
47,1,continuous,17,20,trial,2172904.0,2175520.0,2616.0,17,L,2174575,2174727,154,661.9,504.6,4625,left
47,1,continuous,17,20,trial,2172904.0,2175520.0,2616.0,17,L,2174749,2175767,1020,566.2,455.1,4678,left
47,1,continuous,18,1,fixationCross,2176203.0,2178354.0,2151.0,18,L,2175945,2176135,192,1088.3,477.5,5067,NA
47,1,continuous,18,1,trial,2176203.0,2178354.0,2151.0,18,L,2176175,2176391,218,858.1,484.0,5238,NA
47,1,continuous,18,1,trial,2176203.0,2178354.0,2151.0,18,L,2176433,2176693,262,584.4,509.3,5147,left
47,1,continuous,18,1,trial,2176203.0,2178354.0,2151.0,18,L,2176711,2176899,190,530.9,504.6,4686,left
47,1,continuous,18,1,trial,2176203.0,2178354.0,2151.0,18,L,2176965,2177559,596,1409.2,516.8,4191,right
47,1,continuous,18,1,trial,2176203.0,2178354.0,2151.0,18,L,2177589,2177709,122,1238.1,538.9,4527,right
47,1,continuous,18,1,trial,2176203.0,2178354.0,2151.0,18,L,2177757,2178367,612,786.9,534.4,4752,NA
47,1,continuous,18,1,postResponse,2176203.0,2178354.0,2151.0,18,L,2178423,2178703,282,512.3,991.5,5013,NA
47,1,continuous,19,24,fixationCross,2179070.0,2180871.0,1801.0,19,L,2178793,2178807,16,728.1,635.3,5169,left
47,1,continuous,19,24,fixationCross,2179070.0,2180871.0,1801.0,19,L,2178813,2179005,194,766.1,608.2,5285,NA
47,1,continuous,19,24,trial,2179070.0,2180871.0,1801.0,19,L,2179027,2179315,290,763.2,463.2,5478,NA
47,1,continuous,19,24,trial,2179070.0,2180871.0,1801.0,19,L,2179341,2179667,328,670.4,521.7,5282,left
47,1,continuous,19,24,trial,2179070.0,2180871.0,1801.0,19,L,2179725,2179853,130,1403.1,567.8,4683,right
47,1,continuous,19,24,trial,2179070.0,2180871.0,1801.0,19,L,2179875,2180201,328,1525.7,557.8,4383,right
47,1,continuous,19,24,trial,2179070.0,2180871.0,1801.0,19,L,2180269,2180593,326,744.2,509.1,4349,NA
47,1,continuous,19,24,postResponse,2179070.0,2180871.0,1801.0,19,L,2180617,2181219,604,610.0,526.9,4540,left
47,1,continuous,20,17,trial,2181570.0,2183104.0,1534.0,20,L,2181301,2181623,324,774.2,513.8,4610,NA
47,1,continuous,20,17,trial,2181570.0,2183104.0,1534.0,20,L,2181649,2181829,182,967.6,535.9,4900,NA
47,1,continuous,20,17,trial,2181570.0,2183104.0,1534.0,20,L,2182001,2182367,368,1427.4,508.1,4461,right
47,1,continuous,20,17,trial,2181570.0,2183104.0,1534.0,20,L,2182409,2182597,190,1032.6,487.1,4474,NA
47,1,continuous,20,17,trial,2181570.0,2183104.0,1534.0,20,L,2182627,2182813,188,829.2,474.7,4488,NA
47,1,continuous,20,17,trial,2181570.0,2183104.0,1534.0,20,L,2182977,2183411,436,552.4,515.9,4575,left
47,1,continuous,21,74,trial,2183770.0,2185554.0,1784.0,21,L,2183557,2183817,262,672.7,508.6,4562,left
47,1,continuous,21,74,trial,2183770.0,2185554.0,1784.0,21,L,2183857,2184011,156,949.8,500.2,4913,NA
47,1,continuous,21,74,trial,2183770.0,2185554.0,1784.0,21,L,2184055,2184367,314,566.2,498.8,4675,left
47,1,continuous,21,74,trial,2183770.0,2185554.0,1784.0,21,L,2184419,2184551,134,1141.7,517.0,4425,NA
47,1,continuous,21,74,trial,2183770.0,2185554.0,1784.0,21,L,2184589,2184883,296,1365.3,501.7,4325,right
47,1,continuous,21,74,trial,2183770.0,2185554.0,1784.0,21,L,2184921,2185025,106,1133.7,522.4,4413,NA
47,1,continuous,21,74,trial,2183770.0,2185554.0,1784.0,21,L,2185061,2185211,152,875.6,543.8,4425,NA
47,1,continuous,21,74,trial,2183770.0,2185554.0,1784.0,21,L,2185249,2185387,140,571.0,507.2,4528,left
47,1,continuous,21,74,trial,2183770.0,2185554.0,1784.0,21,L,2185409,2185791,384,493.1,533.9,4741,left
47,1,continuous,22,14,fixationCross,2186237.0,2187588.0,1351.0,22,L,2185963,2186063,102,1295.3,551.7,4607,right
47,1,continuous,22,14,trial,2186237.0,2187588.0,1351.0,22,L,2186101,2187523,1424,1034.9,480.1,4912,NA
47,1,continuous,22,14,postResponse,2186237.0,2187588.0,1351.0,22,L,2187545,2187937,394,1084.0,486.5,5244,NA
47,1,continuous,23,24,trial,2188304.0,2190788.0,2484.0,23,L,2188011,2188943,934,1086.5,485.8,5304,NA
47,1,continuous,23,24,trial,2188304.0,2190788.0,2484.0,23,L,2188969,2189173,206,944.4,466.3,4778,NA
47,1,continuous,23,24,trial,2188304.0,2190788.0,2484.0,23,L,2189303,2189537,236,1302.0,533.4,5078,right
47,1,continuous,23,24,trial,2188304.0,2190788.0,2484.0,23,L,2189551,2189725,176,1348.1,545.9,4930,right
47,1,continuous,23,24,trial,2188304.0,2190788.0,2484.0,23,L,2189785,2190051,268,693.4,470.5,4620,left
47,1,continuous,23,24,trial,2188304.0,2190788.0,2484.0,23,L,2190077,2190625,550,535.1,513.8,4455,left
47,1,continuous,23,24,postResponse,2188304.0,2190788.0,2484.0,23,L,2190687,2191135,450,1342.7,552.1,4424,right
47,1,continuous,24,74,fixationCross,2191504.0,2195421.0,3917.0,24,L,2191235,2191273,40,1337.6,552.6,4536,right
47,1,continuous,24,74,trial,2191504.0,2195421.0,3917.0,24,L,2191315,2191731,418,972.5,478.5,4863,NA
47,1,continuous,24,74,trial,2191504.0,2195421.0,3917.0,24,L,2191771,2191959,190,652.1,567.7,4977,left
47,1,continuous,24,74,trial,2191504.0,2195421.0,3917.0,24,L,2192013,2192203,192,1286.3,535.5,4560,right
47,1,continuous,24,74,trial,2191504.0,2195421.0,3917.0,24,L,2192227,2192387,162,1432.9,489.9,4409,right
47,1,continuous,24,74,trial,2191504.0,2195421.0,3917.0,24,L,2192397,2192751,356,1450.2,493.4,4517,right
47,1,continuous,24,74,trial,2191504.0,2195421.0,3917.0,24,L,2192817,2193533,718,637.7,536.1,4668,left
47,1,continuous,24,74,trial,2191504.0,2195421.0,3917.0,24,L,2193599,2193793,196,1520.5,520.2,4532,right
47,1,continuous,24,74,trial,2191504.0,2195421.0,3917.0,24,L,2193813,2194369,558,1433.8,502.4,4672,right
47,1,continuous,24,74,trial,2191504.0,2195421.0,3917.0,24,L,2194413,2194523,112,982.6,555.1,5022,NA
47,1,continuous,24,74,trial,2191504.0,2195421.0,3917.0,24,L,2194563,2194967,406,702.7,558.0,5009,left
47,1,continuous,24,74,trial,2191504.0,2195421.0,3917.0,24,L,2195029,2195707,680,1418.9,522.1,4771,right
47,1,continuous,25,17,trial,2196121.0,2197721.0,1600.0,25,L,2195861,2196175,316,901.6,522.6,5255,NA
47,1,continuous,25,17,trial,2196121.0,2197721.0,1600.0,25,L,2196249,2196329,82,976.0,514.2,5376,NA
47,1,continuous,25,17,trial,2196121.0,2197721.0,1600.0,25,L,2196465,2196841,378,1359.9,485.3,4939,right
47,1,continuous,25,17,trial,2196121.0,2197721.0,1600.0,25,L,2196891,2197017,128,889.2,523.2,4841,NA
47,1,continuous,25,17,trial,2196121.0,2197721.0,1600.0,25,L,2197059,2197945,888,600.8,500.5,4390,left
47,1,continuous,26,17,fixationCross,2224955.0,2226788.0,1833.0,26,L,2224741,2224869,130,900.3,42.7,5436,NA
47,1,continuous,26,17,trial,2224955.0,2226788.0,1833.0,26,L,2224893,2225041,150,950.5,13.4,5413,NA
47,1,continuous,26,17,trial,2224955.0,2226788.0,1833.0,26,L,2225089,2225207,120,994.0,329.7,5207,NA
47,1,continuous,26,17,trial,2224955.0,2226788.0,1833.0,26,L,2225255,2225479,226,577.4,539.0,4944,left
47,1,continuous,26,17,trial,2224955.0,2226788.0,1833.0,26,L,2225535,2225757,224,1322.6,527.0,4476,right
47,1,continuous,26,17,trial,2224955.0,2226788.0,1833.0,26,L,2225777,2226133,358,1411.2,546.6,4307,right
47,1,continuous,26,17,trial,2224955.0,2226788.0,1833.0,26,L,2226195,2227065,872,565.1,566.8,4592,left
47,1,continuous,27,27,trial,2227471.0,2228654.0,1183.0,27,L,2227197,2227541,346,856.7,540.8,4991,NA
47,1,continuous,27,27,trial,2227471.0,2228654.0,1183.0,27,L,2227563,2227751,190,961.0,546.3,5397,NA
47,1,continuous,27,27,trial,2227471.0,2228654.0,1183.0,27,L,2227805,2228107,304,1318.4,565.4,4961,right
47,1,continuous,27,27,trial,2227471.0,2228654.0,1183.0,27,L,2228157,2228277,122,758.3,544.9,4687,NA
47,1,continuous,27,27,trial,2227471.0,2228654.0,1183.0,27,L,2228303,2228541,240,588.4,519.3,4581,left
47,1,continuous,27,27,postResponse,2227471.0,2228654.0,1183.0,27,L,2228563,2229005,444,468.5,526.8,4521,left
47,1,continuous,28,11,trial,2229372.0,2230305.0,933.0,28,L,2229105,2229465,362,676.1,510.8,4782,left
47,1,continuous,28,11,trial,2229372.0,2230305.0,933.0,28,L,2229503,2229699,198,908.4,516.9,5172,NA
47,1,continuous,28,11,trial,2229372.0,2230305.0,933.0,28,L,2229729,2229825,98,731.1,508.0,4994,left
47,1,continuous,28,11,trial,2229372.0,2230305.0,933.0,28,L,2229877,2230167,292,1298.5,516.3,4618,right
47,1,continuous,28,11,postResponse,2229372.0,2230305.0,933.0,28,L,2230181,2230637,458,1357.7,509.8,4359,right
47,1,continuous,29,74,fixationCross,2230987.0,2231888.0,901.0,29,L,2230711,2230831,122,1347.7,511.0,4523,right
47,1,continuous,29,74,trial,2230987.0,2231888.0,901.0,29,L,2230875,2231239,366,1065.5,497.2,4970,NA
47,1,continuous,29,74,postResponse,2230987.0,2231888.0,901.0,29,L,2231275,2232207,934,1305.1,548.9,4558,right
47,1,continuous,30,22,fixationCross,2232572.0,2233605.0,1033.0,30,L,2232325,2232525,202,1059.2,491.7,4715,NA
47,1,continuous,30,22,trial,2232572.0,2233605.0,1033.0,30,L,2232551,2232781,232,873.7,495.0,5081,NA
47,1,continuous,30,22,trial,2232572.0,2233605.0,1033.0,30,L,2232825,2233019,196,517.1,563.1,5116,left
47,1,continuous,30,22,trial,2232572.0,2233605.0,1033.0,30,L,2233081,2233489,410,1324.6,567.4,4404,right
47,1,continuous,30,22,postResponse,2232572.0,2233605.0,1033.0,30,L,2233555,2233953,400,472.5,572.6,4420,left
47,1,continuous,31,79,fixationCross,2234305.0,2235238.0,933.0,31,L,2234027,2234055,30,469.2,574.5,4390,left
47,1,continuous,31,79,trial,2234305.0,2235238.0,933.0,31,L,2234125,2234525,402,1061.3,503.1,4566,NA
47,1,continuous,31,79,trial,2234305.0,2235238.0,933.0,31,L,2234573,2234709,138,619.1,500.1,4769,left
47,1,continuous,31,79,trial,2234305.0,2235238.0,933.0,31,L,2234767,2234961,196,1362.3,542.8,4405,right
47,1,continuous,31,79,trial,2234305.0,2235238.0,933.0,31,L,2234981,2235155,176,1431.5,571.5,4237,right
47,1,continuous,31,79,postResponse,2234305.0,2235238.0,933.0,31,L,2235167,2235579,414,1410.8,580.6,4133,right
47,1,continuous,32,20,fixationCross,2235921.0,2237021.0,1100.0,32,L,2235655,2235693,40,1406.8,582.7,4107,right
47,1,continuous,32,20,trial,2235921.0,2237021.0,1100.0,32,L,2235733,2235985,254,1142.1,524.2,4345,NA
47,1,continuous,32,20,trial,2235921.0,2237021.0,1100.0,32,L,2236009,2236161,154,978.0,536.7,4760,NA
47,1,continuous,32,20,trial,2235921.0,2237021.0,1100.0,32,L,2236203,2236503,302,613.1,527.5,4820,left
47,1,continuous,32,20,trial,2235921.0,2237021.0,1100.0,32,L,2236553,2236711,160,1205.2,537.8,4424,right
47,1,continuous,32,20,trial,2235921.0,2237021.0,1100.0,32,L,2236751,2237291,542,1474.7,564.4,4215,right
47,1,continuous,33,14,trial,2237755.0,2239805.0,2050.0,33,L,2237471,2237995,526,1041.8,478.1,4925,NA
47,1,continuous,33,14,trial,2237755.0,2239805.0,2050.0,33,L,2238039,2238677,640,1348.5,521.2,4383,right
47,1,continuous,33,14,trial,2237755.0,2239805.0,2050.0,33,L,2238693,2238849,158,1421.2,515.7,4180,right
47,1,continuous,33,14,trial,2237755.0,2239805.0,2050.0,33,L,2238911,2239275,366,634.8,554.5,4332,left
47,1,continuous,33,14,trial,2237755.0,2239805.0,2050.0,33,L,2239297,2239795,500,495.5,575.8,4096,left
47,1,continuous,33,14,trial,2237755.0,2239805.0,2050.0,33,L,2239865,2240057,194,1438.7,532.0,3892,right
47,1,continuous,34,18,trial,2240472.0,2241855.0,1383.0,34,L,2240211,2240671,462,1021.3,499.8,4282,NA
47,1,continuous,34,18,trial,2240472.0,2241855.0,1383.0,34,L,2240713,2240959,248,641.1,564.9,4769,left
47,1,continuous,34,18,trial,2240472.0,2241855.0,1383.0,34,L,2241011,2241177,168,1272.1,568.4,4449,right
47,1,continuous,34,18,trial,2240472.0,2241855.0,1383.0,34,L,2241211,2241429,220,1506.8,576.2,4193,right
47,1,continuous,34,18,trial,2240472.0,2241855.0,1383.0,34,L,2241499,2242117,620,584.8,549.7,4514,left
47,1,continuous,35,88,trial,2242555.0,2243855.0,1300.0,35,L,2242265,2242617,354,864.9,506.8,4530,NA
47,1,continuous,35,88,trial,2242555.0,2243855.0,1300.0,35,L,2242645,2243023,380,993.9,536.1,4803,NA
47,1,continuous,35,88,trial,2242555.0,2243855.0,1300.0,35,L,2243063,2243471,410,1219.4,532.4,4442,right
47,1,continuous,35,88,trial,2242555.0,2243855.0,1300.0,35,L,2243495,2244167,674,1088.4,535.9,4593,NA
47,1,continuous,36,43,trial,2244538.0,2246555.0,2017.0,36,L,2244279,2244781,504,942.8,515.0,5158,NA
47,1,continuous,36,43,trial,2244538.0,2246555.0,2017.0,36,L,2244823,2244897,76,722.6,546.0,5258,left
47,1,continuous,36,43,trial,2244538.0,2246555.0,2017.0,36,L,2244949,2245327,380,1278.7,583.9,4651,right
47,1,continuous,36,43,trial,2244538.0,2246555.0,2017.0,36,L,2245389,2245713,326,557.7,550.9,4489,left
47,1,continuous,36,43,trial,2244538.0,2246555.0,2017.0,36,L,2245775,2246153,380,1247.8,509.1,4561,right
47,1,continuous,36,43,trial,2244538.0,2246555.0,2017.0,36,L,2246201,2246749,550,1642.1,471.3,4855,right
47,1,continuous,37,70,trial,2247271.0,2248372.0,1101.0,37,L,2246991,2247303,314,761.5,511.4,4963,NA
47,1,continuous,37,70,trial,2247271.0,2248372.0,1101.0,37,L,2247337,2247549,214,1013.0,501.2,5129,NA
47,1,continuous,37,70,trial,2247271.0,2248372.0,1101.0,37,L,2247593,2248011,420,1403.5,530.8,4559,right
47,1,continuous,37,70,trial,2247271.0,2248372.0,1101.0,37,L,2248075,2248373,300,689.7,520.5,4198,left
47,1,continuous,37,70,trial,2247271.0,2248372.0,1101.0,37,L,2248435,2248625,192,1519.5,597.4,4043,right
47,1,continuous,38,80,trial,2249055.0,2251388.0,2333.0,38,L,2248781,2249281,502,1053.1,445.5,4591,NA
47,1,continuous,38,80,trial,2249055.0,2251388.0,2333.0,38,L,2249323,2249615,294,1359.5,576.6,4757,right
47,1,continuous,38,80,trial,2249055.0,2251388.0,2333.0,38,L,2249671,2250113,444,684.0,544.0,4374,left
47,1,continuous,38,80,trial,2249055.0,2251388.0,2333.0,38,L,2250185,2250571,388,1491.5,558.8,4325,right
47,1,continuous,38,80,trial,2249055.0,2251388.0,2333.0,38,L,2250589,2250787,200,1530.1,518.5,4358,right
47,1,continuous,38,80,trial,2249055.0,2251388.0,2333.0,38,L,2250799,2251341,544,1560.1,494.4,4290,right
47,1,continuous,38,80,postResponse,2249055.0,2251388.0,2333.0,38,L,2251413,2251719,308,735.4,542.2,4506,left
47,1,continuous,39,50,trial,2252072.0,2255022.0,2950.0,39,L,2251817,2252139,324,1241.6,538.3,4647,right
47,1,continuous,39,50,trial,2252072.0,2255022.0,2950.0,39,L,2252171,2252363,194,1020.4,542.0,4962,NA
47,1,continuous,39,50,trial,2252072.0,2255022.0,2950.0,39,L,2252409,2252705,298,1397.9,560.3,4590,right
47,1,continuous,39,50,trial,2252072.0,2255022.0,2950.0,39,L,2252763,2252955,194,706.4,525.6,4548,left
47,1,continuous,39,50,trial,2252072.0,2255022.0,2950.0,39,L,2252973,2253301,330,617.8,526.1,4531,left
47,1,continuous,39,50,trial,2252072.0,2255022.0,2950.0,39,L,2253367,2253685,320,1524.8,613.4,4260,right
47,1,continuous,39,50,trial,2252072.0,2255022.0,2950.0,39,L,2253711,2253999,290,1383.8,531.0,4324,right
47,1,continuous,39,50,trial,2252072.0,2255022.0,2950.0,39,L,2254053,2254379,328,830.6,543.7,4681,NA
47,1,continuous,39,50,trial,2252072.0,2255022.0,2950.0,39,L,2254401,2254793,394,940.6,555.3,4917,NA
47,1,continuous,39,50,trial,2252072.0,2255022.0,2950.0,39,L,2254843,2255291,450,945.7,901.6,5290,likertHorizontal
47,1,continuous,40,68,trial,2255721.0,2256821.0,1100.0,40,L,2255445,2255951,508,1029.2,481.1,5182,NA
47,1,continuous,40,68,trial,2255721.0,2256821.0,1100.0,40,L,2255997,2256425,430,1419.6,524.8,4830,right
47,1,continuous,40,68,trial,2255721.0,2256821.0,1100.0,40,L,2256495,2257081,588,593.7,538.7,4563,left
47,1,continuous,41,23,fixationCross,2257505.0,2259372.0,1867.0,41,L,2257231,2257467,238,1104.3,499.5,4767,NA
47,1,continuous,41,23,trial,2257505.0,2259372.0,1867.0,41,L,2257505,2257699,196,920.0,527.0,5007,NA
47,1,continuous,41,23,trial,2257505.0,2259372.0,1867.0,41,L,2257743,2257957,216,591.5,554.7,5022,left
47,1,continuous,41,23,trial,2257505.0,2259372.0,1867.0,41,L,2257967,2258139,174,623.4,533.7,4613,left
47,1,continuous,41,23,trial,2257505.0,2259372.0,1867.0,41,L,2258197,2258445,250,1365.7,537.5,4284,right
47,1,continuous,41,23,trial,2257505.0,2259372.0,1867.0,41,L,2258457,2258745,290,1355.4,509.0,4112,right
47,1,continuous,41,23,trial,2257505.0,2259372.0,1867.0,41,L,2258805,2259617,814,644.0,526.9,4192,left
47,1,continuous,42,19,trial,2260072.0,2261539.0,1467.0,42,L,2259809,2260179,372,902.7,465.0,4513,NA
47,1,continuous,42,19,trial,2260072.0,2261539.0,1467.0,42,L,2260221,2260355,136,1179.4,515.1,4808,NA
47,1,continuous,42,19,trial,2260072.0,2261539.0,1467.0,42,L,2260387,2260733,348,1365.3,537.4,4464,right
47,1,continuous,42,19,trial,2260072.0,2261539.0,1467.0,42,L,2260789,2261515,728,685.3,538.6,4291,left
47,1,continuous,42,19,trial,2260072.0,2261539.0,1467.0,42,L,2261577,2261769,194,1418.4,522.6,4202,right
47,1,continuous,43,70,trial,2262221.0,2263471.0,1250.0,43,L,2261957,2262437,482,1049.1,446.6,4710,NA
47,1,continuous,43,70,trial,2262221.0,2263471.0,1250.0,43,L,2262481,2262641,162,1371.7,524.4,4777,right
47,1,continuous,43,70,trial,2262221.0,2263471.0,1250.0,43,L,2262661,2262891,232,1486.7,495.7,4385,right
47,1,continuous,43,70,trial,2262221.0,2263471.0,1250.0,43,L,2262957,2263001,46,696.2,561.5,4335,left
47,1,continuous,43,70,trial,2262221.0,2263471.0,1250.0,43,L,2263077,2263343,268,693.3,567.2,4316,left
47,1,continuous,43,70,trial,2262221.0,2263471.0,1250.0,43,L,2263403,2263697,296,1461.8,574.6,4344,right
47,1,continuous,44,69,fixationCross,2264172.0,2265438.0,1266.0,44,L,2263877,2264081,206,1124.1,465.5,4565,NA
47,1,continuous,44,69,trial,2264172.0,2265438.0,1266.0,44,L,2264119,2264389,272,956.1,461.6,4924,NA
47,1,continuous,44,69,trial,2264172.0,2265438.0,1266.0,44,L,2264435,2264783,350,1307.7,496.0,4579,right
47,1,continuous,44,69,trial,2264172.0,2265438.0,1266.0,44,L,2264797,2265211,416,1393.4,493.4,4066,right
47,1,continuous,44,69,trial,2264172.0,2265438.0,1266.0,44,L,2265273,2265703,432,687.5,483.4,3909,left
47,1,continuous,45,49,trial,2266121.0,2268021.0,1900.0,45,L,2265859,2266315,458,805.7,468.9,4334,NA
47,1,continuous,45,49,trial,2266121.0,2268021.0,1900.0,45,L,2266341,2266479,140,637.5,528.7,4646,left
47,1,continuous,45,49,trial,2266121.0,2268021.0,1900.0,45,L,2266537,2266791,256,1363.5,530.3,4396,right
47,1,continuous,45,49,trial,2266121.0,2268021.0,1900.0,45,L,2266807,2267021,216,1425.7,546.7,4266,right
47,1,continuous,45,49,trial,2266121.0,2268021.0,1900.0,45,L,2267085,2267467,384,645.6,545.5,4331,left
47,1,continuous,45,49,trial,2266121.0,2268021.0,1900.0,45,L,2267539,2267811,274,1019.4,890.1,4601,likertHorizontal
47,1,continuous,45,49,trial,2266121.0,2268021.0,1900.0,45,L,2267835,2268243,410,977.0,984.2,4887,likertHorizontal
47,1,continuous,46,23,fixationCross,2268705.0,2269822.0,1117.0,46,L,2268445,2268517,74,999.2,688.8,4990,NA
47,1,continuous,46,23,trial,2268705.0,2269822.0,1117.0,46,L,2268539,2268995,458,989.5,544.5,5147,NA
47,1,continuous,46,23,trial,2268705.0,2269822.0,1117.0,46,L,2269045,2269327,284,1354.8,514.8,4725,right
47,1,continuous,46,23,trial,2268705.0,2269822.0,1117.0,46,L,2269385,2269615,232,702.0,556.4,4546,left
47,1,continuous,46,23,trial,2268705.0,2269822.0,1117.0,46,L,2269631,2270059,430,659.6,538.6,4260,left
47,1,continuous,47,31,trial,2270505.0,2272156.0,1651.0,47,L,2270243,2270717,476,939.5,471.5,4588,NA
47,1,continuous,47,31,trial,2270505.0,2272156.0,1651.0,47,L,2270765,2271149,386,1365.8,514.2,4712,right
47,1,continuous,47,31,trial,2270505.0,2272156.0,1651.0,47,L,2271219,2271393,176,492.9,586.5,4533,left
47,1,continuous,47,31,trial,2270505.0,2272156.0,1651.0,47,L,2271417,2272417,1002,596.7,506.1,4719,left
47,1,continuous,48,64,trial,2272855.0,2274055.0,1200.0,48,L,2272585,2273093,510,798.3,465.6,4908,NA
47,1,continuous,48,64,trial,2272855.0,2274055.0,1200.0,48,L,2273125,2273211,88,697.3,544.7,5036,left
47,1,continuous,48,64,trial,2272855.0,2274055.0,1200.0,48,L,2273269,2273557,290,1430.3,534.8,4465,right
47,1,continuous,48,64,trial,2272855.0,2274055.0,1200.0,48,L,2273581,2273947,368,1490.7,431.7,4090,right
47,1,continuous,48,64,trial,2272855.0,2274055.0,1200.0,48,L,2274019,2274261,244,569.1,506.5,4075,left
47,1,continuous,49,9,fixationCross,2274755.0,2276805.0,2050.0,49,L,2274477,2274645,170,1119.9,628.0,4421,NA
47,1,continuous,49,9,trial,2274755.0,2276805.0,2050.0,49,L,2274673,2274969,298,1034.7,492.8,4716,NA
47,1,continuous,49,9,trial,2274755.0,2276805.0,2050.0,49,L,2275019,2275357,340,1429.5,532.3,4545,right
47,1,continuous,49,9,trial,2274755.0,2276805.0,2050.0,49,L,2275417,2275747,332,685.3,530.8,4251,left
47,1,continuous,49,9,trial,2274755.0,2276805.0,2050.0,49,L,2275779,2276763,986,462.9,546.6,4055,left
47,1,continuous,49,9,trial,2274755.0,2276805.0,2050.0,49,L,2276837,2277059,224,1517.4,511.5,4117,right
47,1,continuous,50,48,trial,2277522.0,2279222.0,1700.0,50,L,2277255,2277741,488,789.8,473.3,4491,NA
47,1,continuous,50,48,trial,2277522.0,2279222.0,1700.0,50,L,2277789,2278041,254,1299.4,520.2,4663,right
47,1,continuous,50,48,trial,2277522.0,2279222.0,1700.0,50,L,2278061,2278387,328,1403.6,480.4,4398,right
47,1,continuous,50,48,trial,2277522.0,2279222.0,1700.0,50,L,2278453,2278993,542,595.4,573.0,4509,left
47,1,continuous,50,48,trial,2277522.0,2279222.0,1700.0,50,L,2279065,2279445,382,1470.5,539.0,4308,right
47,2,binary,1,2,fixationCross,2363256.0,2366057.0,2801.0,51,L,2362984,2363066,84,842.7,842.3,6600,likertHorizontal
47,2,binary,1,2,trial,2363256.0,2366057.0,2801.0,51,L,2363090,2363376,288,1012.9,842.7,6609,likertHorizontal
47,2,binary,1,2,trial,2363256.0,2366057.0,2801.0,51,L,2363424,2363592,170,708.5,529.3,6423,left
47,2,binary,1,2,trial,2363256.0,2366057.0,2801.0,51,L,2363614,2363808,196,586.9,538.1,5832,left
47,2,binary,1,2,trial,2363256.0,2366057.0,2801.0,51,L,2363866,2364252,388,1326.1,570.3,5012,right
47,2,binary,1,2,trial,2363256.0,2366057.0,2801.0,51,L,2364302,2364456,156,1035.8,992.7,4976,likertHorizontal
47,2,binary,1,2,trial,2363256.0,2366057.0,2801.0,51,L,2364506,2364604,100,1484.4,719.8,5082,right
47,2,binary,1,2,trial,2363256.0,2366057.0,2801.0,51,L,2364624,2364822,200,1498.0,626.9,5177,right
47,2,binary,1,2,trial,2363256.0,2366057.0,2801.0,51,L,2364860,2364970,112,1392.3,572.3,5130,right
47,2,binary,1,2,trial,2363256.0,2366057.0,2801.0,51,L,2365032,2365422,392,662.7,483.8,4978,left
47,2,binary,1,2,trial,2363256.0,2366057.0,2801.0,51,L,2365494,2365628,136,1497.9,959.8,4762,NA
47,2,binary,1,2,trial,2363256.0,2366057.0,2801.0,51,L,2365652,2365880,230,1480.8,1040.5,4831,NA
47,2,binary,1,2,trial,2363256.0,2366057.0,2801.0,51,L,2365940,2366362,424,1496.2,613.3,5056,right
47,2,binary,2,2,trial,2366773.0,2368223.0,1450.0,52,L,2366512,2366832,322,746.2,527.2,5452,NA
47,2,binary,2,2,trial,2366773.0,2368223.0,1450.0,52,L,2366866,2367122,258,953.6,524.9,5601,NA
47,2,binary,2,2,trial,2366773.0,2368223.0,1450.0,52,L,2367174,2367476,304,1517.2,534.2,4799,right
47,2,binary,2,2,trial,2366773.0,2368223.0,1450.0,52,L,2367544,2367854,312,648.6,504.8,4458,left
47,2,binary,2,2,postResponse,2366773.0,2368223.0,1450.0,52,L,2367920,2368570,652,1520.7,583.4,4324,right
47,2,binary,3,2,trial,2368956.0,2370090.0,1134.0,53,L,2368670,2369018,350,1102.0,502.3,4984,NA
47,2,binary,3,2,trial,2368956.0,2370090.0,1134.0,53,L,2369042,2369204,164,984.6,525.7,5289,NA
47,2,binary,3,2,trial,2368956.0,2370090.0,1134.0,53,L,2369248,2369410,164,649.6,473.9,5244,left
47,2,binary,3,2,trial,2368956.0,2370090.0,1134.0,53,L,2369474,2369634,162,1422.1,554.4,4816,right
47,2,binary,3,2,trial,2368956.0,2370090.0,1134.0,53,L,2369652,2370004,354,1484.5,556.0,4514,right
47,2,binary,3,2,postResponse,2368956.0,2370090.0,1134.0,53,L,2370078,2370440,364,638.0,471.0,4584,left
47,2,binary,4,1,fixationCross,2370790.0,2372240.0,1450.0,54,L,2370514,2370540,28,634.3,474.2,4707,left
47,2,binary,4,1,trial,2370790.0,2372240.0,1450.0,54,L,2370590,2370856,268,937.0,483.6,4814,NA
47,2,binary,4,1,trial,2370790.0,2372240.0,1450.0,54,L,2370878,2371008,132,996.6,522.1,4945,NA
47,2,binary,4,1,trial,2370790.0,2372240.0,1450.0,54,L,2371052,2371262,212,1402.1,524.3,4885,right
47,2,binary,4,1,trial,2370790.0,2372240.0,1450.0,54,L,2371286,2371496,212,1462.7,458.5,4594,right
47,2,binary,4,1,trial,2370790.0,2372240.0,1450.0,54,L,2371562,2372232,672,613.2,466.4,4600,left
47,2,binary,4,1,trial,2370790.0,2372240.0,1450.0,54,L,2372300,2372544,246,1496.0,532.7,4671,right
47,2,binary,5,2,trial,2372940.0,2375140.0,2200.0,55,L,2372662,2373152,492,962.8,405.7,5032,NA
47,2,binary,5,2,trial,2372940.0,2375140.0,2200.0,55,L,2373190,2373232,44,749.7,490.4,5215,NA
47,2,binary,5,2,trial,2372940.0,2375140.0,2200.0,55,L,2373286,2373468,184,1377.2,557.6,4812,right
47,2,binary,5,2,trial,2372940.0,2375140.0,2200.0,55,L,2373486,2373714,230,1449.5,567.0,4482,right
47,2,binary,5,2,trial,2372940.0,2375140.0,2200.0,55,L,2373784,2374234,452,505.1,477.7,4404,left
47,2,binary,5,2,trial,2372940.0,2375140.0,2200.0,55,L,2374246,2374378,134,534.1,486.5,4401,left
47,2,binary,5,2,trial,2372940.0,2375140.0,2200.0,55,L,2374398,2374570,174,563.5,563.6,4440,left
47,2,binary,5,2,trial,2372940.0,2375140.0,2200.0,55,L,2374636,2374934,300,1423.1,563.7,4667,right
47,2,binary,5,2,postResponse,2372940.0,2375140.0,2200.0,55,L,2374952,2375482,532,1468.4,581.0,4868,right
47,2,binary,6,2,fixationCross,2375856.0,2378474.0,2618.0,56,L,2375582,2375620,40,1464.0,589.7,5027,right
47,2,binary,6,2,trial,2375856.0,2378474.0,2618.0,56,L,2375642,2375912,272,1277.7,562.2,5206,right
47,2,binary,6,2,trial,2375856.0,2378474.0,2618.0,56,L,2375950,2376146,198,972.0,553.5,5431,NA
47,2,binary,6,2,trial,2375856.0,2378474.0,2618.0,56,L,2376184,2376396,214,757.4,469.6,4996,NA
47,2,binary,6,2,trial,2375856.0,2378474.0,2618.0,56,L,2376458,2376640,184,1411.0,544.0,4611,right
47,2,binary,6,2,trial,2375856.0,2378474.0,2618.0,56,L,2376666,2376840,176,1549.7,549.3,4622,right
47,2,binary,6,2,trial,2375856.0,2378474.0,2618.0,56,L,2376910,2377374,466,638.4,517.9,4600,left
47,2,binary,6,2,trial,2375856.0,2378474.0,2618.0,56,L,2377444,2377634,192,1470.0,553.4,4418,right
47,2,binary,6,2,trial,2375856.0,2378474.0,2618.0,56,L,2377658,2378086,430,1601.4,541.0,4478,right
47,2,binary,6,2,trial,2375856.0,2378474.0,2618.0,56,L,2378112,2378282,172,1415.4,509.9,4839,right
47,2,binary,6,2,trial,2375856.0,2378474.0,2618.0,56,L,2378296,2378728,434,1366.2,520.0,5114,right
47,2,binary,7,1,trial,2379190.0,2380190.0,1000.0,57,L,2378908,2379416,510,1050.9,514.3,5157,NA
47,2,binary,7,1,trial,2379190.0,2380190.0,1000.0,57,L,2379458,2379622,166,1353.8,572.8,4983,right
47,2,binary,7,1,trial,2379190.0,2380190.0,1000.0,57,L,2379686,2379812,128,601.6,574.5,4526,left
47,2,binary,7,1,trial,2379190.0,2380190.0,1000.0,57,L,2379834,2380156,324,481.6,572.5,4276,left
47,2,binary,7,1,postResponse,2379190.0,2380190.0,1000.0,57,L,2380224,2380524,302,1490.6,558.0,4086,right
47,2,binary,8,1,trial,2380856.0,2381857.0,1001.0,58,L,2380654,2381074,422,1121.1,480.5,4781,NA
47,2,binary,8,1,trial,2380856.0,2381857.0,1001.0,58,L,2381116,2381344,230,1407.0,581.1,5108,right
47,2,binary,8,1,trial,2380856.0,2381857.0,1001.0,58,L,2381410,2382170,762,549.4,630.1,4863,left
47,2,binary,9,1,trial,2382523.0,2383590.0,1067.0,59,L,2382266,2382724,460,923.2,525.2,5018,NA
47,2,binary,9,1,trial,2382523.0,2383590.0,1067.0,59,L,2382774,2383066,294,1404.1,579.6,4956,right
47,2,binary,9,1,trial,2382523.0,2383590.0,1067.0,59,L,2383128,2383352,226,639.3,522.6,4503,left
47,2,binary,9,1,trial,2382523.0,2383590.0,1067.0,59,L,2383370,2383510,142,559.3,528.2,4394,left
47,2,binary,9,1,postResponse,2382523.0,2383590.0,1067.0,59,L,2383580,2383942,364,1558.4,550.6,4087,right
47,2,binary,10,1,trial,2384290.0,2385540.0,1250.0,60,L,2384054,2384462,410,1039.1,528.4,4665,NA
47,2,binary,10,1,trial,2384290.0,2385540.0,1250.0,60,L,2384504,2384808,306,732.5,576.0,4876,left
47,2,binary,10,1,trial,2384290.0,2385540.0,1250.0,60,L,2384830,2384980,152,585.9,536.8,4511,left
47,2,binary,10,1,trial,2384290.0,2385540.0,1250.0,60,L,2385050,2385550,502,1461.5,524.1,4225,right
47,2,binary,10,1,trial,2384290.0,2385540.0,1250.0,60,L,2385628,2385820,194,613.2,620.4,4741,left
47,2,binary,11,2,trial,2386257.0,2387724.0,1467.0,61,L,2385990,2386340,352,1100.9,567.2,5132,NA
47,2,binary,11,2,trial,2386257.0,2387724.0,1467.0,61,L,2386364,2386552,190,992.6,551.2,5347,NA
47,2,binary,11,2,trial,2386257.0,2387724.0,1467.0,61,L,2386598,2386766,170,1360.1,582.9,4933,right
47,2,binary,11,2,trial,2386257.0,2387724.0,1467.0,61,L,2386782,2387096,316,1422.4,589.6,4619,right
47,2,binary,11,2,trial,2386257.0,2387724.0,1467.0,61,L,2387168,2387462,296,704.6,510.3,4735,left
47,2,binary,11,2,postResponse,2386257.0,2387724.0,1467.0,61,L,2387520,2388070,552,1406.1,577.6,4756,right
47,2,binary,12,2,fixationCross,2388423.0,2389807.0,1384.0,62,L,2388144,2388198,56,1394.0,578.6,5055,right
47,2,binary,12,2,trial,2388423.0,2389807.0,1384.0,62,L,2388254,2388604,352,987.5,498.6,5318,NA
47,2,binary,12,2,trial,2388423.0,2389807.0,1384.0,62,L,2388648,2388816,170,663.1,512.0,5312,left
47,2,binary,12,2,trial,2388423.0,2389807.0,1384.0,62,L,2388872,2389096,226,1359.4,534.1,4756,right
47,2,binary,12,2,trial,2388423.0,2389807.0,1384.0,62,L,2389116,2390084,970,1456.5,514.2,4615,right
47,2,binary,13,1,trial,2390523.0,2391340.0,817.0,63,L,2390242,2390768,528,983.4,525.6,4982,NA
47,2,binary,13,1,trial,2390523.0,2391340.0,817.0,63,L,2390832,2390876,46,1290.2,547.9,5036,right
47,2,binary,13,1,trial,2390523.0,2391340.0,817.0,63,L,2390898,2390926,30,1305.8,542.9,4860,right
47,2,binary,13,1,trial,2390523.0,2391340.0,817.0,63,L,2390978,2391312,336,790.2,500.8,4496,NA
47,2,binary,13,1,postResponse,2390523.0,2391340.0,817.0,63,L,2391340,2391690,352,621.1,510.2,4252,left
47,2,binary,14,2,trial,2392023.0,2392974.0,951.0,64,L,2391764,2392256,494,1255.3,541.6,4515,right
47,2,binary,14,2,trial,2392023.0,2392974.0,951.0,64,L,2392294,2392552,260,945.3,508.2,4954,NA
47,2,binary,14,2,trial,2392023.0,2392974.0,951.0,64,L,2392596,2392978,384,1341.7,534.0,4701,right
47,2,binary,14,2,postResponse,2392023.0,2392974.0,951.0,64,L,2392996,2393308,314,1409.4,547.4,4852,right
47,2,binary,15,2,trial,2393656.0,2394557.0,901.0,65,L,2393392,2393888,498,1028.4,490.6,5293,NA
47,2,binary,15,2,trial,2393656.0,2394557.0,901.0,65,L,2393936,2394098,164,1391.1,551.2,5116,right
47,2,binary,15,2,trial,2393656.0,2394557.0,901.0,65,L,2394118,2394286,170,1492.4,539.5,4704,right
47,2,binary,15,2,postResponse,2393656.0,2394557.0,901.0,65,L,2394352,2394906,556,663.5,515.1,4468,left
47,2,binary,16,1,fixationCross,2395257.0,2396357.0,1100.0,66,L,2394980,2395152,174,654.0,515.6,4627,left
47,2,binary,16,1,trial,2395257.0,2396357.0,1100.0,66,L,2395200,2395494,296,992.3,513.5,4730,NA
47,2,binary,16,1,trial,2395257.0,2396357.0,1100.0,66,L,2395534,2395746,214,714.3,507.2,4641,left
47,2,binary,16,1,trial,2395257.0,2396357.0,1100.0,66,L,2395798,2395990,194,1272.5,501.3,4290,right
47,2,binary,16,1,trial,2395257.0,2396357.0,1100.0,66,L,2396014,2396436,424,1423.7,487.9,4145,right
47,2,binary,16,1,trial,2395257.0,2396357.0,1100.0,66,L,2396486,2396666,182,898.9,422.2,4331,NA
47,2,binary,17,1,trial,2397056.0,2398290.0,1234.0,67,L,2396784,2397246,464,866.9,464.0,4763,NA
47,2,binary,17,1,trial,2397056.0,2398290.0,1234.0,67,L,2397298,2397520,224,1410.2,536.2,4716,right
47,2,binary,17,1,trial,2397056.0,2398290.0,1234.0,67,L,2397536,2397750,216,1478.5,537.8,4369,right
47,2,binary,17,1,trial,2397056.0,2398290.0,1234.0,67,L,2397812,2397996,186,646.2,546.3,4352,left
47,2,binary,17,1,trial,2397056.0,2398290.0,1234.0,67,L,2398014,2398338,326,567.9,570.0,4277,left
47,2,binary,17,1,postResponse,2397056.0,2398290.0,1234.0,67,L,2398406,2398640,236,1467.9,542.9,4182,right
47,2,binary,18,2,fixationCross,2398990.0,2399840.0,850.0,68,L,2398714,2398728,16,1457.2,544.4,4310,right
47,2,binary,18,2,trial,2398990.0,2399840.0,850.0,68,L,2398768,2399210,444,1121.6,513.1,4772,NA
47,2,binary,18,2,trial,2398990.0,2399840.0,850.0,68,L,2399246,2399418,174,1345.3,618.6,4991,right
47,2,binary,18,2,trial,2398990.0,2399840.0,850.0,68,L,2399444,2399754,312,1498.0,560.5,4425,right
47,2,binary,18,2,postResponse,2398990.0,2399840.0,850.0,68,L,2399820,2400188,370,642.1,481.6,4380,left
47,2,binary,19,2,trial,2400574.0,2402090.0,1516.0,69,L,2400338,2400796,460,1099.9,539.1,4861,NA
47,2,binary,19,2,trial,2400574.0,2402090.0,1516.0,69,L,2400840,2401178,340,1376.8,570.2,4980,right
47,2,binary,19,2,trial,2400574.0,2402090.0,1516.0,69,L,2401242,2401536,296,682.0,608.0,4984,left
47,2,binary,19,2,trial,2400574.0,2402090.0,1516.0,69,L,2401558,2401812,256,645.0,519.2,4704,left
47,2,binary,19,2,postResponse,2400574.0,2402090.0,1516.0,69,L,2401876,2402438,564,1468.0,548.0,4649,right
47,2,binary,20,2,trial,2402774.0,2403723.0,949.0,70,L,2402512,2402842,332,1147.4,524.0,5227,NA
47,2,binary,20,2,trial,2402774.0,2403723.0,949.0,70,L,2402872,2403076,206,977.3,525.9,5346,NA
47,2,binary,20,2,trial,2402774.0,2403723.0,949.0,70,L,2403122,2403354,234,1344.0,596.0,4850,right
47,2,binary,20,2,trial,2402774.0,2403723.0,949.0,70,L,2403402,2403618,218,883.2,499.6,4442,NA
47,2,binary,20,2,trial,2402774.0,2403723.0,949.0,70,L,2403658,2403806,150,630.5,406.2,4269,left
47,2,binary,20,2,postResponse,2402774.0,2403723.0,949.0,70,L,2403824,2404072,250,565.9,370.5,4356,left
47,2,binary,21,2,trial,2404441.0,2405257.0,816.0,71,L,2404172,2404504,334,882.9,463.1,4754,NA
47,2,binary,21,2,trial,2404441.0,2405257.0,816.0,71,L,2404528,2404676,150,1005.7,545.2,5042,NA
47,2,binary,21,2,trial,2404441.0,2405257.0,816.0,71,L,2404728,2405136,410,1431.9,575.1,4751,right
47,2,binary,21,2,trial,2404441.0,2405257.0,816.0,71,L,2405202,2405506,306,651.9,440.8,4310,left
47,2,binary,21,2,trial,2404441.0,2405257.0,816.0,71,L,2405520,2405540,22,658.4,487.8,4262,left
47,2,binary,21,2,postResponse,2404441.0,2405257.0,816.0,71,L,2405568,2405604,38,700.6,528.1,4222,left
47,2,binary,22,1,trial,2405957.0,2407140.0,1183.0,72,L,2405678,2406016,340,718.2,496.9,4649,left
47,2,binary,22,1,trial,2405957.0,2407140.0,1183.0,72,L,2406054,2406232,180,974.5,517.4,4981,NA
47,2,binary,22,1,trial,2405957.0,2407140.0,1183.0,72,L,2406270,2406422,154,683.5,511.5,4770,left
47,2,binary,22,1,trial,2405957.0,2407140.0,1183.0,72,L,2406486,2406960,476,1485.7,574.5,4407,right
47,2,binary,22,1,postResponse,2405957.0,2407140.0,1183.0,72,L,2407028,2407488,462,610.4,539.1,4506,left
47,2,binary,23,1,trial,2407840.0,2408707.0,867.0,73,L,2407562,2408042,482,983.0,506.2,4816,NA
47,2,binary,23,1,trial,2407840.0,2408707.0,867.0,73,L,2408098,2408176,80,1366.4,588.1,5111,right
47,2,binary,23,1,trial,2407840.0,2408707.0,867.0,73,L,2408242,2408758,518,525.5,576.1,4568,left
47,2,binary,23,1,trial,2407840.0,2408707.0,867.0,73,L,2408822,2409006,186,1302.2,535.4,4343,right
47,2,binary,24,2,trial,2409424.0,2410207.0,783.0,74,L,2409154,2409494,342,1181.2,501.3,4798,NA
47,2,binary,24,2,trial,2409424.0,2410207.0,783.0,74,L,2409522,2409688,168,1020.4,549.9,5181,NA
47,2,binary,24,2,trial,2409424.0,2410207.0,783.0,74,L,2409740,2410090,352,1413.4,563.3,4565,right
47,2,binary,24,2,trial,2409424.0,2410207.0,783.0,74,L,2410156,2410404,250,613.7,532.7,4140,left
47,2,binary,24,2,trial,2409424.0,2410207.0,783.0,74,L,2410416,2410434,20,618.7,568.1,4101,left
47,2,binary,25,1,fixationCross,2410890.0,2411607.0,717.0,75,L,2410628,2410734,108,846.5,463.3,4173,NA
47,2,binary,25,1,trial,2410890.0,2411607.0,717.0,75,L,2410772,2411118,348,1010.6,514.4,4552,NA
47,2,binary,25,1,trial,2410890.0,2411607.0,717.0,75,L,2411164,2411328,166,631.4,512.2,4820,left
47,2,binary,25,1,trial,2410890.0,2411607.0,717.0,75,L,2411352,2411600,250,504.6,467.8,4551,left
47,2,binary,25,1,postResponse,2410890.0,2411607.0,717.0,75,L,2411666,2411952,288,1458.2,587.8,4319,right
47,2,binary,26,2,trial,2436773.0,2437858.0,1085.0,76,L,2436483,2436985,504,944.3,538.8,5840,NA
47,2,binary,26,2,trial,2436773.0,2437858.0,1085.0,76,L,2437035,2437241,208,523.9,484.3,5455,left
47,2,binary,26,2,trial,2436773.0,2437858.0,1085.0,76,L,2437309,2437525,218,1374.0,552.1,4670,right
47,2,binary,26,2,postResponse,2436773.0,2437858.0,1085.0,76,L,2437547,2438193,648,1471.9,589.4,4508,right
47,2,binary,27,1,trial,2438541.0,2439390.0,849.0,77,L,2438267,2438597,332,1105.4,529.7,5107,NA
47,2,binary,27,1,trial,2438541.0,2439390.0,849.0,77,L,2438623,2438773,152,960.1,528.8,5552,NA
47,2,binary,27,1,trial,2438541.0,2439390.0,849.0,77,L,2438817,2439355,540,567.5,537.6,5264,left
47,2,binary,27,1,postResponse,2438541.0,2439390.0,849.0,77,L,2439423,2439725,304,1463.7,600.0,4571,right
47,2,binary,28,1,fixationCross,2440058.0,2440874.0,816.0,78,L,2439799,2439817,20,1462.1,597.5,4534,right
47,2,binary,28,1,trial,2440058.0,2440874.0,816.0,78,L,2439875,2440147,274,934.4,498.4,4845,NA
47,2,binary,28,1,trial,2440058.0,2440874.0,816.0,78,L,2440167,2440285,120,980.0,515.1,5135,NA
47,2,binary,28,1,trial,2440058.0,2440874.0,816.0,78,L,2440341,2440517,178,1454.4,547.9,4961,right
47,2,binary,28,1,postResponse,2440058.0,2440874.0,816.0,78,L,2440583,2441207,626,535.3,490.3,4594,left
47,2,binary,29,2,trial,2441591.0,2442424.0,833.0,79,L,2441341,2441639,300,1146.3,528.8,4431,NA
47,2,binary,29,2,trial,2441591.0,2442424.0,833.0,79,L,2441665,2441851,188,989.4,530.7,4780,NA
47,2,binary,29,2,trial,2441591.0,2442424.0,833.0,79,L,2441893,2441953,62,724.6,490.9,4878,left
47,2,binary,29,2,trial,2441591.0,2442424.0,833.0,79,L,2442011,2442223,214,1450.2,588.6,4526,right
47,2,binary,29,2,trial,2441591.0,2442424.0,833.0,79,L,2442235,2442671,438,1484.3,594.3,4381,right
47,2,binary,30,1,trial,2443157.0,2444074.0,917.0,80,L,2442869,2443205,338,812.3,485.6,4702,NA
47,2,binary,30,1,trial,2443157.0,2444074.0,917.0,80,L,2443231,2443419,190,994.8,508.9,4867,NA
47,2,binary,30,1,trial,2443157.0,2444074.0,917.0,80,L,2443463,2443731,270,1436.9,526.1,4517,right
47,2,binary,30,1,trial,2443157.0,2444074.0,917.0,80,L,2443795,2443953,160,562.0,568.6,4402,left
47,2,binary,30,1,postResponse,2443157.0,2444074.0,917.0,80,L,2443971,2444407,438,495.7,557.7,4347,left
47,2,binary,31,1,trial,2444741.0,2445524.0,783.0,81,L,2444523,2444817,296,820.8,528.6,4555,NA
47,2,binary,31,1,trial,2444741.0,2445524.0,783.0,81,L,2444849,2444981,134,991.8,531.5,4815,NA
47,2,binary,31,1,trial,2444741.0,2445524.0,783.0,81,L,2445023,2445177,156,1349.5,533.7,4748,right
47,2,binary,31,1,postResponse,2444741.0,2445524.0,783.0,81,L,2445237,2445879,644,611.4,523.1,4422,left
47,2,binary,32,2,fixationCross,2446224.0,2446924.0,700.0,82,L,2445953,2446175,224,610.7,517.9,4487,left
47,2,binary,32,2,trial,2446224.0,2446924.0,700.0,82,L,2446227,2446421,196,1027.7,528.1,4799,NA
47,2,binary,32,2,trial,2446224.0,2446924.0,700.0,82,L,2446463,2446619,158,1404.2,555.4,4793,right
47,2,binary,32,2,trial,2446224.0,2446924.0,700.0,82,L,2446633,2446953,322,1449.6,562.4,4514,right
47,2,binary,32,2,postResponse,2446224.0,2446924.0,700.0,82,L,2447019,2447257,240,603.9,503.7,4399,left
47,2,binary,33,1,trial,2447624.0,2448357.0,733.0,83,L,2447357,2447847,492,937.7,478.0,4784,NA
47,2,binary,33,1,trial,2447624.0,2448357.0,733.0,83,L,2447881,2448079,200,719.3,546.5,5014,left
47,2,binary,33,1,trial,2447624.0,2448357.0,733.0,83,L,2448103,2448269,168,581.3,486.5,4609,left
47,2,binary,33,1,postResponse,2447624.0,2448357.0,733.0,83,L,2448293,2448701,410,435.0,434.1,4300,left
47,2,binary,34,1,trial,2449073.0,2449908.0,835.0,84,L,2448821,2449143,324,911.9,477.9,4612,NA
47,2,binary,34,1,trial,2449073.0,2449908.0,835.0,84,L,2449169,2449361,194,1021.1,522.9,4858,NA
47,2,binary,34,1,trial,2449073.0,2449908.0,835.0,84,L,2449405,2449539,136,1374.5,610.6,4692,right
47,2,binary,34,1,postResponse,2449073.0,2449908.0,835.0,84,L,2449601,2450255,656,616.7,450.3,4355,left
47,2,binary,35,2,fixationCross,2450640.0,2451591.0,951.0,85,L,2450355,2450521,168,611.1,456.4,4505,left
47,2,binary,35,2,trial,2450640.0,2451591.0,951.0,85,L,2450559,2450829,272,821.0,476.6,4866,NA
47,2,binary,35,2,trial,2450640.0,2451591.0,951.0,85,L,2450881,2451039,160,1335.7,540.8,4925,right
47,2,binary,35,2,postResponse,2450640.0,2451591.0,951.0,85,L,2451063,2451941,880,1492.7,549.3,4428,right
47,2,binary,36,1,trial,2452307.0,2453007.0,700.0,86,L,2452095,2452559,466,792.7,478.9,5019,NA
47,2,binary,36,1,postResponse,2452307.0,2453007.0,700.0,86,L,2452583,2453353,772,658.4,499.9,4641,left
47,2,binary,37,2,fixationCross,2453708.0,2454457.0,749.0,87,L,2453427,2453567,142,646.0,495.3,4710,left
47,2,binary,37,2,trial,2453708.0,2454457.0,749.0,87,L,2453643,2453909,268,1215.9,520.4,4971,right
47,2,binary,37,2,trial,2453708.0,2454457.0,749.0,87,L,2453933,2454091,160,1431.6,545.0,4909,right
47,2,binary,37,2,postResponse,2453708.0,2454457.0,749.0,87,L,2454103,2454791,690,1474.9,539.5,4505,right
47,2,binary,38,1,trial,2455174.0,2455991.0,817.0,88,L,2454899,2455355,458,793.4,478.6,5089,NA
47,2,binary,38,1,trial,2455174.0,2455991.0,817.0,88,L,2455393,2455989,598,594.6,535.8,4764,left
47,2,binary,38,1,trial,2455174.0,2455991.0,817.0,88,L,2456055,2456307,254,1489.0,564.9,4369,right
47,2,binary,39,2,trial,2456691.0,2457507.0,816.0,89,L,2456411,2456731,322,796.0,487.1,4578,NA
47,2,binary,39,2,trial,2456691.0,2457507.0,816.0,89,L,2456759,2456975,218,1003.0,534.8,4978,NA
47,2,binary,39,2,trial,2456691.0,2457507.0,816.0,89,L,2457019,2457349,332,1394.0,570.5,4633,right
47,2,binary,39,2,postResponse,2456691.0,2457507.0,816.0,89,L,2457363,2457853,492,1434.2,573.6,4377,right
47,2,binary,40,1,trial,2458224.0,2459074.0,850.0,90,L,2457953,2458283,332,1424.3,570.1,4658,right
47,2,binary,40,1,trial,2458224.0,2459074.0,850.0,90,L,2458325,2458461,138,1052.3,561.4,5124,NA
47,2,binary,40,1,postResponse,2458224.0,2459074.0,850.0,90,L,2458505,2459421,918,743.9,530.4,4504,NA
47,2,binary,41,2,fixationCross,2459740.0,2460508.0,768.0,91,L,2459495,2459675,182,726.7,535.7,4789,left
47,2,binary,41,2,trial,2459740.0,2460508.0,768.0,91,L,2459701,2459943,244,859.7,505.7,5037,NA
47,2,binary,41,2,postResponse,2459740.0,2460508.0,768.0,91,L,2459999,2460849,852,1424.0,563.5,4511,right
47,2,binary,42,1,trial,2461207.0,2461924.0,717.0,92,L,2460985,2461427,444,895.8,488.7,4796,NA
47,2,binary,42,1,postResponse,2461207.0,2461924.0,717.0,92,L,2461467,2462273,808,609.2,487.4,4611,left
47,2,binary,43,2,trial,2462624.0,2463458.0,834.0,93,L,2462353,2462879,528,677.1,494.9,4948,left
47,2,binary,43,2,trial,2462624.0,2463458.0,834.0,93,L,2462935,2463075,142,1267.8,555.9,4734,right
47,2,binary,43,2,trial,2462624.0,2463458.0,834.0,93,L,2463099,2463307,210,1448.0,529.0,4189,right
47,2,binary,43,2,postResponse,2462624.0,2463458.0,834.0,93,L,2463321,2463807,488,1458.6,495.5,3987,right
47,2,binary,44,1,fixationCross,2464158.0,2465124.0,966.0,94,L,2463881,2463895,16,1442.7,497.8,4182,right
47,2,binary,44,1,trial,2464158.0,2465124.0,966.0,94,L,2463927,2464231,306,1149.7,472.7,4572,NA
47,2,binary,44,1,trial,2464158.0,2465124.0,966.0,94,L,2464259,2464459,202,1015.4,539.2,5025,NA
47,2,binary,44,1,postResponse,2464158.0,2465124.0,966.0,94,L,2464503,2465469,968,702.6,493.5,4400,left
47,2,binary,45,1,trial,2465807.0,2467358.0,1551.0,95,L,2465543,2466017,476,690.1,489.9,4730,left
47,2,binary,45,1,trial,2465807.0,2467358.0,1551.0,95,L,2466071,2466237,168,1234.3,535.2,4690,right
47,2,binary,45,1,trial,2465807.0,2467358.0,1551.0,95,L,2466271,2466829,560,1488.3,549.8,4067,right
47,2,binary,45,1,trial,2465807.0,2467358.0,1551.0,95,L,2466907,2467069,164,524.3,516.9,4399,left
47,2,binary,45,1,postResponse,2465807.0,2467358.0,1551.0,95,L,2467089,2467693,606,457.9,457.2,4407,left
47,2,binary,46,1,fixationCross,2468042.0,2469074.0,1032.0,96,L,2467771,2467971,202,640.6,439.1,4666,left
47,2,binary,46,1,trial,2468042.0,2469074.0,1032.0,96,L,2468011,2468223,214,866.9,482.7,4861,NA
47,2,binary,46,1,trial,2468042.0,2469074.0,1032.0,96,L,2468259,2468431,174,620.3,540.2,4902,left
47,2,binary,46,1,trial,2468042.0,2469074.0,1032.0,96,L,2468449,2468783,336,552.4,543.1,4454,left
47,2,binary,46,1,trial,2468042.0,2469074.0,1032.0,96,L,2468855,2469339,486,1440.1,577.9,4176,right
47,2,binary,46,1,postResponse,2468042.0,2469074.0,1032.0,96,L,2469391,2469421,32,946.7,509.0,4465,NA
47,2,binary,47,2,trial,2469741.0,2470608.0,867.0,97,L,2469495,2469979,486,929.4,502.6,4861,NA
47,2,binary,47,2,trial,2469741.0,2470608.0,867.0,97,L,2470039,2470293,256,1404.7,623.3,4716,right
47,2,binary,47,2,postResponse,2469741.0,2470608.0,867.0,97,L,2470313,2470937,626,1502.9,600.6,4306,right
47,2,binary,48,1,trial,2471258.0,2472241.0,983.0,98,L,2471069,2471511,444,1089.5,546.8,4808,NA
47,2,binary,48,1,trial,2471258.0,2472241.0,983.0,98,L,2471521,2471627,108,1063.8,539.7,4981,NA
47,2,binary,48,1,trial,2471258.0,2472241.0,983.0,98,L,2471671,2471885,216,1448.4,579.0,4705,right
47,2,binary,48,1,postResponse,2471258.0,2472241.0,983.0,98,L,2471951,2472587,638,600.0,504.2,4752,left
47,2,binary,49,2,fixationCross,2472924.0,2473958.0,1034.0,99,L,2472661,2472741,82,597.6,493.0,4624,left
47,2,binary,49,2,trial,2472924.0,2473958.0,1034.0,99,L,2472789,2473125,338,905.6,501.9,4868,NA
47,2,binary,49,2,trial,2472924.0,2473958.0,1034.0,99,L,2473183,2473391,210,1407.8,578.9,4913,right
47,2,binary,49,2,postResponse,2472924.0,2473958.0,1034.0,99,L,2473407,2474291,886,1494.3,524.9,4487,right
47,2,binary,50,2,fixationCross,2474641.0,2475608.0,967.0,100,L,2474365,2474451,88,1492.9,521.8,4653,right
47,2,binary,50,2,trial,2474641.0,2475608.0,967.0,100,L,2474483,2474691,210,1303.1,508.5,4907,right
47,2,binary,50,2,trial,2474641.0,2475608.0,967.0,100,L,2474719,2474935,218,1061.5,537.6,5173,NA
47,2,binary,50,2,trial,2474641.0,2475608.0,967.0,100,L,2474981,2475173,194,1437.3,614.2,4671,right
47,2,binary,50,2,postResponse,2474641.0,2475608.0,967.0,100,L,2475189,2475929,742,1484.0,626.0,4446,right
47,3,valuation,1,4,fixationCross,2545292.0,2547676.0,2384.0,101,L,2545036,2545184,150,1001.6,619.4,6131,NA
47,3,valuation,1,4,trial,2545292.0,2547676.0,2384.0,101,L,2545198,2545418,222,1031.1,586.6,6083,NA
47,3,valuation,1,4,trial,2545292.0,2547676.0,2384.0,101,L,2545572,2545732,162,485.5,397.3,5531,likertVertical
47,3,valuation,1,4,trial,2545292.0,2547676.0,2384.0,101,L,2545744,2546022,280,462.4,405.4,5234,likertVertical
47,3,valuation,1,4,trial,2545292.0,2547676.0,2384.0,101,L,2546096,2546272,178,1443.1,525.4,5117,right
47,3,valuation,1,4,trial,2545292.0,2547676.0,2384.0,101,L,2546288,2546642,356,1520.0,522.8,4918,right
47,3,valuation,1,4,trial,2545292.0,2547676.0,2384.0,101,L,2546712,2546862,152,530.6,430.6,4631,likertVertical
47,3,valuation,1,4,trial,2545292.0,2547676.0,2384.0,101,L,2546872,2547006,136,495.1,449.1,4603,likertVertical
47,3,valuation,1,4,trial,2545292.0,2547676.0,2384.0,101,L,2547076,2547408,334,1512.4,549.0,4895,right
47,3,valuation,1,4,trial,2545292.0,2547676.0,2384.0,101,L,2547480,2547642,164,512.0,592.2,4892,likertVertical
47,3,valuation,1,4,postResponse,2545292.0,2547676.0,2384.0,101,L,2547654,2548024,372,508.0,562.4,5007,likertVertical
47,3,valuation,2,3,trial,2548359.0,2550159.0,1800.0,102,L,2548226,2548430,206,577.0,462.2,5464,likertVertical
47,3,valuation,2,3,trial,2548359.0,2550159.0,1800.0,102,L,2548480,2548600,122,937.3,503.3,5566,NA
47,3,valuation,2,3,trial,2548359.0,2550159.0,1800.0,102,L,2548658,2548872,216,1450.1,535.1,5243,right
47,3,valuation,2,3,trial,2548359.0,2550159.0,1800.0,102,L,2548896,2549264,370,1613.9,529.8,4797,right
47,3,valuation,2,3,trial,2548359.0,2550159.0,1800.0,102,L,2549344,2550050,708,504.3,602.3,5008,likertVertical
47,3,valuation,2,3,trial,2548359.0,2550159.0,1800.0,102,L,2550092,2550418,328,628.5,793.8,5493,likertVertical
47,3,valuation,2,3,postResponse,2548359.0,2550159.0,1800.0,102,L,2550462,2550504,44,772.6,594.1,5426,NA
47,3,valuation,3,5,fixationCross,2550809.0,2552809.0,2000.0,103,L,2550580,2550772,194,786.4,576.9,5454,NA
47,3,valuation,3,5,trial,2550809.0,2552809.0,2000.0,103,L,2550936,2551074,140,742.8,450.6,5569,NA
47,3,valuation,3,5,trial,2550809.0,2552809.0,2000.0,103,L,2551122,2551174,54,521.3,296.8,5588,likertVertical
47,3,valuation,3,5,trial,2550809.0,2552809.0,2000.0,103,L,2551210,2551344,136,583.5,268.7,5546,likertVertical
47,3,valuation,3,5,trial,2550809.0,2552809.0,2000.0,103,L,2551410,2551960,552,1572.1,566.6,4952,right
47,3,valuation,3,5,trial,2550809.0,2552809.0,2000.0,103,L,2552030,2552156,128,512.1,573.6,4840,likertVertical
47,3,valuation,3,5,trial,2550809.0,2552809.0,2000.0,103,L,2552176,2552274,100,510.3,522.0,4896,likertVertical
47,3,valuation,3,5,trial,2550809.0,2552809.0,2000.0,103,L,2552306,2552766,462,490.1,468.6,5210,likertVertical
47,3,valuation,3,5,postResponse,2550809.0,2552809.0,2000.0,103,L,2552838,2553142,306,1507.8,530.1,5481,right
47,3,valuation,4,4,trial,2553492.0,2554909.0,1417.0,104,L,2553328,2553656,330,1284.9,475.8,5384,right
47,3,valuation,4,4,trial,2553492.0,2554909.0,1417.0,104,L,2553680,2553942,264,1430.2,498.0,5489,right
47,3,valuation,4,4,trial,2553492.0,2554909.0,1417.0,104,L,2553954,2554120,168,1492.8,496.8,5015,right
47,3,valuation,4,4,trial,2553492.0,2554909.0,1417.0,104,L,2554190,2554740,552,519.2,552.9,4973,likertVertical
47,3,valuation,4,4,trial,2553492.0,2554909.0,1417.0,104,L,2554810,2554980,172,1492.6,478.7,5325,right
47,3,valuation,4,4,postResponse,2553492.0,2554909.0,1417.0,104,L,2554992,2555242,252,1504.0,495.8,5250,right
47,3,valuation,5,6,trial,2555609.0,2557925.0,2316.0,105,L,2555342,2555672,332,1502.1,485.2,5319,right
47,3,valuation,5,6,trial,2555609.0,2557925.0,2316.0,105,L,2555708,2555796,90,1212.8,494.9,5583,right
47,3,valuation,5,6,trial,2555609.0,2557925.0,2316.0,105,L,2555822,2556100,280,1422.2,538.4,5379,right
47,3,valuation,5,6,trial,2555609.0,2557925.0,2316.0,105,L,2556166,2557762,1598,519.3,375.5,4750,likertVertical
47,3,valuation,5,6,trial,2555609.0,2557925.0,2316.0,105,L,2557772,2557944,174,492.6,376.0,5269,likertVertical
47,3,valuation,5,6,trial,2555609.0,2557925.0,2316.0,105,L,2558016,2558190,176,1473.9,584.1,5278,right
47,3,valuation,6,4,trial,2558592.0,2560242.0,1650.0,106,L,2558354,2558676,324,936.2,330.9,5043,NA
47,3,valuation,6,4,trial,2558592.0,2560242.0,1650.0,106,L,2558702,2558876,176,966.7,513.9,5382,NA
47,3,valuation,6,4,trial,2558592.0,2560242.0,1650.0,106,L,2558924,2559162,240,515.7,466.7,5364,likertVertical
47,3,valuation,6,4,trial,2558592.0,2560242.0,1650.0,106,L,2559238,2559378,142,1453.7,566.9,5308,right
47,3,valuation,6,4,trial,2558592.0,2560242.0,1650.0,106,L,2559396,2559588,194,1439.5,507.9,5140,right
47,3,valuation,6,4,trial,2558592.0,2560242.0,1650.0,106,L,2559598,2559846,250,1463.2,488.8,4826,right
47,3,valuation,6,4,trial,2558592.0,2560242.0,1650.0,106,L,2559908,2560258,352,538.2,568.0,4775,likertVertical
47,3,valuation,6,4,postResponse,2558592.0,2560242.0,1650.0,106,L,2560328,2560580,254,1551.2,471.4,5007,right
47,3,valuation,7,5,trial,2560926.0,2562559.0,1633.0,107,L,2560806,2561140,336,1485.2,432.8,5234,right
47,3,valuation,7,5,trial,2560926.0,2562559.0,1633.0,107,L,2561166,2561422,258,1400.8,540.5,5168,right
47,3,valuation,7,5,trial,2560926.0,2562559.0,1633.0,107,L,2561432,2561890,460,1398.5,545.1,4505,right
47,3,valuation,7,5,trial,2560926.0,2562559.0,1633.0,107,L,2561960,2562448,490,517.4,455.9,4730,likertVertical
47,3,valuation,7,5,postResponse,2560926.0,2562559.0,1633.0,107,L,2562522,2562906,386,1485.0,532.8,4737,right
47,3,valuation,8,6,fixationCross,2563226.0,2565709.0,2483.0,108,L,2562980,2563084,106,1493.0,525.1,4623,right
47,3,valuation,8,6,trial,2563226.0,2565709.0,2483.0,108,L,2563108,2563386,280,1380.7,453.9,4918,right
47,3,valuation,8,6,trial,2563226.0,2565709.0,2483.0,108,L,2563412,2563754,344,1467.0,504.5,5040,right
47,3,valuation,8,6,trial,2563226.0,2565709.0,2483.0,108,L,2563768,2563990,224,1526.8,479.8,4574,right
47,3,valuation,8,6,trial,2563226.0,2565709.0,2483.0,108,L,2564064,2564212,150,502.8,414.1,4457,likertVertical
47,3,valuation,8,6,trial,2563226.0,2565709.0,2483.0,108,L,2564228,2564880,654,518.6,369.2,4630,likertVertical
47,3,valuation,8,6,trial,2563226.0,2565709.0,2483.0,108,L,2564946,2565240,296,1510.0,448.1,4789,right
47,3,valuation,8,6,trial,2563226.0,2565709.0,2483.0,108,L,2565312,2565460,150,539.2,388.6,4676,likertVertical
47,3,valuation,8,6,trial,2563226.0,2565709.0,2483.0,108,L,2565474,2565602,130,523.2,361.8,4722,likertVertical
47,3,valuation,8,6,trial,2563226.0,2565709.0,2483.0,108,L,2565630,2565820,192,690.6,265.5,4803,likertVertical
47,3,valuation,8,6,trial,2563226.0,2565709.0,2483.0,108,L,2565878,2565984,108,1362.2,377.5,4918,right
47,3,valuation,9,4,trial,2566392.0,2568392.0,2000.0,109,L,2566128,2566550,424,1085.4,342.3,5159,NA
47,3,valuation,9,4,trial,2566392.0,2568392.0,2000.0,109,L,2566594,2566778,186,1385.0,519.8,5301,right
47,3,valuation,9,4,trial,2566392.0,2568392.0,2000.0,109,L,2566800,2567118,320,1491.4,544.7,4734,right
47,3,valuation,9,4,trial,2566392.0,2568392.0,2000.0,109,L,2567128,2567322,196,1530.9,523.6,4356,right
47,3,valuation,9,4,trial,2566392.0,2568392.0,2000.0,109,L,2567390,2567902,514,530.2,452.3,4510,likertVertical
47,3,valuation,9,4,trial,2566392.0,2568392.0,2000.0,109,L,2567976,2568312,338,1526.5,546.0,4933,right
47,3,valuation,9,4,trial,2566392.0,2568392.0,2000.0,109,L,2568332,2568676,346,1490.9,571.1,4625,right
47,3,valuation,10,5,fixationCross,2569093.0,2570525.0,1432.0,110,L,2568836,2569060,226,1176.7,444.7,4732,NA
47,3,valuation,10,5,trial,2569093.0,2570525.0,1432.0,110,L,2569098,2569370,274,1520.7,444.9,5039,right
47,3,valuation,10,5,trial,2569093.0,2570525.0,1432.0,110,L,2569398,2569864,468,1458.0,560.2,4712,right
47,3,valuation,10,5,trial,2569093.0,2570525.0,1432.0,110,L,2569878,2570000,124,1530.8,555.1,4309,right
47,3,valuation,10,5,trial,2569093.0,2570525.0,1432.0,110,L,2570074,2570328,256,528.1,415.9,4363,likertVertical
47,3,valuation,10,5,trial,2569093.0,2570525.0,1432.0,110,L,2570348,2570496,150,526.0,354.5,4508,likertVertical
47,3,valuation,10,5,trial,2569093.0,2570525.0,1432.0,110,L,2570562,2570778,218,1453.3,542.7,4764,right
47,3,valuation,11,6,fixationCross,2571176.0,2572992.0,1816.0,111,L,2570950,2571100,152,1097.3,445.5,4760,NA
47,3,valuation,11,6,trial,2571176.0,2572992.0,1816.0,111,L,2571130,2571342,214,1302.6,473.5,5011,right
47,3,valuation,11,6,trial,2571176.0,2572992.0,1816.0,111,L,2571368,2571728,362,1531.8,462.7,4963,right
47,3,valuation,11,6,trial,2571176.0,2572992.0,1816.0,111,L,2571746,2572032,288,1547.0,514.4,4403,right
47,3,valuation,11,6,trial,2571176.0,2572992.0,1816.0,111,L,2572106,2572258,154,550.1,362.1,4349,likertVertical
47,3,valuation,11,6,trial,2571176.0,2572992.0,1816.0,111,L,2572268,2572848,582,515.5,362.3,4555,likertVertical
47,3,valuation,11,6,postResponse,2571176.0,2572992.0,1816.0,111,L,2572928,2573326,400,1565.7,568.7,4700,right
47,3,valuation,12,6,trial,2573659.0,2575659.0,2000.0,112,L,2573446,2573678,234,1511.3,394.4,4500,right
47,3,valuation,12,6,trial,2573659.0,2575659.0,2000.0,112,L,2573702,2573914,214,1517.4,457.8,4779,right
47,3,valuation,12,6,trial,2573659.0,2575659.0,2000.0,112,L,2573938,2574170,234,1531.2,538.9,4765,right
47,3,valuation,12,6,trial,2573659.0,2575659.0,2000.0,112,L,2574186,2574374,190,1608.5,562.4,4350,right
47,3,valuation,12,6,trial,2573659.0,2575659.0,2000.0,112,L,2574450,2574628,180,549.2,357.5,4145,likertVertical
47,3,valuation,12,6,trial,2573659.0,2575659.0,2000.0,112,L,2574636,2575536,902,535.5,344.4,4340,likertVertical
47,3,valuation,12,6,trial,2573659.0,2575659.0,2000.0,112,L,2575618,2575886,270,1562.9,533.9,4529,right
47,3,valuation,13,5,trial,2576326.0,2578143.0,1817.0,113,L,2576078,2576400,324,1523.3,422.1,4464,right
47,3,valuation,13,5,trial,2576326.0,2578143.0,1817.0,113,L,2576436,2576504,70,1090.5,531.3,4805,NA
47,3,valuation,13,5,trial,2576326.0,2578143.0,1817.0,113,L,2576548,2576870,324,1535.6,454.1,4748,right
47,3,valuation,13,5,trial,2576326.0,2578143.0,1817.0,113,L,2576884,2577574,692,1545.6,488.5,4218,right
47,3,valuation,13,5,trial,2576326.0,2578143.0,1817.0,113,L,2577596,2577816,222,1554.9,437.9,4177,right
47,3,valuation,13,5,trial,2576326.0,2578143.0,1817.0,113,L,2577884,2578396,514,557.7,430.9,4371,likertVertical
47,3,valuation,14,5,fixationCross,2578826.0,2580859.0,2033.0,114,L,2578594,2578782,190,894.6,437.2,4779,NA
47,3,valuation,14,5,trial,2578826.0,2580859.0,2033.0,114,L,2578846,2578958,114,1336.3,478.8,4809,right
47,3,valuation,14,5,trial,2578826.0,2580859.0,2033.0,114,L,2579008,2579092,86,1366.1,497.2,4884,right
47,3,valuation,14,5,trial,2578826.0,2580859.0,2033.0,114,L,2579118,2579324,208,1500.3,469.8,4746,right
47,3,valuation,14,5,trial,2578826.0,2580859.0,2033.0,114,L,2579338,2579964,628,1536.3,489.3,4327,right
47,3,valuation,14,5,trial,2578826.0,2580859.0,2033.0,114,L,2580022,2580166,146,928.6,469.4,4443,NA
47,3,valuation,14,5,trial,2578826.0,2580859.0,2033.0,114,L,2580198,2580418,222,536.4,477.2,4752,likertVertical
47,3,valuation,14,5,trial,2578826.0,2580859.0,2033.0,114,L,2580436,2580732,298,531.3,444.7,4968,likertVertical
47,3,valuation,14,5,trial,2578826.0,2580859.0,2033.0,114,L,2580806,2581058,254,1456.1,483.0,4885,right
47,3,valuation,15,4,trial,2581526.0,2582910.0,1384.0,115,L,2581472,2581536,66,1402.0,424.1,4798,right
47,3,valuation,15,4,trial,2581526.0,2582910.0,1384.0,115,L,2581560,2581778,220,1531.4,450.7,4995,right
47,3,valuation,15,4,trial,2581526.0,2582910.0,1384.0,115,L,2581802,2581928,128,1571.3,453.5,5017,right
47,3,valuation,15,4,trial,2581526.0,2582910.0,1384.0,115,L,2581946,2582506,562,1589.8,396.2,4613,right
47,3,valuation,15,4,trial,2581526.0,2582910.0,1384.0,115,L,2582576,2582842,268,552.1,497.3,4899,likertVertical
47,3,valuation,15,4,postResponse,2581526.0,2582910.0,1384.0,115,L,2582908,2583256,350,1437.7,528.3,5016,right
47,3,valuation,16,3,fixationCross,2583609.0,2584876.0,1267.0,116,L,2583356,2583478,124,1436.6,531.1,4826,right
47,3,valuation,16,3,trial,2583609.0,2584876.0,1267.0,116,L,2583504,2583824,322,1478.9,396.4,5019,right
47,3,valuation,16,3,trial,2583609.0,2584876.0,1267.0,116,L,2583854,2584034,182,1414.5,518.6,5154,right
47,3,valuation,16,3,trial,2583609.0,2584876.0,1267.0,116,L,2584054,2584550,498,1508.3,553.4,4734,right
47,3,valuation,16,3,trial,2583609.0,2584876.0,1267.0,116,L,2584622,2584934,314,570.6,538.3,4716,likertVertical
47,3,valuation,16,3,trial,2583609.0,2584876.0,1267.0,116,L,2584998,2585118,122,1431.6,528.1,4922,right
47,3,valuation,17,3,fixationCross,2585559.0,2586810.0,1251.0,117,L,2585320,2585422,104,1342.5,466.8,5066,right
47,3,valuation,17,3,trial,2585559.0,2586810.0,1251.0,117,L,2585450,2585800,352,1487.1,492.4,5296,right
47,3,valuation,17,3,trial,2585559.0,2586810.0,1251.0,117,L,2585818,2586080,264,1542.8,544.2,4979,right
47,3,valuation,17,3,trial,2585559.0,2586810.0,1251.0,117,L,2586090,2586448,360,1589.4,556.4,4387,right
47,3,valuation,17,3,trial,2585559.0,2586810.0,1251.0,117,L,2586520,2586778,260,585.0,556.1,4427,likertVertical
47,3,valuation,17,3,trial,2585559.0,2586810.0,1251.0,117,L,2586844,2587044,202,1526.2,570.8,4614,right
47,3,valuation,18,3,trial,2587509.0,2589459.0,1950.0,118,L,2587254,2587720,468,1544.9,444.4,4758,right
47,3,valuation,18,3,trial,2587509.0,2589459.0,1950.0,118,L,2587736,2588384,650,1580.5,476.7,4454,right
47,3,valuation,18,3,trial,2587509.0,2589459.0,1950.0,118,L,2588400,2588546,148,1587.2,412.9,3994,right
47,3,valuation,18,3,trial,2587509.0,2589459.0,1950.0,118,L,2588606,2589082,478,587.2,529.6,4376,likertVertical
47,3,valuation,18,3,trial,2587509.0,2589459.0,1950.0,118,L,2589100,2589364,266,593.8,567.5,4870,likertVertical
47,3,valuation,18,3,trial,2587509.0,2589459.0,1950.0,118,L,2589432,2589666,236,1547.7,426.2,4945,right
47,3,valuation,19,3,trial,2590092.0,2592076.0,1984.0,119,L,2590166,2590416,252,1592.7,432.6,4993,right
47,3,valuation,19,3,trial,2590092.0,2592076.0,1984.0,119,L,2590430,2590812,384,1600.7,476.1,4634,right
47,3,valuation,19,3,trial,2590092.0,2592076.0,1984.0,119,L,2590886,2590910,26,1479.4,456.6,4445,right
47,3,valuation,19,3,trial,2590092.0,2592076.0,1984.0,119,L,2590934,2591106,174,1449.4,464.8,4463,right
47,3,valuation,19,3,trial,2590092.0,2592076.0,1984.0,119,L,2591122,2591312,192,1478.6,491.1,4591,right
47,3,valuation,19,3,trial,2590092.0,2592076.0,1984.0,119,L,2591344,2591536,194,1595.1,425.3,4699,right
47,3,valuation,19,3,trial,2590092.0,2592076.0,1984.0,119,L,2591624,2591806,184,594.0,548.3,4975,likertVertical
47,3,valuation,19,3,trial,2590092.0,2592076.0,1984.0,119,L,2591820,2592026,208,579.1,550.7,5015,likertVertical
47,3,valuation,19,3,trial,2590092.0,2592076.0,1984.0,119,L,2592094,2592346,254,1410.8,489.9,4970,right
47,3,valuation,20,5,trial,2592743.0,2594110.0,1367.0,120,L,2593148,2593560,414,1552.1,506.3,4300,right
47,3,valuation,20,5,trial,2592743.0,2594110.0,1367.0,120,L,2593624,2594052,430,563.0,451.7,4095,likertVertical
47,3,valuation,20,5,trial,2592743.0,2594110.0,1367.0,120,L,2594118,2594328,212,1513.1,531.2,4472,right
47,3,valuation,21,4,fixationCross,2594776.0,2596427.0,1651.0,121,L,2594526,2594674,150,1441.0,367.3,4332,right
47,3,valuation,21,4,trial,2594776.0,2596427.0,1651.0,121,L,2594716,2594790,76,1443.5,391.0,4503,right
47,3,valuation,21,4,trial,2594776.0,2596427.0,1651.0,121,L,2594994,2595270,278,1599.2,467.6,4802,right
47,3,valuation,21,4,trial,2594776.0,2596427.0,1651.0,121,L,2595288,2595950,664,1583.5,518.4,4386,right
47,3,valuation,21,4,trial,2594776.0,2596427.0,1651.0,121,L,2596014,2596176,164,583.1,549.5,4783,likertVertical
47,3,valuation,21,4,trial,2594776.0,2596427.0,1651.0,121,L,2596186,2596392,208,569.3,525.6,4965,likertVertical
47,3,valuation,22,4,trial,2597093.0,2598793.0,1700.0,122,L,2596850,2597122,274,1512.0,481.3,4883,right
47,3,valuation,22,4,trial,2597093.0,2598793.0,1700.0,122,L,2597176,2597206,32,1499.2,482.8,5101,right
47,3,valuation,22,4,trial,2597093.0,2598793.0,1700.0,122,L,2597234,2597440,208,1497.5,484.1,5170,right
47,3,valuation,22,4,trial,2597093.0,2598793.0,1700.0,122,L,2597464,2597594,132,1600.5,485.8,4706,right
47,3,valuation,22,4,trial,2597093.0,2598793.0,1700.0,122,L,2597616,2598026,412,1595.7,379.6,4277,right
47,3,valuation,22,4,trial,2597093.0,2598793.0,1700.0,122,L,2598050,2598540,492,1596.5,442.2,4426,right
47,3,valuation,22,4,trial,2597093.0,2598793.0,1700.0,122,L,2598618,2598754,138,595.9,556.9,4622,likertVertical
47,3,valuation,22,4,trial,2597093.0,2598793.0,1700.0,122,L,2598770,2599006,238,558.3,510.2,4673,likertVertical
47,3,valuation,23,6,fixationCross,2599493.0,2601210.0,1717.0,123,L,2599240,2599316,78,1212.2,447.2,4692,right
47,3,valuation,23,6,trial,2599493.0,2601210.0,1717.0,123,L,2599386,2599716,332,1641.4,452.0,4830,right
47,3,valuation,23,6,trial,2599493.0,2601210.0,1717.0,123,L,2599732,2600294,564,1604.6,483.7,4538,right
47,3,valuation,23,6,trial,2599493.0,2601210.0,1717.0,123,L,2600352,2600548,198,570.4,403.3,4139,likertVertical
47,3,valuation,23,6,trial,2599493.0,2601210.0,1717.0,123,L,2600570,2601034,466,577.9,320.8,4158,likertVertical
47,3,valuation,23,6,trial,2599493.0,2601210.0,1717.0,123,L,2601104,2601446,344,1550.8,492.9,4696,right
47,3,valuation,24,4,trial,2601876.0,2603676.0,1800.0,124,L,2601632,2601960,330,1553.3,391.6,4655,right
47,3,valuation,24,4,trial,2601876.0,2603676.0,1800.0,124,L,2601990,2602068,80,1143.8,478.8,5034,NA
47,3,valuation,24,4,trial,2601876.0,2603676.0,1800.0,124,L,2602110,2602808,700,1597.2,474.9,4789,right
47,3,valuation,24,4,trial,2601876.0,2603676.0,1800.0,124,L,2602868,2603228,362,581.1,496.9,4725,likertVertical
47,3,valuation,24,4,trial,2601876.0,2603676.0,1800.0,124,L,2603246,2603408,164,564.7,433.4,4764,likertVertical
47,3,valuation,24,4,trial,2601876.0,2603676.0,1800.0,124,L,2603472,2603872,402,1608.8,495.4,4696,right
47,3,valuation,24,4,postResponse,2601876.0,2603676.0,1800.0,124,L,2603974,2604020,48,1586.7,381.1,4570,right
47,3,valuation,25,6,trial,2604342.0,2605993.0,1651.0,125,L,2604094,2604416,324,1583.9,386.2,4824,right
47,3,valuation,25,6,trial,2604342.0,2605993.0,1651.0,125,L,2604452,2604538,88,1129.4,495.1,5019,NA
47,3,valuation,25,6,trial,2604342.0,2605993.0,1651.0,125,L,2604752,2604962,212,1619.5,475.7,4513,right
47,3,valuation,25,6,trial,2604342.0,2605993.0,1651.0,125,L,2604974,2605474,502,1610.2,451.6,4159,right
47,3,valuation,25,6,trial,2604342.0,2605993.0,1651.0,125,L,2605532,2605674,144,573.5,413.5,4154,likertVertical
47,3,valuation,25,6,trial,2604342.0,2605993.0,1651.0,125,L,2605696,2605940,246,578.1,327.7,4254,likertVertical
47,3,valuation,25,6,trial,2604342.0,2605993.0,1651.0,125,L,2606078,2606194,118,1599.8,460.7,4573,right
47,3,valuation,26,6,fixationCross,2641560.0,2643610.0,2050.0,126,L,2641306,2641480,176,134.8,176.9,4454,NA
47,3,valuation,26,6,trial,2641560.0,2643610.0,2050.0,126,L,2641576,2641756,182,1004.8,470.2,4419,NA
47,3,valuation,26,6,trial,2641560.0,2643610.0,2050.0,126,L,2641800,2641976,178,537.2,439.0,4561,likertVertical
47,3,valuation,26,6,trial,2641560.0,2643610.0,2050.0,126,L,2641986,2642014,30,525.1,459.2,4659,likertVertical
47,3,valuation,26,6,trial,2641560.0,2643610.0,2050.0,126,L,2642090,2642292,204,1568.6,566.3,4843,right
47,3,valuation,26,6,trial,2641560.0,2643610.0,2050.0,126,L,2642306,2642662,358,1537.4,542.6,4730,right
47,3,valuation,26,6,trial,2641560.0,2643610.0,2050.0,126,L,2642728,2642886,160,498.5,460.1,4617,likertVertical
47,3,valuation,26,6,trial,2641560.0,2643610.0,2050.0,126,L,2642900,2643074,176,512.6,432.3,4680,likertVertical
47,3,valuation,26,6,trial,2641560.0,2643610.0,2050.0,126,L,2643094,2643558,466,506.7,384.0,4977,likertVertical
47,3,valuation,26,6,postResponse,2641560.0,2643610.0,2050.0,126,L,2643632,2643956,326,1531.4,571.4,5183,right
47,3,valuation,27,5,trial,2644277.0,2645760.0,1483.0,127,L,2644030,2644350,322,1543.1,575.6,5004,right
47,3,valuation,27,5,trial,2644277.0,2645760.0,1483.0,127,L,2644392,2644500,110,1160.7,549.8,5294,NA
47,3,valuation,27,5,trial,2644277.0,2645760.0,1483.0,127,L,2644542,2645008,468,1466.2,549.2,4887,right
47,3,valuation,27,5,trial,2644277.0,2645760.0,1483.0,127,L,2645076,2645680,606,523.6,451.0,4627,likertVertical
47,3,valuation,27,5,postResponse,2644277.0,2645760.0,1483.0,127,L,2645748,2646104,358,1449.6,544.5,4783,right
47,3,valuation,28,2,trial,2646427.0,2647660.0,1233.0,128,L,2646222,2646428,208,1318.4,461.1,4711,right
47,3,valuation,28,2,trial,2646427.0,2647660.0,1233.0,128,L,2646454,2646724,272,1427.8,523.0,4949,right
47,3,valuation,28,2,trial,2646427.0,2647660.0,1233.0,128,L,2646748,2647058,312,1527.8,568.5,4736,right
47,3,valuation,28,2,trial,2646427.0,2647660.0,1233.0,128,L,2647128,2647510,384,531.7,699.1,4852,likertVertical
47,3,valuation,28,2,trial,2646427.0,2647660.0,1233.0,128,L,2647534,2647720,188,510.8,732.5,5094,likertVertical
47,3,valuation,28,2,trial,2646427.0,2647660.0,1233.0,128,L,2647790,2647970,182,1475.3,555.0,5238,right
47,3,valuation,29,5,trial,2648327.0,2649577.0,1250.0,129,L,2648114,2648560,448,1297.7,409.3,5456,right
47,3,valuation,29,5,trial,2648327.0,2649577.0,1250.0,129,L,2648586,2648876,292,1418.3,502.4,5238,right
47,3,valuation,29,5,trial,2648327.0,2649577.0,1250.0,129,L,2648938,2649092,156,539.2,464.6,4579,likertVertical
47,3,valuation,29,5,trial,2648327.0,2649577.0,1250.0,129,L,2649106,2649224,120,524.8,444.3,4431,likertVertical
47,3,valuation,29,5,trial,2648327.0,2649577.0,1250.0,129,L,2649236,2649458,224,520.5,417.3,4419,likertVertical
47,3,valuation,29,5,trial,2648327.0,2649577.0,1250.0,129,L,2649526,2649796,272,1456.3,507.5,4589,right
47,3,valuation,30,3,fixationCross,2650227.0,2651743.0,1516.0,130,L,2649980,2650110,132,1313.6,376.1,4351,right
47,3,valuation,30,3,trial,2650227.0,2651743.0,1516.0,130,L,2650136,2650402,268,1383.8,416.1,4590,right
47,3,valuation,30,3,trial,2650227.0,2651743.0,1516.0,130,L,2650426,2650760,336,1488.4,503.0,4967,right
47,3,valuation,30,3,trial,2650227.0,2651743.0,1516.0,130,L,2650776,2651284,510,1547.0,505.9,4712,right
47,3,valuation,30,3,trial,2650227.0,2651743.0,1516.0,130,L,2651360,2651686,328,490.9,605.9,4890,likertVertical
47,3,valuation,30,3,trial,2650227.0,2651743.0,1516.0,130,L,2651754,2651968,216,1470.3,498.0,5000,right
47,3,valuation,31,4,trial,2652393.0,2653627.0,1234.0,131,L,2652150,2652448,300,1294.1,349.4,5111,right
47,3,valuation,31,4,trial,2652393.0,2653627.0,1234.0,131,L,2652474,2652580,108,1311.5,414.3,5247,right
47,3,valuation,31,4,trial,2652393.0,2653627.0,1234.0,131,L,2652606,2652828,224,1477.9,501.2,5101,right
47,3,valuation,31,4,trial,2652393.0,2653627.0,1234.0,131,L,2652856,2653122,268,1509.0,372.7,4664,right
47,3,valuation,31,4,trial,2652393.0,2653627.0,1234.0,131,L,2653188,2653566,380,520.9,482.1,4475,likertVertical
47,3,valuation,31,4,postResponse,2652393.0,2653627.0,1234.0,131,L,2653634,2653974,342,1459.7,468.4,4740,right
47,3,valuation,32,4,trial,2654310.0,2655776.0,1466.0,132,L,2654048,2654560,514,1451.9,460.7,4978,right
47,3,valuation,32,4,trial,2654310.0,2655776.0,1466.0,132,L,2654574,2655580,1008,1507.4,456.3,4301,right
47,3,valuation,32,4,trial,2654310.0,2655776.0,1466.0,132,L,2655650,2655804,156,565.8,491.8,4307,likertVertical
47,3,valuation,32,4,trial,2654310.0,2655776.0,1466.0,132,L,2655818,2655946,130,518.7,495.2,4417,likertVertical
47,3,valuation,33,6,trial,2656444.0,2658194.0,1750.0,133,L,2656196,2656650,456,1341.7,366.9,4722,right
47,3,valuation,33,6,trial,2656444.0,2658194.0,1750.0,133,L,2656678,2656928,252,1421.7,504.5,4682,right
47,3,valuation,33,6,trial,2656444.0,2658194.0,1750.0,133,L,2656942,2657360,420,1483.5,501.0,4246,right
47,3,valuation,33,6,trial,2656444.0,2658194.0,1750.0,133,L,2657380,2657506,128,1494.9,458.6,4162,right
47,3,valuation,33,6,trial,2656444.0,2658194.0,1750.0,133,L,2657530,2657760,232,1478.8,369.7,4303,right
47,3,valuation,33,6,trial,2656444.0,2658194.0,1750.0,133,L,2657834,2657988,156,505.3,439.3,4596,likertVertical
47,3,valuation,33,6,trial,2656444.0,2658194.0,1750.0,133,L,2658002,2658262,262,488.4,411.9,4641,likertVertical
47,3,valuation,33,6,trial,2656444.0,2658194.0,1750.0,133,L,2658308,2658440,134,893.4,409.5,4754,NA
47,3,valuation,34,5,fixationCross,2658860.0,2660260.0,1400.0,134,L,2658612,2658728,118,1183.5,372.7,4886,right
47,3,valuation,34,5,trial,2658860.0,2660260.0,1400.0,134,L,2658778,2659282,506,1470.4,505.2,5014,right
47,3,valuation,34,5,trial,2658860.0,2660260.0,1400.0,134,L,2659296,2659646,352,1517.2,535.9,4362,right
47,3,valuation,34,5,trial,2658860.0,2660260.0,1400.0,134,L,2659720,2659900,182,556.0,458.0,4292,likertVertical
47,3,valuation,34,5,trial,2658860.0,2660260.0,1400.0,134,L,2659918,2660128,212,492.2,413.6,4318,likertVertical
47,3,valuation,34,5,trial,2658860.0,2660260.0,1400.0,134,L,2660204,2660470,268,1518.3,627.1,4501,right
47,3,valuation,35,5,trial,2660944.0,2662644.0,1700.0,135,L,2660912,2661166,256,1482.9,406.7,4680,right
47,3,valuation,35,5,trial,2660944.0,2662644.0,1700.0,135,L,2661186,2661960,776,1504.8,481.1,4451,right
47,3,valuation,35,5,trial,2660944.0,2662644.0,1700.0,135,L,2662030,2662192,164,486.0,478.8,4571,likertVertical
47,3,valuation,35,5,trial,2660944.0,2662644.0,1700.0,135,L,2662206,2662552,348,477.4,450.1,4782,likertVertical
47,3,valuation,35,5,trial,2660944.0,2662644.0,1700.0,135,L,2662622,2662850,230,1464.6,506.9,4878,right
47,3,valuation,36,3,trial,2663294.0,2664794.0,1500.0,136,L,2663064,2663566,504,1391.0,337.9,4718,NA
47,3,valuation,36,3,trial,2663294.0,2664794.0,1500.0,136,L,2663592,2663744,154,1525.1,452.5,4685,right
47,3,valuation,36,3,trial,2663294.0,2664794.0,1500.0,136,L,2663768,2664256,490,1572.8,345.6,4353,NA
47,3,valuation,36,3,trial,2663294.0,2664794.0,1500.0,136,L,2664328,2664668,342,541.5,514.7,4679,likertVertical
47,3,valuation,36,3,trial,2663294.0,2664794.0,1500.0,136,L,2664736,2664998,264,1498.5,447.3,4907,right
47,3,valuation,37,4,trial,2665494.0,2667727.0,2233.0,137,L,2665226,2665664,440,1392.0,331.4,4827,NA
47,3,valuation,37,4,trial,2665494.0,2667727.0,2233.0,137,L,2665690,2665876,188,1451.5,453.1,4968,right
47,3,valuation,37,4,trial,2665494.0,2667727.0,2233.0,137,L,2665884,2666724,842,1484.7,468.0,4473,right
47,3,valuation,37,4,trial,2665494.0,2667727.0,2233.0,137,L,2666794,2666952,160,545.5,466.1,4558,likertVertical
47,3,valuation,37,4,trial,2665494.0,2667727.0,2233.0,137,L,2666970,2667694,726,485.6,431.6,4653,likertVertical
47,3,valuation,37,4,postResponse,2665494.0,2667727.0,2233.0,137,L,2667762,2668072,312,1407.7,511.8,4826,right
47,3,valuation,38,4,trial,2668394.0,2669860.0,1466.0,138,L,2668152,2668592,442,1382.8,446.5,4865,right
47,3,valuation,38,4,trial,2668394.0,2669860.0,1466.0,138,L,2668612,2669424,814,1502.6,441.8,4540,right
47,3,valuation,38,4,trial,2668394.0,2669860.0,1466.0,138,L,2669452,2670096,646,1341.8,459.5,4493,right
47,3,valuation,39,2,fixationCross,2670510.0,2672311.0,1801.0,139,L,2670268,2670424,158,1329.8,387.1,4755,right
47,3,valuation,39,2,trial,2670510.0,2672311.0,1801.0,139,L,2670446,2670768,324,1418.7,458.3,4910,right
47,3,valuation,39,2,trial,2670510.0,2672311.0,1801.0,139,L,2670786,2671622,838,1513.0,447.8,4352,right
47,3,valuation,39,2,trial,2670510.0,2672311.0,1801.0,139,L,2671694,2672248,556,520.4,590.7,4733,likertVertical
47,3,valuation,39,2,trial,2670510.0,2672311.0,1801.0,139,L,2672314,2672512,200,1416.7,448.9,5059,right
47,3,valuation,40,5,trial,2672977.0,2675244.0,2267.0,140,L,2672734,2673186,454,1373.6,380.0,4968,right
47,3,valuation,40,5,trial,2672977.0,2675244.0,2267.0,140,L,2673208,2673944,738,1481.0,481.0,4556,right
47,3,valuation,40,5,trial,2672977.0,2675244.0,2267.0,140,L,2673966,2674074,110,1479.8,426.8,4155,right
47,3,valuation,40,5,trial,2672977.0,2675244.0,2267.0,140,L,2674140,2674274,136,550.0,494.2,4264,likertVertical
47,3,valuation,40,5,trial,2672977.0,2675244.0,2267.0,140,L,2674296,2674578,284,479.8,445.1,4423,likertVertical
47,3,valuation,40,5,trial,2672977.0,2675244.0,2267.0,140,L,2675228,2675450,224,1468.8,515.8,4922,right
47,3,valuation,41,6,trial,2675927.0,2678077.0,2150.0,141,L,2675662,2676160,500,1411.6,368.2,4654,right
47,3,valuation,41,6,trial,2675927.0,2678077.0,2150.0,141,L,2676192,2676370,180,1459.8,543.8,4807,right
47,3,valuation,41,6,trial,2675927.0,2678077.0,2150.0,141,L,2676382,2676738,358,1490.8,524.1,4425,right
47,3,valuation,41,6,trial,2675927.0,2678077.0,2150.0,141,L,2676766,2677118,354,1656.4,459.0,4198,right
47,3,valuation,41,6,trial,2675927.0,2678077.0,2150.0,141,L,2677350,2677796,448,516.5,187.1,4478,NA
47,3,valuation,41,6,trial,2675927.0,2678077.0,2150.0,141,L,2677886,2678044,160,1550.8,591.2,4832,right
47,3,valuation,41,6,trial,2675927.0,2678077.0,2150.0,141,L,2678068,2678386,320,1458.8,529.0,4795,right
47,3,valuation,41,6,postResponse,2675927.0,2678077.0,2150.0,141,L,2678400,2678424,26,1470.7,592.4,4803,right
47,3,valuation,42,4,fixationCross,2678744.0,2680077.0,1333.0,142,L,2678538,2678582,46,1345.3,309.7,4916,NA
47,3,valuation,42,4,trial,2678744.0,2680077.0,1333.0,142,L,2678698,2679064,368,1478.0,418.4,5131,right
47,3,valuation,42,4,trial,2678744.0,2680077.0,1333.0,142,L,2679090,2679288,200,1493.7,511.1,4697,right
47,3,valuation,42,4,trial,2678744.0,2680077.0,1333.0,142,L,2679306,2679600,296,1582.6,562.1,4209,right
47,3,valuation,42,4,trial,2678744.0,2680077.0,1333.0,142,L,2679680,2680052,374,519.8,492.5,4154,likertVertical
47,3,valuation,42,4,postResponse,2678744.0,2680077.0,1333.0,142,L,2680122,2680416,296,1506.7,429.4,4255,right
47,3,valuation,43,6,trial,2680744.0,2682494.0,1750.0,143,L,2680490,2681004,516,1493.3,418.0,4535,right
47,3,valuation,43,6,trial,2680744.0,2682494.0,1750.0,143,L,2681014,2681740,728,1527.8,403.1,4300,right
47,3,valuation,43,6,trial,2680744.0,2682494.0,1750.0,143,L,2681816,2681860,46,504.1,403.1,4285,likertVertical
47,3,valuation,43,6,trial,2680744.0,2682494.0,1750.0,143,L,2681886,2681970,86,501.7,406.2,4356,likertVertical
47,3,valuation,43,6,trial,2680744.0,2682494.0,1750.0,143,L,2681982,2682200,220,469.5,430.4,4497,likertVertical
47,3,valuation,43,6,trial,2680744.0,2682494.0,1750.0,143,L,2682582,2682686,106,1493.5,420.2,4767,right
47,3,valuation,44,4,trial,2683144.0,2684578.0,1434.0,144,L,2683134,2683414,282,1465.9,433.8,5003,right
47,3,valuation,44,4,trial,2683144.0,2684578.0,1434.0,144,L,2683436,2683592,158,1507.4,521.6,4784,right
47,3,valuation,44,4,trial,2683144.0,2684578.0,1434.0,144,L,2683602,2684048,448,1545.2,579.0,4278,right
47,3,valuation,44,4,trial,2683144.0,2684578.0,1434.0,144,L,2684134,2684308,176,453.7,467.9,4256,likertVertical
47,3,valuation,44,4,trial,2683144.0,2684578.0,1434.0,144,L,2684332,2684544,214,529.2,502.7,4330,likertVertical
47,3,valuation,44,4,trial,2683144.0,2684578.0,1434.0,144,L,2684618,2684780,164,1520.9,574.4,4481,right
47,3,valuation,45,7,fixationCross,2685244.0,2687060.0,1816.0,145,L,2684998,2685036,40,1374.0,300.2,4487,NA
47,3,valuation,45,7,trial,2685244.0,2687060.0,1816.0,145,L,2685062,2685444,384,1510.7,439.4,4667,right
47,3,valuation,45,7,trial,2685244.0,2687060.0,1816.0,145,L,2685468,2686438,972,1426.9,500.9,4488,right
47,3,valuation,45,7,trial,2685244.0,2687060.0,1816.0,145,L,2686878,2687060,184,503.2,159.5,4826,NA
47,3,valuation,45,7,postResponse,2685244.0,2687060.0,1816.0,145,L,2687326,2687408,84,1162.7,344.8,5149,NA
47,3,valuation,46,7,fixationCross,2687727.0,2689111.0,1384.0,146,L,2687484,2687542,60,1192.6,283.3,5269,NA
47,3,valuation,46,7,trial,2687727.0,2689111.0,1384.0,146,L,2687592,2687968,378,1351.5,469.5,5459,right
47,3,valuation,46,7,trial,2687727.0,2689111.0,1384.0,146,L,2687986,2688190,206,1434.5,469.5,5343,right
47,3,valuation,46,7,trial,2687727.0,2689111.0,1384.0,146,L,2688212,2688516,306,1556.9,423.2,4667,right
47,3,valuation,46,7,trial,2687727.0,2689111.0,1384.0,146,L,2689086,2689278,194,1489.1,518.6,4488,right
47,3,valuation,47,2,trial,2689794.0,2691078.0,1284.0,147,L,2689572,2690020,450,1429.3,344.6,4914,NA
47,3,valuation,47,2,trial,2689794.0,2691078.0,1284.0,147,L,2690042,2690224,184,1464.0,434.2,4958,right
47,3,valuation,47,2,trial,2689794.0,2691078.0,1284.0,147,L,2690242,2690504,264,1529.8,482.2,4527,right
47,3,valuation,47,2,trial,2689794.0,2691078.0,1284.0,147,L,2690580,2690982,404,535.2,595.9,4458,likertVertical
47,3,valuation,47,2,trial,2689794.0,2691078.0,1284.0,147,L,2691002,2691122,122,487.5,652.7,4669,likertVertical
47,3,valuation,47,2,trial,2689794.0,2691078.0,1284.0,147,L,2691188,2691276,90,1393.6,463.6,4805,right
47,3,valuation,48,4,trial,2691744.0,2692944.0,1200.0,148,L,2691532,2691994,464,1380.8,363.5,5111,right
47,3,valuation,48,4,trial,2691744.0,2692944.0,1200.0,148,L,2692012,2692488,478,1342.2,414.7,4755,right
47,3,valuation,48,4,trial,2691744.0,2692944.0,1200.0,148,L,2692552,2692912,362,488.4,419.4,4374,likertVertical
47,3,valuation,48,4,trial,2691744.0,2692944.0,1200.0,148,L,2692978,2693202,226,1433.4,448.4,4565,right
47,3,valuation,48,4,postResponse,2691744.0,2692944.0,1200.0,148,L,2693218,2693278,62,1441.9,489.0,4588,right
47,3,valuation,49,3,trial,2693594.0,2695061.0,1467.0,149,L,2693352,2693788,438,1429.8,386.9,4695,right
47,3,valuation,49,3,trial,2693594.0,2695061.0,1467.0,149,L,2693812,2694012,202,1463.4,444.3,4938,right
47,3,valuation,49,3,trial,2693594.0,2695061.0,1467.0,149,L,2694040,2694342,304,1567.1,560.0,4503,right
47,3,valuation,49,3,trial,2693594.0,2695061.0,1467.0,149,L,2694416,2694488,74,533.6,387.3,4379,likertVertical
47,3,valuation,49,3,trial,2693594.0,2695061.0,1467.0,149,L,2694524,2694566,44,519.6,396.8,4373,likertVertical
47,3,valuation,49,3,trial,2693594.0,2695061.0,1467.0,149,L,2694588,2694762,176,495.1,420.9,4473,likertVertical
47,3,valuation,49,3,trial,2693594.0,2695061.0,1467.0,149,L,2694788,2695024,238,513.0,535.7,4730,likertVertical
47,3,valuation,49,3,trial,2693594.0,2695061.0,1467.0,149,L,2695090,2695226,138,1383.2,442.0,4850,right
47,3,valuation,50,6,trial,2695728.0,2697211.0,1483.0,150,L,2695470,2696002,534,1439.6,375.9,4878,right
47,3,valuation,50,6,trial,2695728.0,2697211.0,1483.0,150,L,2696036,2696256,222,1525.4,555.2,4713,right
47,3,valuation,50,6,trial,2695728.0,2697211.0,1483.0,150,L,2696268,2696514,248,1589.9,566.0,4354,right
47,3,valuation,50,6,trial,2695728.0,2697211.0,1483.0,150,L,2696542,2696758,218,1411.6,418.0,4158,right
47,3,valuation,50,6,trial,2695728.0,2697211.0,1483.0,150,L,2697246,2697396,152,1517.6,516.8,4484,right
47,3,valuation,51,3,fixationCross,2729311.0,2730995.0,1684.0,151,L,2729204,2729234,32,830.8,311.0,4971,NA
47,3,valuation,51,3,trial,2729311.0,2730995.0,1684.0,151,L,2729250,2729358,110,863.2,362.4,5027,NA
47,3,valuation,51,3,trial,2729311.0,2730995.0,1684.0,151,L,2729664,2729814,152,1352.3,371.8,5169,right
47,3,valuation,51,3,trial,2729311.0,2730995.0,1684.0,151,L,2729838,2730210,374,1501.7,444.4,4770,right
47,3,valuation,51,3,trial,2729311.0,2730995.0,1684.0,151,L,2730284,2730832,550,488.9,542.2,4528,likertVertical
47,3,valuation,51,3,postResponse,2729311.0,2730995.0,1684.0,151,L,2730924,2731340,418,1450.6,483.2,4820,right
47,3,valuation,52,5,trial,2731661.0,2734112.0,2451.0,152,L,2731414,2731916,504,1450.3,471.6,4803,right
47,3,valuation,52,5,trial,2731661.0,2734112.0,2451.0,152,L,2731930,2732180,252,1483.5,468.6,5031,right
47,3,valuation,52,5,trial,2731661.0,2734112.0,2451.0,152,L,2732190,2733624,1436,1517.4,456.1,4942,right
47,3,valuation,52,5,trial,2731661.0,2734112.0,2451.0,152,L,2733700,2733980,282,555.9,523.5,5177,likertVertical
47,3,valuation,52,5,trial,2731661.0,2734112.0,2451.0,152,L,2733996,2734042,48,563.0,486.4,5098,likertVertical
47,3,valuation,52,5,trial,2731661.0,2734112.0,2451.0,152,L,2734112,2734356,246,1541.8,470.3,4936,right
47,3,valuation,53,2,trial,2734761.0,2736294.0,1533.0,153,L,2734524,2735028,506,1465.6,436.5,4916,right
47,3,valuation,53,2,trial,2734761.0,2736294.0,1533.0,153,L,2735046,2735462,418,1498.1,472.2,4713,right
47,3,valuation,53,2,trial,2734761.0,2736294.0,1533.0,153,L,2735536,2735758,224,568.3,603.6,4491,likertVertical
47,3,valuation,53,2,trial,2734761.0,2736294.0,1533.0,153,L,2735772,2736062,292,532.1,631.8,4611,likertVertical
47,3,valuation,53,2,trial,2734761.0,2736294.0,1533.0,153,L,2736086,2736202,118,519.6,711.8,4939,likertVertical
47,3,valuation,53,2,trial,2734761.0,2736294.0,1533.0,153,L,2736282,2736502,222,1513.9,433.5,5133,right
47,3,valuation,54,3,trial,2736995.0,2738411.0,1416.0,154,L,2736740,2737188,450,1402.6,447.0,5070,right
47,3,valuation,54,3,trial,2736995.0,2738411.0,1416.0,154,L,2737202,2737412,212,1455.2,458.4,5171,right
47,3,valuation,54,3,trial,2736995.0,2738411.0,1416.0,154,L,2737424,2737638,216,1513.7,444.2,4701,right
47,3,valuation,54,3,trial,2736995.0,2738411.0,1416.0,154,L,2737714,2737920,208,519.6,588.5,4562,likertVertical
47,3,valuation,54,3,trial,2736995.0,2738411.0,1416.0,154,L,2737938,2738322,386,520.5,640.3,4667,likertVertical
47,3,valuation,54,3,trial,2736995.0,2738411.0,1416.0,154,L,2738390,2738614,226,1447.4,429.8,4897,right
