participantNo,block,task,blockTrial,response,trialStage,trialStartTime,trialFinishTime,rt,trial,eye,fixStart,fixEnd,fixLength,fixPosX,fixPosY,dilation,aoi
55,1,continuous,1,1,fixationCross,6689212.0,6693546.0,4334.0,1,R,6688430,6688504,76,791.9,584.8,4811,NA
55,1,continuous,1,1,fixationCross,6689212.0,6693546.0,4334.0,1,R,6688544,6688864,322,1093.2,614.2,4893,NA
55,1,continuous,1,1,fixationCross,6689212.0,6693546.0,4334.0,1,R,6688890,6689070,182,955.5,555.0,5095,NA
55,1,continuous,1,1,trial,6689212.0,6693546.0,4334.0,1,R,6689080,6689508,430,948.8,542.2,5264,NA
55,1,continuous,1,1,trial,6689212.0,6693546.0,4334.0,1,R,6689550,6689810,262,622.9,643.2,5029,left
55,1,continuous,1,1,trial,6689212.0,6693546.0,4334.0,1,R,6689832,6690296,466,529.7,688.4,4695,left
55,1,continuous,1,1,trial,6689212.0,6693546.0,4334.0,1,R,6690326,6690438,114,497.2,927.2,4536,NA
55,1,continuous,1,1,trial,6689212.0,6693546.0,4334.0,1,R,6690458,6690708,252,428.6,973.4,4561,NA
55,1,continuous,1,1,trial,6689212.0,6693546.0,4334.0,1,R,6690774,6690894,122,1368.2,1018.8,4703,NA
55,1,continuous,1,1,trial,6689212.0,6693546.0,4334.0,1,R,6690916,6691032,118,1459.3,1020.1,4742,NA
55,1,continuous,1,1,trial,6689212.0,6693546.0,4334.0,1,R,6691080,6691192,114,1392.2,534.8,4724,right
55,1,continuous,1,1,trial,6689212.0,6693546.0,4334.0,1,R,6691214,6691670,458,1292.4,496.8,4825,right
55,1,continuous,1,1,trial,6689212.0,6693546.0,4334.0,1,R,6691708,6692038,332,1539.5,468.8,4685,right
55,1,continuous,1,1,trial,6689212.0,6693546.0,4334.0,1,R,6692074,6692178,106,1274.9,461.1,4861,right
55,1,continuous,1,1,trial,6689212.0,6693546.0,4334.0,1,R,6692234,6692686,454,643.6,555.4,4956,left
55,1,continuous,1,1,trial,6689212.0,6693546.0,4334.0,1,R,6692720,6693270,552,465.2,504.3,4547,left
55,1,continuous,1,1,trial,6689212.0,6693546.0,4334.0,1,R,6693304,6693496,194,331.7,401.9,4518,left
55,1,continuous,1,1,postResponse,6689212.0,6693546.0,4334.0,1,R,6693516,6693910,396,287.9,359.9,4560,left
55,1,continuous,2,1,fixationCross,6694695.0,6697145.0,2450.0,2,R,6693984,6694136,154,290.5,377.1,4633,left
55,1,continuous,2,1,fixationCross,6694695.0,6697145.0,2450.0,2,R,6694188,6694392,206,847.4,486.2,4844,NA
55,1,continuous,2,1,fixationCross,6694695.0,6697145.0,2450.0,2,R,6694416,6694574,160,951.7,518.0,4983,NA
55,1,continuous,2,1,trial,6694695.0,6697145.0,2450.0,2,R,6694584,6694886,304,955.3,524.8,5222,NA
55,1,continuous,2,1,trial,6694695.0,6697145.0,2450.0,2,R,6694934,6695778,846,550.1,611.3,4833,left
55,1,continuous,2,1,trial,6694695.0,6697145.0,2450.0,2,R,6695824,6695936,114,862.7,510.5,4599,NA
55,1,continuous,2,1,trial,6694695.0,6697145.0,2450.0,2,R,6695988,6696154,168,1425.3,470.1,4551,right
55,1,continuous,2,1,trial,6694695.0,6697145.0,2450.0,2,R,6696164,6696604,442,1460.6,475.0,4710,right
55,1,continuous,2,1,postResponse,6694695.0,6697145.0,2450.0,2,R,6696670,6697492,824,582.8,582.2,4815,left
55,1,continuous,3,100,fixationCross,6698296.0,6700779.0,2483.0,3,R,6697592,6697956,366,590.7,595.7,4911,left
55,1,continuous,3,100,trial,6698296.0,6700779.0,2483.0,3,R,6697998,6698518,522,942.6,528.4,5123,NA
55,1,continuous,3,100,trial,6698296.0,6700779.0,2483.0,3,R,6698562,6698768,208,1291.4,509.4,5107,right
55,1,continuous,3,100,trial,6698296.0,6700779.0,2483.0,3,R,6698780,6698912,134,1262.3,503.4,4777,right
55,1,continuous,3,100,trial,6698296.0,6700779.0,2483.0,3,R,6698972,6699170,200,539.5,538.1,4616,left
55,1,continuous,3,100,trial,6698296.0,6700779.0,2483.0,3,R,6699184,6699578,396,497.3,549.3,4437,left
55,1,continuous,3,100,trial,6698296.0,6700779.0,2483.0,3,R,6699648,6699890,244,1419.7,494.2,4336,right
55,1,continuous,3,100,trial,6698296.0,6700779.0,2483.0,3,R,6699924,6700218,296,1598.3,441.9,4398,right
55,1,continuous,3,100,trial,6698296.0,6700779.0,2483.0,3,R,6700260,6700424,166,1311.3,543.2,4604,right
55,1,continuous,3,100,trial,6698296.0,6700779.0,2483.0,3,R,6700468,6700790,324,1432.6,939.5,4788,NA
55,1,continuous,3,100,postResponse,6698296.0,6700779.0,2483.0,3,R,6700806,6701118,314,1462.8,982.2,5096,NA
55,1,continuous,4,1,fixationCross,6702446.0,6704429.0,1983.0,4,R,6701270,6701432,164,1318.9,557.1,5255,right
55,1,continuous,4,1,fixationCross,6702446.0,6704429.0,1983.0,4,R,6701990,6702134,146,1231.1,505.7,5011,right
55,1,continuous,4,1,trial,6702446.0,6704429.0,1983.0,4,R,6702168,6702712,546,957.7,511.3,4971,NA
55,1,continuous,4,1,trial,6702446.0,6704429.0,1983.0,4,R,6702754,6703128,376,1369.6,515.5,4830,right
55,1,continuous,4,1,trial,6702446.0,6704429.0,1983.0,4,R,6703162,6703702,542,1541.1,474.9,4772,right
55,1,continuous,4,1,trial,6702446.0,6704429.0,1983.0,4,R,6703736,6703858,124,1345.5,450.9,4791,right
55,1,continuous,4,1,trial,6702446.0,6704429.0,1983.0,4,R,6703920,6704274,356,604.2,555.6,4860,left
55,1,continuous,4,1,postResponse,6702446.0,6704429.0,1983.0,4,R,6704292,6704784,494,578.0,487.6,4469,left
55,1,continuous,5,1,fixationCross,6705645.0,6706896.0,1251.0,5,R,6704858,6705288,432,586.5,490.6,4694,left
55,1,continuous,5,1,trial,6705645.0,6706896.0,1251.0,5,R,6705330,6705826,498,918.9,525.0,4917,NA
55,1,continuous,5,1,trial,6705645.0,6706896.0,1251.0,5,R,6705872,6706026,156,596.5,505.6,5067,left
55,1,continuous,5,1,trial,6705645.0,6706896.0,1251.0,5,R,6706046,6706490,446,517.3,523.0,4477,left
55,1,continuous,5,1,postResponse,6705645.0,6706896.0,1251.0,5,R,6706562,6707234,674,1325.3,498.2,4170,right
55,1,continuous,6,100,fixationCross,6707912.0,6709313.0,1401.0,6,R,6707308,6707404,98,1318.8,494.3,4463,right
55,1,continuous,6,100,fixationCross,6707912.0,6709313.0,1401.0,6,R,6707412,6707610,200,1311.2,503.1,4625,right
55,1,continuous,6,100,fixationCross,6707912.0,6709313.0,1401.0,6,R,6707654,6707848,196,898.3,510.1,5027,NA
55,1,continuous,6,100,trial,6707912.0,6709313.0,1401.0,6,R,6707866,6708120,256,948.3,502.6,5229,NA
55,1,continuous,6,100,trial,6707912.0,6709313.0,1401.0,6,R,6708168,6708476,310,555.3,537.1,5063,left
55,1,continuous,6,100,trial,6707912.0,6709313.0,1401.0,6,R,6708502,6708696,196,429.1,566.6,4595,left
55,1,continuous,6,100,trial,6707912.0,6709313.0,1401.0,6,R,6708766,6709108,344,1392.6,519.7,4402,right
55,1,continuous,6,100,postResponse,6707912.0,6709313.0,1401.0,6,R,6709126,6709648,524,1477.6,505.0,4403,right
55,1,continuous,7,49,fixationCross,6710512.0,6715346.0,4834.0,7,R,6709748,6709822,76,1478.7,495.8,4435,right
55,1,continuous,7,49,fixationCross,6710512.0,6715346.0,4834.0,7,R,6709832,6710042,212,1465.4,519.7,4610,right
55,1,continuous,7,49,fixationCross,6710512.0,6715346.0,4834.0,7,R,6710084,6710192,110,1092.7,498.5,4938,NA
55,1,continuous,7,49,trial,6710512.0,6715346.0,4834.0,7,R,6710218,6710756,540,967.3,500.9,5201,NA
55,1,continuous,7,49,trial,6710512.0,6715346.0,4834.0,7,R,6710810,6711100,292,1308.7,498.9,4792,right
55,1,continuous,7,49,trial,6710512.0,6715346.0,4834.0,7,R,6711130,6711580,452,1480.8,538.5,4387,right
55,1,continuous,7,49,trial,6710512.0,6715346.0,4834.0,7,R,6711612,6712178,568,1279.9,473.9,4508,right
55,1,continuous,7,49,trial,6710512.0,6715346.0,4834.0,7,R,6712214,6712552,340,1408.4,603.3,4779,right
55,1,continuous,7,49,trial,6710512.0,6715346.0,4834.0,7,R,6712592,6712750,160,1465.8,952.6,4958,NA
55,1,continuous,7,49,trial,6710512.0,6715346.0,4834.0,7,R,6712768,6712948,182,1462.1,1005.6,4977,NA
55,1,continuous,7,49,trial,6710512.0,6715346.0,4834.0,7,R,6713018,6713172,156,502.0,944.3,5135,NA
55,1,continuous,7,49,trial,6710512.0,6715346.0,4834.0,7,R,6713188,6713282,96,464.2,950.7,5121,NA
55,1,continuous,7,49,trial,6710512.0,6715346.0,4834.0,7,R,6713344,6713512,170,646.5,571.4,4894,left
55,1,continuous,7,49,trial,6710512.0,6715346.0,4834.0,7,R,6713534,6714192,660,636.5,541.7,4659,left
55,1,continuous,7,49,trial,6710512.0,6715346.0,4834.0,7,R,6714240,6714500,262,988.1,598.0,4883,NA
55,1,continuous,7,49,trial,6710512.0,6715346.0,4834.0,7,R,6714542,6715626,1086,919.1,932.0,5349,likertHorizontal
55,1,continuous,8,100,fixationCross,6716213.0,6717929.0,1716.0,8,R,6715754,6716186,434,928.1,491.5,5422,NA
55,1,continuous,8,100,trial,6716213.0,6717929.0,1716.0,8,R,6716198,6716482,286,954.6,492.9,5512,NA
55,1,continuous,8,100,trial,6716213.0,6717929.0,1716.0,8,R,6716528,6716762,236,1358.0,494.9,5265,right
55,1,continuous,8,100,trial,6716213.0,6717929.0,1716.0,8,R,6716770,6716822,54,1359.9,489.8,5133,right
55,1,continuous,8,100,trial,6716213.0,6717929.0,1716.0,8,R,6716834,6716940,108,1361.6,482.7,5130,right
55,1,continuous,8,100,trial,6716213.0,6717929.0,1716.0,8,R,6716958,6716978,22,1359.4,494.1,5157,right
55,1,continuous,8,100,trial,6716213.0,6717929.0,1716.0,8,R,6717026,6717334,310,1279.1,534.8,5353,right
55,1,continuous,8,100,trial,6716213.0,6717929.0,1716.0,8,R,6717344,6717836,494,1254.8,557.5,5587,right
55,1,continuous,8,100,postResponse,6716213.0,6717929.0,1716.0,8,R,6717900,6718264,366,589.9,600.5,5554,left
55,1,continuous,9,100,fixationCross,6719013.0,6722546.0,3533.0,9,R,6718394,6718718,326,1125.8,473.0,5021,NA
55,1,continuous,9,100,trial,6719013.0,6722546.0,3533.0,9,R,6718744,6719198,456,984.4,442.3,5512,NA
55,1,continuous,9,100,trial,6719013.0,6722546.0,3533.0,9,R,6719242,6719528,288,1340.0,474.5,5244,right
55,1,continuous,9,100,trial,6719013.0,6722546.0,3533.0,9,R,6719538,6719656,120,1370.5,447.2,4867,right
55,1,continuous,9,100,trial,6719013.0,6722546.0,3533.0,9,R,6719728,6720088,362,485.0,486.1,4690,left
55,1,continuous,9,100,trial,6719013.0,6722546.0,3533.0,9,R,6720110,6720430,322,562.1,499.2,4632,left
55,1,continuous,9,100,trial,6719013.0,6722546.0,3533.0,9,R,6720458,6720738,282,431.0,469.6,4708,left
55,1,continuous,9,100,trial,6719013.0,6722546.0,3533.0,9,R,6720774,6721064,292,348.7,322.5,4614,NA
55,1,continuous,9,100,trial,6719013.0,6722546.0,3533.0,9,R,6721102,6721412,312,496.6,463.8,4627,left
55,1,continuous,9,100,trial,6719013.0,6722546.0,3533.0,9,R,6721446,6721790,346,606.1,515.3,4810,left
55,1,continuous,9,100,trial,6719013.0,6722546.0,3533.0,9,R,6721816,6721988,174,628.4,542.3,4897,left
55,1,continuous,9,100,trial,6719013.0,6722546.0,3533.0,9,R,6722046,6722562,518,1365.7,458.6,4747,right
55,1,continuous,9,100,trial,6719013.0,6722546.0,3533.0,9,R,6722570,6722676,108,1363.4,451.9,4690,right
55,1,continuous,9,100,trial,6719013.0,6722546.0,3533.0,9,R,6722692,6722732,42,1367.3,426.2,4771,right
55,1,continuous,9,100,postResponse,6719013.0,6722546.0,3533.0,9,R,6722744,6722880,138,1363.8,432.6,4821,right
55,1,continuous,10,1,fixationCross,6725679.0,6727812.0,2133.0,10,R,6722954,6723002,50,1363.2,427.9,4911,right
55,1,continuous,10,1,fixationCross,6725679.0,6727812.0,2133.0,10,R,6723056,6723368,314,857.9,422.6,5162,NA
55,1,continuous,10,1,fixationCross,6725679.0,6727812.0,2133.0,10,R,6723394,6724184,792,965.5,368.7,5286,NA
55,1,continuous,10,1,fixationCross,6725679.0,6727812.0,2133.0,10,R,6724382,6724412,32,958.2,343.9,5280,NA
55,1,continuous,10,1,fixationCross,6725679.0,6727812.0,2133.0,10,R,6724432,6724478,48,953.1,265.7,5297,NA
55,1,continuous,10,1,fixationCross,6725679.0,6727812.0,2133.0,10,R,6724502,6724588,88,950.1,234.1,5326,NA
55,1,continuous,10,1,fixationCross,6725679.0,6727812.0,2133.0,10,R,6724604,6725360,758,941.7,171.9,5286,NA
55,1,continuous,10,1,trial,6725679.0,6727812.0,2133.0,10,R,6725610,6725696,88,1001.2,292.0,5264,NA
55,1,continuous,10,1,trial,6725679.0,6727812.0,2133.0,10,R,6725716,6725850,136,1002.5,242.9,5353,NA
55,1,continuous,10,1,trial,6725679.0,6727812.0,2133.0,10,R,6725880,6725940,62,997.2,179.7,5411,NA
55,1,continuous,10,1,trial,6725679.0,6727812.0,2133.0,10,R,6725988,6726268,282,1427.9,302.6,4825,NA
55,1,continuous,10,1,trial,6725679.0,6727812.0,2133.0,10,R,6726276,6726486,212,1425.8,274.3,4253,NA
55,1,continuous,10,1,trial,6725679.0,6727812.0,2133.0,10,R,6726548,6727406,860,652.9,376.6,4112,left
55,1,continuous,10,1,trial,6725679.0,6727812.0,2133.0,10,R,6727472,6727592,122,545.3,747.3,4349,NA
55,1,continuous,10,1,trial,6725679.0,6727812.0,2133.0,10,R,6727620,6727824,206,492.9,807.8,4529,NA
55,1,continuous,10,1,trial,6725679.0,6727812.0,2133.0,10,R,6727842,6728030,190,487.2,814.5,4716,NA
55,1,continuous,10,1,trial,6725679.0,6727812.0,2133.0,10,R,6728046,6728096,52,486.5,811.6,4803,NA
55,1,continuous,11,1,fixationCross,6732462.0,6737829.0,5367.0,11,R,6728220,6728624,406,879.8,295.9,4793,NA
55,1,continuous,11,1,fixationCross,6732462.0,6737829.0,5367.0,11,R,6728642,6729176,536,944.6,310.4,5098,NA
55,1,continuous,11,1,fixationCross,6732462.0,6737829.0,5367.0,11,R,6729188,6729760,574,964.2,318.7,5228,NA
55,1,continuous,11,1,fixationCross,6732462.0,6737829.0,5367.0,11,R,6729780,6729914,136,1051.3,309.4,5262,NA
55,1,continuous,11,1,fixationCross,6732462.0,6737829.0,5367.0,11,R,6729934,6730364,432,965.3,319.6,5422,NA
55,1,continuous,11,1,fixationCross,6732462.0,6737829.0,5367.0,11,R,6730392,6730576,186,1138.9,369.3,5517,NA
55,1,continuous,11,1,fixationCross,6732462.0,6737829.0,5367.0,11,R,6730656,6731532,878,1826.5,771.7,5237,NA
55,1,continuous,11,1,fixationCross,6732462.0,6737829.0,5367.0,11,R,6731600,6732058,460,1047.3,428.1,5355,NA
55,1,continuous,11,1,fixationCross,6732462.0,6737829.0,5367.0,11,R,6732078,6732150,74,1042.3,452.3,5394,NA
55,1,continuous,11,1,fixationCross,6732462.0,6737829.0,5367.0,11,R,6732168,6732218,52,1042.0,461.7,5455,NA
55,1,continuous,11,1,fixationCross,6732462.0,6737829.0,5367.0,11,R,6732238,6732292,56,1040.0,478.5,5516,NA
55,1,continuous,11,1,fixationCross,6732462.0,6737829.0,5367.0,11,R,6732352,6732446,96,1002.4,449.7,5600,NA
55,1,continuous,11,1,trial,6732462.0,6737829.0,5367.0,11,R,6732466,6732644,180,1002.4,468.2,5608,NA
55,1,continuous,11,1,trial,6732462.0,6737829.0,5367.0,11,R,6732694,6732814,122,1394.3,468.3,5399,right
55,1,continuous,11,1,trial,6732462.0,6737829.0,5367.0,11,R,6732832,6732878,48,1390.8,504.6,5194,right
55,1,continuous,11,1,trial,6732462.0,6737829.0,5367.0,11,R,6732898,6733136,240,1399.8,445.1,4874,right
55,1,continuous,11,1,trial,6732462.0,6737829.0,5367.0,11,R,6733168,6733232,66,1396.1,481.5,4606,right
55,1,continuous,11,1,trial,6732462.0,6737829.0,5367.0,11,R,6734284,6734422,140,888.8,610.4,5024,NA
55,1,continuous,11,1,trial,6732462.0,6737829.0,5367.0,11,R,6734458,6734638,182,693.4,541.0,5107,left
55,1,continuous,11,1,trial,6732462.0,6737829.0,5367.0,11,R,6734662,6734946,286,548.6,506.5,5209,left
55,1,continuous,11,1,trial,6732462.0,6737829.0,5367.0,11,R,6734968,6735364,398,608.7,572.5,5012,left
55,1,continuous,11,1,trial,6732462.0,6737829.0,5367.0,11,R,6735392,6735856,466,475.2,539.0,4903,left
55,1,continuous,11,1,trial,6732462.0,6737829.0,5367.0,11,R,6735920,6736066,148,1330.9,506.7,4742,right
55,1,continuous,11,1,trial,6732462.0,6737829.0,5367.0,11,R,6736084,6736522,440,1383.2,489.1,4700,right
55,1,continuous,11,1,trial,6732462.0,6737829.0,5367.0,11,R,6736588,6736826,240,524.2,545.4,4817,left
55,1,continuous,11,1,trial,6732462.0,6737829.0,5367.0,11,R,6736844,6737178,336,595.6,571.0,4769,left
55,1,continuous,11,1,trial,6732462.0,6737829.0,5367.0,11,R,6737202,6737584,384,482.2,531.4,4866,left
55,1,continuous,11,1,trial,6732462.0,6737829.0,5367.0,11,R,6737606,6737740,136,603.4,574.3,4849,left
55,1,continuous,11,1,postResponse,6732462.0,6737829.0,5367.0,11,R,6737802,6738164,364,1353.4,506.4,4721,right
55,1,continuous,12,6,fixationCross,6738729.0,6741196.0,2467.0,12,R,6738238,6738300,64,1347.2,509.7,4695,right
55,1,continuous,12,6,trial,6738729.0,6741196.0,2467.0,12,R,6738346,6738948,604,961.6,510.5,5110,NA
55,1,continuous,12,6,trial,6738729.0,6741196.0,2467.0,12,R,6738990,6739150,162,1302.4,486.7,5121,right
55,1,continuous,12,6,trial,6738729.0,6741196.0,2467.0,12,R,6739172,6739450,280,1397.9,451.8,4756,right
55,1,continuous,12,6,trial,6738729.0,6741196.0,2467.0,12,R,6739472,6739780,310,1500.3,472.4,4483,right
55,1,continuous,12,6,trial,6738729.0,6741196.0,2467.0,12,R,6739852,6740114,264,551.1,525.4,4553,left
55,1,continuous,12,6,trial,6738729.0,6741196.0,2467.0,12,R,6740134,6740270,138,515.5,577.2,4498,left
55,1,continuous,12,6,postResponse,6738729.0,6741196.0,2467.0,12,R,6740284,6741528,1246,483.6,613.5,4435,left
55,1,continuous,13,85,fixationCross,6742297.0,6744946.0,2649.0,13,R,6741602,6741736,136,488.2,615.1,4527,left
55,1,continuous,13,85,fixationCross,6742297.0,6744946.0,2649.0,13,R,6741774,6741992,220,794.2,544.1,4726,NA
55,1,continuous,13,85,trial,6742297.0,6744946.0,2649.0,13,R,6742018,6742492,476,953.8,511.5,5034,NA
55,1,continuous,13,85,trial,6742297.0,6744946.0,2649.0,13,R,6742534,6742828,296,631.7,538.4,4974,left
55,1,continuous,13,85,trial,6742297.0,6744946.0,2649.0,13,R,6742848,6743302,456,545.1,517.7,4228,left
55,1,continuous,13,85,trial,6742297.0,6744946.0,2649.0,13,R,6743372,6743490,120,1229.1,496.6,4071,right
55,1,continuous,13,85,trial,6742297.0,6744946.0,2649.0,13,R,6743518,6743764,248,1430.7,536.4,4142,right
55,1,continuous,13,85,trial,6742297.0,6744946.0,2649.0,13,R,6743784,6744050,268,1477.1,474.9,4268,right
55,1,continuous,13,85,trial,6742297.0,6744946.0,2649.0,13,R,6744072,6744932,862,1407.3,523.6,4350,right
55,1,continuous,13,85,postResponse,6742297.0,6744946.0,2649.0,13,R,6744984,6745280,298,1289.6,948.7,4707,NA
55,1,continuous,14,75,fixationCross,6746230.0,6747579.0,1349.0,14,R,6745382,6745874,494,1283.8,953.1,5036,NA
55,1,continuous,14,75,fixationCross,6746230.0,6747579.0,1349.0,14,R,6745934,6746132,200,981.1,547.2,5290,NA
55,1,continuous,14,75,trial,6746230.0,6747579.0,1349.0,14,R,6746146,6746464,320,967.3,516.1,5205,NA
55,1,continuous,14,75,trial,6746230.0,6747579.0,1349.0,14,R,6746508,6746846,340,1365.9,516.4,4588,right
55,1,continuous,14,75,postResponse,6746230.0,6747579.0,1349.0,14,R,6746864,6747914,1052,1429.0,543.6,4356,right
55,1,continuous,15,76,fixationCross,6749046.0,6753146.0,4100.0,15,R,6747988,6748738,752,1424.1,563.3,4999,right
55,1,continuous,15,76,fixationCross,6749046.0,6753146.0,4100.0,15,R,6748786,6748912,128,1011.0,517.6,5353,NA
55,1,continuous,15,76,trial,6749046.0,6753146.0,4100.0,15,R,6748924,6749262,340,969.5,525.1,5323,NA
55,1,continuous,15,76,trial,6749046.0,6753146.0,4100.0,15,R,6749306,6749644,340,1382.8,554.0,4917,right
55,1,continuous,15,76,trial,6749046.0,6753146.0,4100.0,15,R,6749704,6749966,264,667.5,449.1,4609,left
55,1,continuous,15,76,trial,6749046.0,6753146.0,4100.0,15,R,6749982,6750748,768,628.5,477.9,4489,left
55,1,continuous,15,76,trial,6749046.0,6753146.0,4100.0,15,R,6750816,6751080,266,1451.1,578.1,4778,right
55,1,continuous,15,76,trial,6749046.0,6753146.0,4100.0,15,R,6751096,6751596,502,1403.6,554.7,4620,right
55,1,continuous,15,76,trial,6749046.0,6753146.0,4100.0,15,R,6751608,6752002,396,1432.9,562.6,4556,right
55,1,continuous,15,76,trial,6749046.0,6753146.0,4100.0,15,R,6752020,6752280,262,1430.3,511.2,4555,right
55,1,continuous,15,76,trial,6749046.0,6753146.0,4100.0,15,R,6752422,6752970,550,1464.5,601.0,4344,right
55,1,continuous,15,76,postResponse,6749046.0,6753146.0,4100.0,15,R,6752998,6753480,484,1370.5,477.7,4052,right
55,1,continuous,16,78,fixationCross,6754046.0,6757130.0,3084.0,16,R,6753580,6753688,110,1356.5,486.6,4290,right
55,1,continuous,16,78,fixationCross,6754046.0,6757130.0,3084.0,16,R,6753730,6753982,254,1015.2,491.8,4742,NA
55,1,continuous,16,78,trial,6754046.0,6757130.0,3084.0,16,R,6753998,6754240,244,968.3,508.1,4978,NA
55,1,continuous,16,78,trial,6754046.0,6757130.0,3084.0,16,R,6754292,6754518,228,548.9,492.2,4977,left
55,1,continuous,16,78,trial,6754046.0,6757130.0,3084.0,16,R,6754544,6754638,96,475.4,372.3,4667,left
55,1,continuous,16,78,trial,6754046.0,6757130.0,3084.0,16,R,6754646,6754778,134,473.3,356.3,4540,left
55,1,continuous,16,78,trial,6754046.0,6757130.0,3084.0,16,R,6754786,6754864,80,475.1,377.2,4482,left
55,1,continuous,16,78,trial,6754046.0,6757130.0,3084.0,16,R,6754902,6755098,198,556.8,645.4,4523,left
55,1,continuous,16,78,trial,6754046.0,6757130.0,3084.0,16,R,6755118,6755438,322,573.5,684.5,4614,left
55,1,continuous,16,78,trial,6754046.0,6757130.0,3084.0,16,R,6755460,6755720,262,510.0,630.7,4713,left
55,1,continuous,16,78,trial,6754046.0,6757130.0,3084.0,16,R,6755784,6755986,204,1321.9,532.5,4592,right
55,1,continuous,16,78,trial,6754046.0,6757130.0,3084.0,16,R,6756016,6756320,306,1473.9,526.3,4321,right
55,1,continuous,16,78,trial,6754046.0,6757130.0,3084.0,16,R,6756342,6756628,288,1568.7,567.4,4280,right
55,1,continuous,16,78,trial,6754046.0,6757130.0,3084.0,16,R,6756664,6757176,514,1300.9,548.6,4457,right
55,1,continuous,16,78,postResponse,6754046.0,6757130.0,3084.0,16,R,6757238,6757464,228,562.6,541.6,4408,left
55,1,continuous,17,79,fixationCross,6758213.0,6759629.0,1416.0,17,R,6757538,6757902,366,565.1,553.0,4525,left
55,1,continuous,17,79,fixationCross,6758213.0,6759629.0,1416.0,17,R,6757942,6758150,210,908.4,516.3,4699,NA
55,1,continuous,17,79,trial,6758213.0,6759629.0,1416.0,17,R,6758164,6758444,282,952.7,517.2,4849,NA
55,1,continuous,17,79,trial,6758213.0,6759629.0,1416.0,17,R,6758490,6758670,182,587.8,556.3,4899,left
55,1,continuous,17,79,trial,6758213.0,6759629.0,1416.0,17,R,6758704,6759084,382,393.5,486.4,4370,left
55,1,continuous,17,79,trial,6758213.0,6759629.0,1416.0,17,R,6759158,6759710,554,1390.0,545.1,4118,right
55,1,continuous,17,79,postResponse,6758213.0,6759629.0,1416.0,17,R,6759732,6759964,234,1471.4,553.6,4580,right
55,1,continuous,18,25,fixationCross,6760513.0,6763380.0,2867.0,18,R,6760038,6760176,140,1469.4,553.8,4665,right
55,1,continuous,18,25,trial,6760513.0,6763380.0,2867.0,18,R,6760230,6760532,304,949.9,503.2,4925,NA
55,1,continuous,18,25,trial,6760513.0,6763380.0,2867.0,18,R,6760550,6760832,284,962.4,517.2,5129,NA
55,1,continuous,18,25,trial,6760513.0,6763380.0,2867.0,18,R,6760876,6761138,264,625.0,530.6,4971,left
55,1,continuous,18,25,trial,6760513.0,6763380.0,2867.0,18,R,6761160,6761624,466,538.5,504.4,4479,left
55,1,continuous,18,25,trial,6760513.0,6763380.0,2867.0,18,R,6761636,6762120,486,563.6,490.4,4327,left
55,1,continuous,18,25,trial,6760513.0,6763380.0,2867.0,18,R,6762148,6762428,282,592.8,600.7,4472,left
55,1,continuous,18,25,trial,6760513.0,6763380.0,2867.0,18,R,6762446,6762862,418,678.3,605.4,4553,left
55,1,continuous,18,25,trial,6760513.0,6763380.0,2867.0,18,R,6762890,6763092,204,573.1,505.9,4557,left
55,1,continuous,18,25,trial,6760513.0,6763380.0,2867.0,18,R,6763106,6763296,192,544.4,473.4,4483,left
55,1,continuous,18,25,postResponse,6760513.0,6763380.0,2867.0,18,R,6763366,6763714,350,1449.6,531.1,4298,right
55,1,continuous,19,82,fixationCross,6764246.0,6765879.0,1633.0,19,R,6763788,6763808,22,1445.1,530.5,4400,right
55,1,continuous,19,82,fixationCross,6764246.0,6765879.0,1633.0,19,R,6763866,6764198,334,891.2,513.9,4784,NA
55,1,continuous,19,82,trial,6764246.0,6765879.0,1633.0,19,R,6764218,6764444,228,958.9,516.9,5011,NA
55,1,continuous,19,82,trial,6764246.0,6765879.0,1633.0,19,R,6764492,6764946,456,532.6,602.2,4657,left
55,1,continuous,19,82,trial,6764246.0,6765879.0,1633.0,19,R,6764966,6765094,130,613.4,552.4,4275,left
55,1,continuous,19,82,trial,6764246.0,6765879.0,1633.0,19,R,6765154,6765684,532,1386.2,579.7,4365,right
55,1,continuous,19,82,postResponse,6764246.0,6765879.0,1633.0,19,R,6765708,6766214,508,1500.0,565.1,4598,right
55,1,continuous,20,20,fixationCross,6766797.0,6768080.0,1283.0,20,R,6766288,6766462,176,1493.5,571.5,4660,right
55,1,continuous,20,20,fixationCross,6766797.0,6768080.0,1283.0,20,R,6766514,6766678,166,1053.4,514.4,5011,NA
55,1,continuous,20,20,trial,6766797.0,6768080.0,1283.0,20,R,6766698,6767046,350,975.0,526.7,5200,NA
55,1,continuous,20,20,trial,6766797.0,6768080.0,1283.0,20,R,6767092,6767598,508,587.4,604.1,4644,left
55,1,continuous,20,20,trial,6766797.0,6768080.0,1283.0,20,R,6767614,6767950,338,612.7,583.6,4238,left
55,1,continuous,20,20,postResponse,6766797.0,6768080.0,1283.0,20,R,6768016,6768414,400,1388.9,572.5,4335,right
55,1,continuous,21,75,fixationCross,6769246.0,6770763.0,1517.0,21,R,6768516,6768770,256,1376.5,579.6,4613,right
55,1,continuous,21,75,fixationCross,6769246.0,6770763.0,1517.0,21,R,6768810,6768948,140,1131.9,541.6,4987,NA
55,1,continuous,21,75,trial,6769246.0,6770763.0,1517.0,21,R,6768974,6769462,490,966.5,538.0,5024,NA
55,1,continuous,21,75,trial,6769246.0,6770763.0,1517.0,21,R,6769508,6769658,152,607.5,600.9,4807,left
55,1,continuous,21,75,trial,6769246.0,6770763.0,1517.0,21,R,6769670,6769988,320,586.4,585.6,4442,left
55,1,continuous,21,75,trial,6769246.0,6770763.0,1517.0,21,R,6770048,6770292,246,1335.2,537.1,4110,right
55,1,continuous,21,75,trial,6769246.0,6770763.0,1517.0,21,R,6770312,6770744,434,1405.4,555.2,4143,right
55,1,continuous,21,75,postResponse,6769246.0,6770763.0,1517.0,21,R,6770770,6771098,330,1257.5,484.8,4073,right
55,1,continuous,22,72,fixationCross,6771997.0,6774147.0,2150.0,22,R,6771172,6771672,502,1248.3,490.6,4399,right
55,1,continuous,22,72,trial,6771997.0,6774147.0,2150.0,22,R,6771710,6772230,522,978.6,521.6,4981,NA
55,1,continuous,22,72,trial,6771997.0,6774147.0,2150.0,22,R,6772250,6772392,144,1089.2,510.6,4928,NA
55,1,continuous,22,72,trial,6771997.0,6774147.0,2150.0,22,R,6772432,6772656,226,1380.4,522.5,4671,right
55,1,continuous,22,72,trial,6771997.0,6774147.0,2150.0,22,R,6772680,6773076,398,1502.2,552.3,4592,right
55,1,continuous,22,72,trial,6771997.0,6774147.0,2150.0,22,R,6773102,6773692,592,1355.6,524.9,4423,right
55,1,continuous,22,72,trial,6771997.0,6774147.0,2150.0,22,R,6773758,6773934,178,581.9,616.1,4848,left
55,1,continuous,22,72,postResponse,6771997.0,6774147.0,2150.0,22,R,6773952,6774480,530,546.7,581.8,4643,left
55,1,continuous,23,79,fixationCross,6775280.0,6777713.0,2433.0,23,R,6774554,6774958,406,556.3,587.6,4752,left
55,1,continuous,23,79,fixationCross,6775280.0,6777713.0,2433.0,23,R,6774998,6775176,180,925.9,514.2,4882,NA
55,1,continuous,23,79,trial,6775280.0,6777713.0,2433.0,23,R,6775192,6775506,316,973.0,515.3,4906,NA
55,1,continuous,23,79,trial,6775280.0,6777713.0,2433.0,23,R,6775554,6775908,356,1368.3,557.4,4818,right
55,1,continuous,23,79,trial,6775280.0,6777713.0,2433.0,23,R,6775928,6776142,216,1432.7,597.7,4549,right
55,1,continuous,23,79,trial,6775280.0,6777713.0,2433.0,23,R,6776208,6777228,1022,582.6,642.7,4707,left
55,1,continuous,23,79,postResponse,6775280.0,6777713.0,2433.0,23,R,6777290,6778048,760,1275.2,611.5,4760,right
55,1,continuous,24,25,fixationCross,6778863.0,6780413.0,1550.0,24,R,6778122,6778540,420,1269.6,613.6,5103,right
55,1,continuous,24,25,trial,6778863.0,6780413.0,1550.0,24,R,6778582,6779144,564,957.2,549.8,5215,NA
55,1,continuous,24,25,trial,6778863.0,6780413.0,1550.0,24,R,6779194,6779624,432,1479.9,579.8,4552,right
55,1,continuous,24,25,trial,6778863.0,6780413.0,1550.0,24,R,6779692,6779888,198,621.2,558.2,4287,left
55,1,continuous,24,25,trial,6778863.0,6780413.0,1550.0,24,R,6779914,6780142,230,517.9,496.0,4240,left
55,1,continuous,24,25,trial,6778863.0,6780413.0,1550.0,24,R,6780162,6780386,226,498.5,424.8,4231,left
55,1,continuous,24,25,trial,6778863.0,6780413.0,1550.0,24,R,6780408,6780698,292,630.3,469.0,4220,left
55,1,continuous,25,75,fixationCross,6781313.0,6784064.0,2751.0,25,R,6780850,6781274,426,913.6,532.4,4638,NA
55,1,continuous,25,75,trial,6781313.0,6784064.0,2751.0,25,R,6781290,6781564,276,954.2,544.9,4890,NA
55,1,continuous,25,75,trial,6781313.0,6784064.0,2751.0,25,R,6781610,6781942,334,1337.3,572.2,4640,right
55,1,continuous,25,75,trial,6781313.0,6784064.0,2751.0,25,R,6781966,6782328,364,1469.4,555.4,4410,right
55,1,continuous,25,75,trial,6781313.0,6784064.0,2751.0,25,R,6782354,6783106,754,1324.5,586.2,4594,right
55,1,continuous,25,75,trial,6781313.0,6784064.0,2751.0,25,R,6783126,6783448,324,1335.4,528.2,4774,right
55,1,continuous,25,75,trial,6781313.0,6784064.0,2751.0,25,R,6783470,6783650,182,1232.7,554.2,4760,right
55,1,continuous,25,75,trial,6781313.0,6784064.0,2751.0,25,R,6783704,6783976,274,725.1,579.6,4855,left
55,1,continuous,25,75,postResponse,6781313.0,6784064.0,2751.0,25,R,6784010,6784394,386,524.1,579.2,4565,left
55,1,continuous,26,75,fixationCross,6874181.0,6877165.0,2984.0,26,R,6873482,6873748,268,943.5,48.4,4434,NA
55,1,continuous,26,75,fixationCross,6874181.0,6877165.0,2984.0,26,R,6873792,6873898,108,948.2,409.5,4362,NA
55,1,continuous,26,75,trial,6874181.0,6877165.0,2984.0,26,R,6873928,6874512,586,953.1,537.1,4896,NA
55,1,continuous,26,75,trial,6874181.0,6877165.0,2984.0,26,R,6874554,6874914,362,1313.6,502.7,4729,right
55,1,continuous,26,75,trial,6874181.0,6877165.0,2984.0,26,R,6874974,6875190,218,646.3,566.3,4440,left
55,1,continuous,26,75,trial,6874181.0,6877165.0,2984.0,26,R,6875202,6875374,174,642.7,558.9,4361,left
55,1,continuous,26,75,trial,6874181.0,6877165.0,2984.0,26,R,6875384,6875410,28,643.8,570.1,4369,left
55,1,continuous,26,75,trial,6874181.0,6877165.0,2984.0,26,R,6875430,6875692,264,556.0,593.4,4472,left
55,1,continuous,26,75,trial,6874181.0,6877165.0,2984.0,26,R,6875716,6875888,174,445.8,565.3,4418,left
55,1,continuous,26,75,trial,6874181.0,6877165.0,2984.0,26,R,6875924,6876166,244,277.3,464.1,4169,left
55,1,continuous,26,75,trial,6874181.0,6877165.0,2984.0,26,R,6876230,6876296,68,867.6,521.6,3993,NA
55,1,continuous,26,75,trial,6874181.0,6877165.0,2984.0,26,R,6876342,6876576,236,1346.9,559.0,3979,right
55,1,continuous,26,75,trial,6874181.0,6877165.0,2984.0,26,R,6876596,6876926,332,1422.9,593.2,4202,right
55,1,continuous,26,75,trial,6874181.0,6877165.0,2984.0,26,R,6876952,6877228,278,1444.4,499.4,4202,right
55,1,continuous,26,75,postResponse,6874181.0,6877165.0,2984.0,26,R,6877272,6877498,228,1227.5,764.5,4228,NA
55,1,continuous,27,15,fixationCross,6878048.0,6880031.0,1983.0,27,R,6877578,6878014,438,959.0,538.6,4728,NA
55,1,continuous,27,15,trial,6878048.0,6880031.0,1983.0,27,R,6878024,6878232,210,949.5,547.5,5002,NA
55,1,continuous,27,15,trial,6878048.0,6880031.0,1983.0,27,R,6878276,6878586,312,1339.2,526.1,4694,right
55,1,continuous,27,15,trial,6878048.0,6880031.0,1983.0,27,R,6878608,6878734,128,1343.0,473.0,4335,right
55,1,continuous,27,15,trial,6878048.0,6880031.0,1983.0,27,R,6878798,6879144,348,551.1,608.8,4206,left
55,1,continuous,27,15,trial,6878048.0,6880031.0,1983.0,27,R,6879162,6879520,360,473.0,614.0,4099,left
55,1,continuous,27,15,trial,6878048.0,6880031.0,1983.0,27,R,6879542,6880000,460,576.2,641.9,4264,left
55,1,continuous,27,15,postResponse,6878048.0,6880031.0,1983.0,27,R,6880012,6880364,354,610.5,652.4,4510,left
55,1,continuous,28,17,fixationCross,6881214.0,6883614.0,2400.0,28,R,6880464,6880886,424,712.7,538.9,4708,left
55,1,continuous,28,17,trial,6881214.0,6883614.0,2400.0,28,R,6880912,6881438,528,900.2,542.9,4868,NA
55,1,continuous,28,17,trial,6881214.0,6883614.0,2400.0,28,R,6881484,6881642,160,1319.4,534.7,4786,right
55,1,continuous,28,17,trial,6881214.0,6883614.0,2400.0,28,R,6881670,6881852,184,1490.4,494.4,4462,right
55,1,continuous,28,17,trial,6881214.0,6883614.0,2400.0,28,R,6881868,6882172,306,1520.4,465.7,4188,right
55,1,continuous,28,17,trial,6881214.0,6883614.0,2400.0,28,R,6882196,6882348,154,1380.4,487.7,4181,right
55,1,continuous,28,17,trial,6881214.0,6883614.0,2400.0,28,R,6882412,6882644,234,590.1,574.7,4457,left
55,1,continuous,28,17,trial,6881214.0,6883614.0,2400.0,28,R,6882666,6883054,390,513.0,585.1,4572,left
55,1,continuous,28,17,postResponse,6881214.0,6883614.0,2400.0,28,R,6883078,6883948,872,612.1,627.3,4598,left
55,1,continuous,29,100,fixationCross,6885397.0,6887115.0,1718.0,29,R,6884046,6884366,322,612.3,634.9,4696,left
55,1,continuous,29,100,fixationCross,6885397.0,6887115.0,1718.0,29,R,6884392,6885100,710,822.3,570.2,4817,NA
55,1,continuous,29,100,trial,6885397.0,6887115.0,1718.0,29,R,6885122,6885584,464,927.5,554.2,5026,NA
55,1,continuous,29,100,trial,6885397.0,6887115.0,1718.0,29,R,6885628,6885786,160,591.5,596.3,5013,left
55,1,continuous,29,100,trial,6885397.0,6887115.0,1718.0,29,R,6885804,6886034,232,525.7,574.8,4592,left
55,1,continuous,29,100,trial,6885397.0,6887115.0,1718.0,29,R,6886044,6886238,196,497.2,559.7,4142,left
55,1,continuous,29,100,trial,6885397.0,6887115.0,1718.0,29,R,6886310,6886768,460,1392.3,565.1,3915,right
55,1,continuous,29,100,trial,6885397.0,6887115.0,1718.0,29,R,6886814,6886972,160,1466.8,873.3,4058,NA
55,1,continuous,29,100,trial,6885397.0,6887115.0,1718.0,29,R,6886994,6887350,358,1476.0,952.8,4296,NA
55,1,continuous,29,100,postResponse,6885397.0,6887115.0,1718.0,29,R,6887418,6887446,30,1240.4,550.0,4635,right
55,1,continuous,30,76,fixationCross,6888148.0,6889614.0,1466.0,30,R,6887520,6887808,290,1235.1,548.5,4666,right
55,1,continuous,30,76,trial,6888148.0,6889614.0,1466.0,30,R,6887848,6888322,476,908.5,553.7,4962,NA
55,1,continuous,30,76,trial,6888148.0,6889614.0,1466.0,30,R,6888368,6888492,126,575.7,588.8,5137,left
55,1,continuous,30,76,trial,6888148.0,6889614.0,1466.0,30,R,6888516,6888910,396,470.0,586.6,4530,left
55,1,continuous,30,76,trial,6888148.0,6889614.0,1466.0,30,R,6888980,6889160,182,1393.8,583.2,4174,right
55,1,continuous,30,76,trial,6888148.0,6889614.0,1466.0,30,R,6889176,6889556,382,1446.5,593.3,4142,right
55,1,continuous,30,76,postResponse,6888148.0,6889614.0,1466.0,30,R,6889572,6889948,378,1496.7,562.6,4135,right
55,1,continuous,31,83,fixationCross,6890765.0,6892564.0,1799.0,31,R,6890022,6890256,236,1490.9,564.9,4211,right
55,1,continuous,31,83,fixationCross,6890765.0,6892564.0,1799.0,31,R,6890294,6890442,150,1269.5,566.0,4588,right
55,1,continuous,31,83,trial,6890765.0,6892564.0,1799.0,31,R,6890482,6890948,468,966.4,564.6,4960,NA
55,1,continuous,31,83,trial,6890765.0,6892564.0,1799.0,31,R,6890990,6891298,310,1343.8,567.6,4726,right
55,1,continuous,31,83,trial,6890765.0,6892564.0,1799.0,31,R,6891310,6891572,264,1314.3,552.5,4349,right
55,1,continuous,31,83,trial,6890765.0,6892564.0,1799.0,31,R,6891634,6891802,170,617.9,628.6,4481,left
55,1,continuous,31,83,trial,6890765.0,6892564.0,1799.0,31,R,6891970,6892518,550,1433.0,565.5,4484,right
55,1,continuous,31,83,postResponse,6890765.0,6892564.0,1799.0,31,R,6892544,6892898,356,1423.9,469.3,4517,right
55,1,continuous,32,100,fixationCross,6893681.0,6897181.0,3500.0,32,R,6892996,6893088,94,1418.8,480.1,4500,right
55,1,continuous,32,100,fixationCross,6893681.0,6897181.0,3500.0,32,R,6893120,6893372,254,1185.7,517.4,4777,right
55,1,continuous,32,100,trial,6893681.0,6897181.0,3500.0,32,R,6893406,6893994,590,960.7,545.6,5180,NA
55,1,continuous,32,100,trial,6893681.0,6897181.0,3500.0,32,R,6894046,6894508,464,543.4,603.8,4889,left
55,1,continuous,32,100,trial,6893681.0,6897181.0,3500.0,32,R,6894526,6895222,698,516.9,657.4,4759,left
55,1,continuous,32,100,trial,6893681.0,6897181.0,3500.0,32,R,6895264,6895434,172,504.2,504.9,4759,left
55,1,continuous,32,100,trial,6893681.0,6897181.0,3500.0,32,R,6895510,6895824,316,1491.5,599.7,4436,right
55,1,continuous,32,100,trial,6893681.0,6897181.0,3500.0,32,R,6895844,6896064,222,1411.6,574.3,4234,right
55,1,continuous,32,100,trial,6893681.0,6897181.0,3500.0,32,R,6896090,6896416,328,1537.4,541.3,4117,right
55,1,continuous,32,100,trial,6893681.0,6897181.0,3500.0,32,R,6896432,6897160,730,1552.7,511.5,4394,right
55,1,continuous,32,100,postResponse,6893681.0,6897181.0,3500.0,32,R,6897186,6897514,330,1381.6,604.7,4674,right
55,1,continuous,33,19,fixationCross,6898231.0,6900098.0,1867.0,33,R,6897588,6897924,338,1271.5,562.9,4630,right
55,1,continuous,33,19,trial,6898231.0,6900098.0,1867.0,33,R,6897964,6898486,524,953.5,566.2,5117,NA
55,1,continuous,33,19,trial,6898231.0,6900098.0,1867.0,33,R,6898528,6898738,212,1323.8,563.4,4754,right
55,1,continuous,33,19,trial,6898231.0,6900098.0,1867.0,33,R,6898760,6899168,410,1432.8,533.9,4340,right
55,1,continuous,33,19,trial,6898231.0,6900098.0,1867.0,33,R,6899192,6899386,196,1301.9,572.0,4267,right
55,1,continuous,33,19,trial,6898231.0,6900098.0,1867.0,33,R,6899444,6899676,234,637.5,642.5,4444,left
55,1,continuous,33,19,trial,6898231.0,6900098.0,1867.0,33,R,6899696,6900130,436,599.6,575.4,4364,left
55,1,continuous,33,19,postResponse,6898231.0,6900098.0,1867.0,33,R,6900148,6900432,286,639.0,537.0,4409,left
55,1,continuous,34,88,fixationCross,6901231.0,6903232.0,2001.0,34,R,6900506,6900922,418,641.5,552.4,4630,left
55,1,continuous,34,88,trial,6901231.0,6903232.0,2001.0,34,R,6900964,6901464,502,949.0,550.9,4830,NA
55,1,continuous,34,88,trial,6901231.0,6903232.0,2001.0,34,R,6901512,6901716,206,1381.7,556.1,4729,right
55,1,continuous,34,88,trial,6901231.0,6903232.0,2001.0,34,R,6901738,6901844,108,1440.7,490.6,4573,right
55,1,continuous,34,88,trial,6901231.0,6903232.0,2001.0,34,R,6901912,6902138,228,575.2,515.8,4632,left
55,1,continuous,34,88,trial,6901231.0,6903232.0,2001.0,34,R,6902152,6902442,292,541.3,504.0,4537,left
55,1,continuous,34,88,trial,6901231.0,6903232.0,2001.0,34,R,6902458,6902696,240,554.9,553.1,4424,left
55,1,continuous,34,88,trial,6901231.0,6903232.0,2001.0,34,R,6902768,6903088,322,1326.1,688.8,4381,right
55,1,continuous,34,88,trial,6901231.0,6903232.0,2001.0,34,R,6903130,6903284,156,1376.8,571.8,4535,right
55,1,continuous,34,88,postResponse,6901231.0,6903232.0,2001.0,34,R,6903306,6903564,260,1423.5,504.6,4633,right
55,1,continuous,35,12,fixationCross,6904098.0,6905132.0,1034.0,35,R,6903638,6903698,62,1420.4,507.2,4685,right
55,1,continuous,35,12,fixationCross,6904098.0,6905132.0,1034.0,35,R,6903750,6904056,308,912.1,529.8,4970,NA
55,1,continuous,35,12,trial,6904098.0,6905132.0,1034.0,35,R,6904066,6904360,296,933.0,537.5,5097,NA
55,1,continuous,35,12,trial,6904098.0,6905132.0,1034.0,35,R,6904408,6904896,490,590.8,592.1,4766,left
55,1,continuous,35,12,trial,6904098.0,6905132.0,1034.0,35,R,6904964,6905134,172,1471.7,553.7,4482,right
55,1,continuous,35,12,postResponse,6904098.0,6905132.0,1034.0,35,R,6905152,6905464,314,1469.2,517.9,4465,right
55,1,continuous,36,1,fixationCross,6906198.0,6907498.0,1300.0,36,R,6905564,6905864,302,1456.6,529.3,4610,right
55,1,continuous,36,1,trial,6906198.0,6907498.0,1300.0,36,R,6905918,6906370,454,904.7,560.3,4996,NA
55,1,continuous,36,1,trial,6906198.0,6907498.0,1300.0,36,R,6906414,6906754,342,575.4,596.8,4903,left
55,1,continuous,36,1,trial,6906198.0,6907498.0,1300.0,36,R,6906774,6907426,654,618.2,509.7,4361,left
55,1,continuous,36,1,postResponse,6906198.0,6907498.0,1300.0,36,R,6907490,6907828,340,1372.5,584.4,4360,right
55,1,continuous,37,100,fixationCross,6908432.0,6909965.0,1533.0,37,R,6907902,6908110,210,1366.4,585.7,4525,right
55,1,continuous,37,100,fixationCross,6908432.0,6909965.0,1533.0,37,R,6908152,6908324,174,1039.9,542.9,4854,NA
55,1,continuous,37,100,trial,6908432.0,6909965.0,1533.0,37,R,6908344,6908722,380,968.2,545.8,5090,NA
55,1,continuous,37,100,trial,6908432.0,6909965.0,1533.0,37,R,6908772,6909136,366,586.3,545.4,4705,left
55,1,continuous,37,100,trial,6908432.0,6909965.0,1533.0,37,R,6909160,6909306,148,456.7,512.3,4366,left
55,1,continuous,37,100,trial,6908432.0,6909965.0,1533.0,37,R,6909328,6909514,188,362.7,456.3,4319,left
55,1,continuous,37,100,trial,6908432.0,6909965.0,1533.0,37,R,6909548,6909694,148,607.2,495.9,4332,left
55,1,continuous,37,100,trial,6908432.0,6909965.0,1533.0,37,R,6909756,6909948,194,1392.2,486.4,4326,right
55,1,continuous,37,100,postResponse,6908432.0,6909965.0,1533.0,37,R,6909964,6910298,336,1413.3,470.7,4310,right
55,1,continuous,38,1,fixationCross,6911498.0,6913082.0,1584.0,38,R,6910372,6911176,806,1368.4,479.4,4756,right
55,1,continuous,38,1,fixationCross,6911498.0,6913082.0,1584.0,38,R,6911224,6911334,112,997.3,540.8,5086,NA
55,1,continuous,38,1,trial,6911498.0,6913082.0,1584.0,38,R,6911344,6911794,452,969.4,546.1,5175,NA
55,1,continuous,38,1,trial,6911498.0,6913082.0,1584.0,38,R,6911838,6912148,312,1317.6,512.9,4769,right
55,1,continuous,38,1,trial,6911498.0,6913082.0,1584.0,38,R,6912216,6912400,186,530.8,536.8,4737,left
55,1,continuous,38,1,trial,6911498.0,6913082.0,1584.0,38,R,6912420,6912828,410,462.8,478.2,4560,left
55,1,continuous,38,1,postResponse,6911498.0,6913082.0,1584.0,38,R,6912850,6913416,568,519.1,540.3,4347,left
55,1,continuous,39,24,fixationCross,6913982.0,6915815.0,1833.0,39,R,6913490,6913648,160,525.6,526.4,4632,left
55,1,continuous,39,24,fixationCross,6913982.0,6915815.0,1833.0,39,R,6913698,6913940,244,934.0,526.1,4911,NA
55,1,continuous,39,24,trial,6913982.0,6915815.0,1833.0,39,R,6913954,6914252,300,953.3,531.9,5194,NA
55,1,continuous,39,24,trial,6913982.0,6915815.0,1833.0,39,R,6914298,6914522,226,1372.0,582.7,4990,right
55,1,continuous,39,24,trial,6913982.0,6915815.0,1833.0,39,R,6914546,6914728,184,1485.0,592.4,4669,right
55,1,continuous,39,24,trial,6913982.0,6915815.0,1833.0,39,R,6914796,6915184,390,556.3,565.2,4615,left
55,1,continuous,39,24,trial,6913982.0,6915815.0,1833.0,39,R,6915204,6915462,260,490.5,484.9,4515,left
55,1,continuous,39,24,trial,6913982.0,6915815.0,1833.0,39,R,6915654,6915834,182,1410.6,590.9,4348,right
55,1,continuous,39,24,postResponse,6913982.0,6915815.0,1833.0,39,R,6915852,6916160,310,1479.2,610.9,4440,right
55,1,continuous,40,100,fixationCross,6916731.0,6918064.0,1333.0,40,R,6916260,6916632,374,991.2,532.7,4704,NA
55,1,continuous,40,100,trial,6916731.0,6918064.0,1333.0,40,R,6916644,6916954,312,948.6,542.0,4915,NA
55,1,continuous,40,100,trial,6916731.0,6918064.0,1333.0,40,R,6916998,6917598,602,1354.4,557.4,4544,right
55,1,continuous,40,100,trial,6916731.0,6918064.0,1333.0,40,R,6917662,6917886,226,612.6,549.7,4585,left
55,1,continuous,40,100,trial,6916731.0,6918064.0,1333.0,40,R,6917902,6917956,56,604.4,522.2,4657,left
55,1,continuous,40,100,postResponse,6916731.0,6918064.0,1333.0,40,R,6918012,6918398,388,495.8,541.1,4598,left
55,1,continuous,41,100,fixationCross,6928749.0,6931065.0,2316.0,41,R,6918498,6918524,28,490.7,508.3,4535,left
55,1,continuous,41,100,fixationCross,6928749.0,6931065.0,2316.0,41,R,6918534,6918690,158,487.9,494.1,4605,left
55,1,continuous,41,100,fixationCross,6928749.0,6931065.0,2316.0,41,R,6918730,6918812,84,489.3,474.6,4773,left
55,1,continuous,41,100,fixationCross,6928749.0,6931065.0,2316.0,41,R,6918858,6918960,104,869.4,420.2,4918,NA
55,1,continuous,41,100,fixationCross,6928749.0,6931065.0,2316.0,41,R,6918972,6919252,282,876.7,381.5,5033,NA
55,1,continuous,41,100,fixationCross,6928749.0,6931065.0,2316.0,41,R,6919266,6919294,30,878.3,340.5,5114,NA
55,1,continuous,41,100,fixationCross,6928749.0,6931065.0,2316.0,41,R,6919310,6919342,34,878.1,322.3,5156,NA
55,1,continuous,41,100,fixationCross,6928749.0,6931065.0,2316.0,41,R,6919368,6919426,60,877.8,313.0,5228,NA
55,1,continuous,41,100,fixationCross,6928749.0,6931065.0,2316.0,41,R,6919436,6920036,602,875.9,297.6,5373,NA
55,1,continuous,41,100,fixationCross,6928749.0,6931065.0,2316.0,41,R,6920058,6920602,546,952.5,285.2,5356,NA
55,1,continuous,41,100,fixationCross,6928749.0,6931065.0,2316.0,41,R,6920644,6921100,458,1234.3,229.3,5391,NA
55,1,continuous,41,100,fixationCross,6928749.0,6931065.0,2316.0,41,R,6921142,6921662,522,942.9,247.9,5510,NA
55,1,continuous,41,100,fixationCross,6928749.0,6931065.0,2316.0,41,R,6921722,6921844,124,1469.1,203.7,5142,NA
55,1,continuous,41,100,fixationCross,6928749.0,6931065.0,2316.0,41,R,6921998,6924860,2864,1734.0,77.4,5085,NA
55,1,continuous,41,100,fixationCross,6928749.0,6931065.0,2316.0,41,R,6924928,6924952,26,1646.0,1009.9,5420,NA
55,1,continuous,41,100,fixationCross,6928749.0,6931065.0,2316.0,41,R,6924986,6925014,30,1680.8,1018.9,5409,NA
55,1,continuous,41,100,trial,6928749.0,6931065.0,2316.0,41,R,6925034,6929114,4082,1681.4,922.2,6039,NA
55,1,continuous,41,100,trial,6928749.0,6931065.0,2316.0,41,R,6929182,6929304,124,1206.6,717.1,5849,right
55,1,continuous,41,100,trial,6928749.0,6931065.0,2316.0,41,R,6929350,6929568,220,1326.3,574.4,5333,right
55,1,continuous,41,100,trial,6928749.0,6931065.0,2316.0,41,R,6929598,6929742,146,1529.1,493.0,4839,right
55,1,continuous,41,100,trial,6928749.0,6931065.0,2316.0,41,R,6929760,6929846,88,1542.2,455.5,4602,right
55,1,continuous,41,100,trial,6928749.0,6931065.0,2316.0,41,R,6929860,6930246,388,1597.2,378.4,4332,right
55,1,continuous,41,100,trial,6928749.0,6931065.0,2316.0,41,R,6930328,6930436,110,612.5,407.7,4383,left
55,1,continuous,41,100,trial,6928749.0,6931065.0,2316.0,41,R,6930478,6930522,46,596.7,431.2,4428,left
55,1,continuous,41,100,trial,6928749.0,6931065.0,2316.0,41,R,6930542,6930768,228,531.3,462.9,4363,left
55,1,continuous,41,100,postResponse,6928749.0,6931065.0,2316.0,41,R,6930800,6931398,600,386.4,471.7,4068,left
55,1,continuous,42,100,fixationCross,6932215.0,6934781.0,2566.0,42,R,6931484,6931714,232,606.7,472.2,4250,left
55,1,continuous,42,100,fixationCross,6932215.0,6934781.0,2566.0,42,R,6931740,6931858,120,607.1,478.1,4574,left
55,1,continuous,42,100,fixationCross,6932215.0,6934781.0,2566.0,42,R,6931876,6931904,30,606.2,467.9,4708,left
55,1,continuous,42,100,fixationCross,6932215.0,6934781.0,2566.0,42,R,6931954,6932104,152,933.7,462.2,4834,NA
55,1,continuous,42,100,fixationCross,6932215.0,6934781.0,2566.0,42,R,6932124,6932158,36,938.0,502.3,4871,NA
55,1,continuous,42,100,trial,6932215.0,6934781.0,2566.0,42,R,6932180,6932416,238,938.5,490.7,4956,NA
55,1,continuous,42,100,trial,6932215.0,6934781.0,2566.0,42,R,6932464,6932560,98,1275.2,513.2,5036,right
55,1,continuous,42,100,trial,6932215.0,6934781.0,2566.0,42,R,6932576,6932796,222,1288.8,478.6,4768,right
55,1,continuous,42,100,trial,6932215.0,6934781.0,2566.0,42,R,6932832,6933090,260,1498.1,501.3,4337,right
55,1,continuous,42,100,trial,6932215.0,6934781.0,2566.0,42,R,6933106,6933610,506,1455.2,456.5,4306,right
55,1,continuous,42,100,trial,6932215.0,6934781.0,2566.0,42,R,6933682,6933740,60,635.9,364.6,4537,left
55,1,continuous,42,100,trial,6932215.0,6934781.0,2566.0,42,R,6933758,6934120,364,622.9,481.4,4508,left
55,1,continuous,42,100,trial,6932215.0,6934781.0,2566.0,42,R,6934142,6934402,262,692.2,420.8,4360,left
55,1,continuous,42,100,trial,6932215.0,6934781.0,2566.0,42,R,6934464,6934518,56,1351.1,422.4,4237,right
55,1,continuous,42,100,trial,6932215.0,6934781.0,2566.0,42,R,6934536,6934742,208,1348.2,454.6,4234,right
55,1,continuous,42,100,trial,6932215.0,6934781.0,2566.0,42,R,6934764,6934856,94,1441.3,433.1,4181,right
55,1,continuous,42,100,postResponse,6932215.0,6934781.0,2566.0,42,R,6934874,6935116,244,1439.9,437.7,4194,right
55,1,continuous,43,3,fixationCross,6936332.0,6937899.0,1567.0,43,R,6935192,6935372,182,1434.7,426.5,4394,right
55,1,continuous,43,3,fixationCross,6936332.0,6937899.0,1567.0,43,R,6935392,6935436,46,1426.1,433.2,4573,right
55,1,continuous,43,3,fixationCross,6936332.0,6937899.0,1567.0,43,R,6935522,6935612,92,1055.6,310.4,4870,NA
55,1,continuous,43,3,fixationCross,6936332.0,6937899.0,1567.0,43,R,6935636,6935716,82,962.3,379.3,4997,NA
55,1,continuous,43,3,fixationCross,6936332.0,6937899.0,1567.0,43,R,6935736,6935860,126,952.0,392.2,5069,NA
55,1,continuous,43,3,trial,6936332.0,6937899.0,1567.0,43,R,6935898,6936570,674,940.5,455.4,5295,NA
55,1,continuous,43,3,trial,6936332.0,6937899.0,1567.0,43,R,6936614,6936950,338,1299.8,492.9,4882,right
55,1,continuous,43,3,trial,6936332.0,6937899.0,1567.0,43,R,6937010,6937150,142,604.2,473.7,4635,left
55,1,continuous,43,3,trial,6936332.0,6937899.0,1567.0,43,R,6937168,6937190,24,595.5,464.4,4626,left
55,1,continuous,43,3,trial,6936332.0,6937899.0,1567.0,43,R,6937208,6937324,118,602.5,528.9,4612,left
55,1,continuous,43,3,trial,6936332.0,6937899.0,1567.0,43,R,6937360,6937500,142,364.4,537.6,4466,left
55,1,continuous,43,3,trial,6936332.0,6937899.0,1567.0,43,R,6937510,6938102,594,366.7,537.1,4288,left
55,1,continuous,43,3,trial,6936332.0,6937899.0,1567.0,43,R,6938114,6938208,96,370.9,552.4,4214,left
55,1,continuous,43,3,postResponse,6936332.0,6937899.0,1567.0,43,R,6938220,6938262,44,372.6,538.9,4233,left
55,1,continuous,44,100,fixationCross,6939032.0,6940782.0,1750.0,44,R,6938338,6938694,358,384.1,551.9,4553,left
55,1,continuous,44,100,fixationCross,6939032.0,6940782.0,1750.0,44,R,6938774,6938912,140,935.5,514.4,4902,NA
55,1,continuous,44,100,fixationCross,6939032.0,6940782.0,1750.0,44,R,6938932,6939014,84,938.8,482.7,4886,NA
55,1,continuous,44,100,trial,6939032.0,6940782.0,1750.0,44,R,6939046,6939326,282,934.6,512.1,4938,NA
55,1,continuous,44,100,trial,6939032.0,6940782.0,1750.0,44,R,6939374,6939594,222,504.1,507.4,4930,left
55,1,continuous,44,100,trial,6939032.0,6940782.0,1750.0,44,R,6939606,6939676,72,502.4,499.6,4769,left
55,1,continuous,44,100,trial,6939032.0,6940782.0,1750.0,44,R,6939696,6939818,124,434.3,519.6,4545,left
55,1,continuous,44,100,trial,6939032.0,6940782.0,1750.0,44,R,6939830,6939932,104,428.8,498.3,4394,left
55,1,continuous,44,100,trial,6939032.0,6940782.0,1750.0,44,R,6940004,6940126,124,1327.0,499.7,4219,right
55,1,continuous,44,100,trial,6939032.0,6940782.0,1750.0,44,R,6940136,6940412,278,1325.4,500.0,4142,right
55,1,continuous,44,100,trial,6939032.0,6940782.0,1750.0,44,R,6940438,6941000,564,1452.7,445.6,4278,right
55,1,continuous,44,100,trial,6939032.0,6940782.0,1750.0,44,R,6941012,6941066,56,1457.1,410.6,4480,right
55,1,continuous,44,100,postResponse,6939032.0,6940782.0,1750.0,44,R,6941084,6941116,34,1449.6,437.8,4522,right
55,1,continuous,45,1,fixationCross,6941982.0,6943015.0,1033.0,45,R,6941244,6941446,204,839.1,411.2,4822,NA
55,1,continuous,45,1,fixationCross,6941982.0,6943015.0,1033.0,45,R,6941464,6941676,214,824.9,473.0,4992,NA
55,1,continuous,45,1,trial,6941982.0,6943015.0,1033.0,45,R,6941702,6942088,388,944.0,488.0,5049,NA
55,1,continuous,45,1,trial,6941982.0,6943015.0,1033.0,45,R,6942118,6942142,26,948.3,498.3,5054,NA
55,1,continuous,45,1,trial,6941982.0,6943015.0,1033.0,45,R,6942160,6942242,84,948.1,530.1,5072,NA
55,1,continuous,45,1,trial,6941982.0,6943015.0,1033.0,45,R,6942288,6942532,246,612.9,533.6,4850,left
55,1,continuous,45,1,trial,6941982.0,6943015.0,1033.0,45,R,6942548,6942832,286,635.1,513.0,4468,left
55,1,continuous,45,1,trial,6941982.0,6943015.0,1033.0,45,R,6942894,6943104,212,1383.2,495.1,4314,right
55,1,continuous,45,1,postResponse,6941982.0,6943015.0,1033.0,45,R,6943128,6943350,224,1490.1,524.1,4442,right
55,1,continuous,46,100,fixationCross,6944032.0,6946832.0,2800.0,46,R,6943426,6943694,270,1479.9,542.2,4772,right
55,1,continuous,46,100,trial,6944032.0,6946832.0,2800.0,46,R,6943750,6944226,478,884.9,521.5,5212,NA
55,1,continuous,46,100,trial,6944032.0,6946832.0,2800.0,46,R,6944266,6944512,248,597.9,575.3,5102,left
55,1,continuous,46,100,trial,6944032.0,6946832.0,2800.0,46,R,6944576,6944992,418,1385.4,602.3,4308,right
55,1,continuous,46,100,trial,6944032.0,6946832.0,2800.0,46,R,6945012,6945508,498,1470.6,575.0,4467,right
55,1,continuous,46,100,trial,6944032.0,6946832.0,2800.0,46,R,6945560,6945700,142,1168.7,525.2,4635,NA
55,1,continuous,46,100,trial,6944032.0,6946832.0,2800.0,46,R,6945760,6946100,342,554.0,551.9,4659,left
55,1,continuous,46,100,trial,6944032.0,6946832.0,2800.0,46,R,6946166,6946294,130,1196.1,496.2,4400,right
55,1,continuous,46,100,trial,6944032.0,6946832.0,2800.0,46,R,6946322,6946838,518,1400.5,563.5,4382,right
55,1,continuous,46,100,postResponse,6944032.0,6946832.0,2800.0,46,R,6946856,6947164,310,1475.3,561.8,4381,right
55,1,continuous,47,11,fixationCross,6947765.0,6949249.0,1484.0,47,R,6947264,6947442,180,1468.7,569.1,4417,right
55,1,continuous,47,11,fixationCross,6947765.0,6949249.0,1484.0,47,R,6947504,6947554,52,931.6,511.5,4725,NA
55,1,continuous,47,11,trial,6947765.0,6949249.0,1484.0,47,R,6947564,6947766,204,921.0,520.2,4793,NA
55,1,continuous,47,11,trial,6947765.0,6949249.0,1484.0,47,R,6947778,6948050,274,947.2,528.1,4894,NA
55,1,continuous,47,11,trial,6947765.0,6949249.0,1484.0,47,R,6948104,6948690,588,500.6,601.4,4794,left
55,1,continuous,47,11,trial,6947765.0,6949249.0,1484.0,47,R,6948704,6949134,432,540.3,604.2,4735,left
55,1,continuous,47,11,postResponse,6947765.0,6949249.0,1484.0,47,R,6949198,6949582,386,1354.0,516.5,4794,right
55,1,continuous,48,90,fixationCross,6950349.0,6951582.0,1233.0,48,R,6949658,6950050,394,1349.2,526.9,4886,right
55,1,continuous,48,90,fixationCross,6950349.0,6951582.0,1233.0,48,R,6950094,6950284,192,984.0,540.2,5230,NA
55,1,continuous,48,90,trial,6950349.0,6951582.0,1233.0,48,R,6950294,6950612,320,957.7,538.7,5213,NA
55,1,continuous,48,90,trial,6950349.0,6951582.0,1233.0,48,R,6950670,6950912,244,464.5,496.5,5039,left
55,1,continuous,48,90,trial,6950349.0,6951582.0,1233.0,48,R,6950932,6951050,120,415.3,428.6,4842,left
55,1,continuous,48,90,trial,6950349.0,6951582.0,1233.0,48,R,6951120,6951392,274,1373.5,505.8,4589,right
55,1,continuous,48,90,postResponse,6950349.0,6951582.0,1233.0,48,R,6951410,6951916,508,1416.9,481.0,4482,right
55,1,continuous,49,16,fixationCross,6952599.0,6955415.0,2816.0,49,R,6951990,6952288,300,1403.2,492.4,4771,right
55,1,continuous,49,16,trial,6952599.0,6955415.0,2816.0,49,R,6952334,6952828,496,967.5,510.1,5215,NA
55,1,continuous,49,16,trial,6952599.0,6955415.0,2816.0,49,R,6952874,6953086,214,1341.4,526.2,4974,right
55,1,continuous,49,16,trial,6952599.0,6955415.0,2816.0,49,R,6953102,6953766,666,1329.2,510.4,4567,right
55,1,continuous,49,16,trial,6952599.0,6955415.0,2816.0,49,R,6953834,6954048,216,547.3,492.8,4638,left
55,1,continuous,49,16,trial,6952599.0,6955415.0,2816.0,49,R,6954076,6954220,146,489.5,359.3,4386,left
55,1,continuous,49,16,trial,6952599.0,6955415.0,2816.0,49,R,6954228,6954258,32,484.1,365.7,4253,left
55,1,continuous,49,16,trial,6952599.0,6955415.0,2816.0,49,R,6954272,6954870,600,462.9,325.7,4020,NA
55,1,continuous,49,16,postResponse,6952599.0,6955415.0,2816.0,49,R,6954904,6955750,848,509.9,557.5,4332,left
55,1,continuous,50,19,fixationCross,6956432.0,6957649.0,1217.0,50,R,6955850,6956090,242,524.9,582.1,4636,left
55,1,continuous,50,19,fixationCross,6956432.0,6957649.0,1217.0,50,R,6956134,6956314,182,900.3,537.2,4784,NA
55,1,continuous,50,19,trial,6956432.0,6957649.0,1217.0,50,R,6956332,6956656,326,952.2,546.2,4817,NA
55,1,continuous,50,19,trial,6956432.0,6957649.0,1217.0,50,R,6956702,6956934,234,533.1,567.8,4793,left
55,1,continuous,50,19,trial,6956432.0,6957649.0,1217.0,50,R,6956958,6957598,642,495.2,616.9,4406,left
55,1,continuous,50,19,postResponse,6956432.0,6957649.0,1217.0,50,R,6957622,6957982,362,554.6,563.6,4356,left
55,2,binary,1,1,fixationCross,7021333.0,7027266.0,5933.0,51,R,7020545,7020681,138,1410.8,663.6,5393,right
55,2,binary,1,1,fixationCross,7021333.0,7027266.0,5933.0,51,R,7020697,7020997,302,1361.4,649.7,5416,right
55,2,binary,1,1,trial,7021333.0,7027266.0,5933.0,51,R,7021043,7021547,506,975.8,560.1,5470,NA
55,2,binary,1,1,trial,7021333.0,7027266.0,5933.0,51,R,7021589,7021881,294,664.1,577.3,5074,left
55,2,binary,1,1,trial,7021333.0,7027266.0,5933.0,51,R,7021907,7022077,172,591.8,490.1,4630,left
55,2,binary,1,1,trial,7021333.0,7027266.0,5933.0,51,R,7022141,7022315,176,1363.3,540.6,4411,right
55,2,binary,1,1,trial,7021333.0,7027266.0,5933.0,51,R,7022333,7022641,310,1437.1,522.3,4295,right
55,2,binary,1,1,trial,7021333.0,7027266.0,5933.0,51,R,7022667,7023331,666,1321.5,609.6,4522,right
55,2,binary,1,1,trial,7021333.0,7027266.0,5933.0,51,R,7023395,7023669,276,596.2,553.5,4883,left
55,2,binary,1,1,trial,7021333.0,7027266.0,5933.0,51,R,7023721,7023843,124,490.1,950.5,4746,NA
55,2,binary,1,1,trial,7021333.0,7027266.0,5933.0,51,R,7023861,7024303,444,425.2,973.4,4741,NA
55,2,binary,1,1,trial,7021333.0,7027266.0,5933.0,51,R,7024317,7024403,88,463.0,949.5,4923,NA
55,2,binary,1,1,trial,7021333.0,7027266.0,5933.0,51,R,7024465,7024837,374,1317.3,970.3,4913,NA
55,2,binary,1,1,trial,7021333.0,7027266.0,5933.0,51,R,7024885,7025485,602,827.0,914.1,5414,likertHorizontal
55,2,binary,1,1,trial,7021333.0,7027266.0,5933.0,51,R,7025553,7025793,242,621.9,653.6,5521,left
55,2,binary,1,1,trial,7021333.0,7027266.0,5933.0,51,R,7025811,7026077,268,548.3,656.9,4954,left
55,2,binary,1,1,trial,7021333.0,7027266.0,5933.0,51,R,7026117,7026421,306,518.9,486.1,4655,left
55,2,binary,1,1,trial,7021333.0,7027266.0,5933.0,51,R,7026433,7026877,446,557.1,468.4,4706,left
55,2,binary,1,1,trial,7021333.0,7027266.0,5933.0,51,R,7026909,7027235,328,584.8,622.5,4889,left
55,2,binary,1,1,postResponse,7021333.0,7027266.0,5933.0,51,R,7027277,7027599,324,472.3,426.0,4912,left
55,2,binary,2,1,fixationCross,7028400.0,7029783.0,1383.0,52,R,7027673,7027841,170,484.3,446.1,4866,left
55,2,binary,2,1,fixationCross,7028400.0,7029783.0,1383.0,52,R,7027885,7028087,204,775.3,506.0,4995,NA
55,2,binary,2,1,trial,7028400.0,7029783.0,1383.0,52,R,7028115,7028507,394,919.7,534.8,5139,NA
55,2,binary,2,1,trial,7028400.0,7029783.0,1383.0,52,R,7028687,7028951,266,1359.0,561.7,5005,right
55,2,binary,2,1,trial,7028400.0,7029783.0,1383.0,52,R,7028969,7029037,70,1413.6,554.9,4738,right
55,2,binary,2,1,trial,7028400.0,7029783.0,1383.0,52,R,7029105,7029333,230,489.7,659.7,4425,left
55,2,binary,2,1,trial,7028400.0,7029783.0,1383.0,52,R,7029349,7029689,342,509.4,699.9,4095,left
55,2,binary,2,1,postResponse,7028400.0,7029783.0,1383.0,52,R,7029737,7030117,382,392.3,983.1,4187,NA
55,2,binary,3,1,fixationCross,7030683.0,7033367.0,2684.0,53,R,7030191,7030223,34,397.1,981.7,4439,NA
55,2,binary,3,1,fixationCross,7030683.0,7033367.0,2684.0,53,R,7030287,7030587,302,888.6,607.1,4648,NA
55,2,binary,3,1,trial,7030683.0,7033367.0,2684.0,53,R,7030611,7030881,272,956.4,551.8,4946,NA
55,2,binary,3,1,trial,7030683.0,7033367.0,2684.0,53,R,7030923,7031077,156,610.2,572.9,5076,left
55,2,binary,3,1,trial,7030683.0,7033367.0,2684.0,53,R,7031103,7031249,148,516.5,495.5,4807,left
55,2,binary,3,1,trial,7030683.0,7033367.0,2684.0,53,R,7031283,7031431,150,342.7,373.8,4402,left
55,2,binary,3,1,trial,7030683.0,7033367.0,2684.0,53,R,7031441,7031603,164,319.5,370.8,4157,left
55,2,binary,3,1,trial,7030683.0,7033367.0,2684.0,53,R,7031633,7032157,526,533.7,543.3,4103,left
55,2,binary,3,1,trial,7030683.0,7033367.0,2684.0,53,R,7032177,7032381,206,607.6,595.8,4275,left
55,2,binary,3,1,trial,7030683.0,7033367.0,2684.0,53,R,7032447,7032687,242,1388.2,526.8,4211,right
55,2,binary,3,1,trial,7030683.0,7033367.0,2684.0,53,R,7032707,7033293,588,1452.6,566.3,4358,right
55,2,binary,3,1,postResponse,7030683.0,7033367.0,2684.0,53,R,7033357,7033699,344,686.3,533.0,4534,left
55,2,binary,4,2,fixationCross,7034550.0,7036033.0,1483.0,54,R,7033773,7034215,444,687.0,548.2,4549,left
55,2,binary,4,2,trial,7034550.0,7036033.0,1483.0,54,R,7034253,7034789,538,954.7,540.9,4768,NA
55,2,binary,4,2,trial,7034550.0,7036033.0,1483.0,54,R,7034839,7035159,322,537.5,620.5,4631,left
55,2,binary,4,2,trial,7034550.0,7036033.0,1483.0,54,R,7035173,7035515,344,474.4,642.9,4218,left
55,2,binary,4,2,trial,7034550.0,7036033.0,1483.0,54,R,7035587,7036017,432,1441.6,557.7,4062,right
55,2,binary,4,2,trial,7034550.0,7036033.0,1483.0,54,R,7036029,7036343,316,1411.1,580.3,4215,right
55,2,binary,5,1,fixationCross,7037200.0,7038617.0,1417.0,55,R,7036467,7036877,412,1319.6,543.7,4749,right
55,2,binary,5,1,trial,7037200.0,7038617.0,1417.0,55,R,7036921,7037413,494,981.1,542.4,5153,NA
55,2,binary,5,1,trial,7037200.0,7038617.0,1417.0,55,R,7037457,7037653,198,1365.2,562.4,4964,right
55,2,binary,5,1,trial,7037200.0,7038617.0,1417.0,55,R,7037675,7037879,206,1462.9,562.4,4798,right
55,2,binary,5,1,trial,7037200.0,7038617.0,1417.0,55,R,7037901,7038091,192,1377.7,562.8,4842,right
55,2,binary,5,1,trial,7037200.0,7038617.0,1417.0,55,R,7038155,7038469,316,568.6,590.3,5024,left
55,2,binary,5,1,postResponse,7037200.0,7038617.0,1417.0,55,R,7038487,7038947,462,544.3,561.4,4683,left
55,2,binary,6,1,fixationCross,7041099.0,7042083.0,984.0,56,R,7039047,7039273,228,542.9,571.1,4525,left
55,2,binary,6,1,fixationCross,7041099.0,7042083.0,984.0,56,R,7039305,7040771,1468,781.4,571.7,5030,NA
55,2,binary,6,1,trial,7041099.0,7042083.0,984.0,56,R,7040797,7041345,550,953.0,555.1,5132,NA
55,2,binary,6,1,trial,7041099.0,7042083.0,984.0,56,R,7041389,7041743,356,620.3,604.6,4933,left
55,2,binary,6,1,trial,7041099.0,7042083.0,984.0,56,R,7041765,7042009,246,547.5,543.3,4459,left
55,2,binary,6,1,postResponse,7041099.0,7042083.0,984.0,56,R,7042075,7042417,344,1325.2,531.3,4370,right
55,2,binary,7,2,fixationCross,7043183.0,7044234.0,1051.0,57,R,7042491,7042543,54,1319.2,532.2,4554,right
55,2,binary,7,2,fixationCross,7043183.0,7044234.0,1051.0,57,R,7042555,7042879,326,1308.7,546.9,4808,right
55,2,binary,7,2,trial,7043183.0,7044234.0,1051.0,57,R,7042921,7043367,448,983.3,513.6,5246,NA
55,2,binary,7,2,trial,7043183.0,7044234.0,1051.0,57,R,7043419,7043815,398,566.7,607.5,5094,left
55,2,binary,7,2,trial,7043183.0,7044234.0,1051.0,57,R,7043881,7044177,298,1374.0,553.1,4590,right
55,2,binary,7,2,postResponse,7043183.0,7044234.0,1051.0,57,R,7044201,7044565,366,1491.7,602.8,4629,right
55,2,binary,8,1,fixationCross,7045133.0,7045983.0,850.0,58,R,7044665,7044775,112,1483.8,612.5,4716,right
55,2,binary,8,1,fixationCross,7045133.0,7045983.0,850.0,58,R,7044837,7045125,290,877.9,560.3,5030,NA
55,2,binary,8,1,trial,7045133.0,7045983.0,850.0,58,R,7045149,7045331,184,961.7,559.9,5111,NA
55,2,binary,8,1,trial,7045133.0,7045983.0,850.0,58,R,7045373,7045623,252,676.7,603.5,5036,left
55,2,binary,8,1,trial,7045133.0,7045983.0,850.0,58,R,7045645,7045949,306,556.8,587.0,4671,left
55,2,binary,8,1,postResponse,7045133.0,7045983.0,850.0,58,R,7046009,7046317,310,1311.0,562.7,4436,right
55,2,binary,9,1,fixationCross,7046949.0,7047784.0,835.0,59,R,7046391,7046633,244,1302.6,566.9,4762,right
55,2,binary,9,1,fixationCross,7046949.0,7047784.0,835.0,59,R,7046681,7046855,176,999.5,553.7,5165,NA
55,2,binary,9,1,trial,7046949.0,7047784.0,835.0,59,R,7046867,7047117,252,966.2,544.7,5298,NA
55,2,binary,9,1,trial,7046949.0,7047784.0,835.0,59,R,7047163,7047339,178,625.2,570.0,5187,left
55,2,binary,9,1,trial,7046949.0,7047784.0,835.0,59,R,7047361,7047647,288,547.4,564.9,4439,left
55,2,binary,9,1,postResponse,7046949.0,7047784.0,835.0,59,R,7047717,7048117,402,1430.4,567.0,4025,right
55,2,binary,10,1,fixationCross,7048917.0,7050383.0,1466.0,60,R,7048191,7048391,202,1417.1,575.7,4412,right
55,2,binary,10,1,fixationCross,7048917.0,7050383.0,1466.0,60,R,7048437,7048621,186,1088.1,546.0,4801,NA
55,2,binary,10,1,trial,7048917.0,7050383.0,1466.0,60,R,7048645,7049133,490,985.4,551.8,4942,NA
55,2,binary,10,1,trial,7048917.0,7050383.0,1466.0,60,R,7049177,7049441,266,1369.6,531.1,4815,right
55,2,binary,10,1,trial,7048917.0,7050383.0,1466.0,60,R,7049461,7049633,174,1451.4,478.4,4522,right
55,2,binary,10,1,trial,7048917.0,7050383.0,1466.0,60,R,7049701,7049823,124,638.6,558.8,4562,left
55,2,binary,10,1,trial,7048917.0,7050383.0,1466.0,60,R,7049833,7050157,326,638.5,508.3,4620,left
55,2,binary,10,1,trial,7048917.0,7050383.0,1466.0,60,R,7050177,7050291,116,670.0,439.1,4633,left
55,2,binary,10,1,trial,7048917.0,7050383.0,1466.0,60,R,7050373,7050419,48,1018.9,476.6,4524,NA
55,2,binary,10,1,trial,7048917.0,7050383.0,1466.0,60,R,7050427,7050523,98,1017.5,474.1,4461,NA
55,2,binary,10,1,trial,7048917.0,7050383.0,1466.0,60,R,7050535,7050615,82,1015.9,469.6,4407,NA
55,2,binary,11,2,fixationCross,7053767.0,7054800.0,1033.0,61,R,7050817,7051009,194,1137.4,446.7,4696,NA
55,2,binary,11,2,fixationCross,7053767.0,7054800.0,1033.0,61,R,7051027,7051067,42,1143.2,348.2,4881,NA
55,2,binary,11,2,fixationCross,7053767.0,7054800.0,1033.0,61,R,7051301,7051429,130,971.2,360.8,5113,NA
55,2,binary,11,2,fixationCross,7053767.0,7054800.0,1033.0,61,R,7051439,7051589,152,970.6,311.7,5135,NA
55,2,binary,11,2,fixationCross,7053767.0,7054800.0,1033.0,61,R,7051601,7051655,56,971.5,320.6,5195,NA
55,2,binary,11,2,fixationCross,7053767.0,7054800.0,1033.0,61,R,7051667,7051789,124,972.0,322.9,5210,NA
55,2,binary,11,2,fixationCross,7053767.0,7054800.0,1033.0,61,R,7051797,7052649,854,968.9,384.8,5111,NA
55,2,binary,11,2,fixationCross,7053767.0,7054800.0,1033.0,61,R,7052661,7052809,150,955.6,420.6,5107,NA
55,2,binary,11,2,trial,7053767.0,7054800.0,1033.0,61,R,7052827,7053989,1164,970.6,444.4,5050,NA
55,2,binary,11,2,trial,7053767.0,7054800.0,1033.0,61,R,7054039,7054115,78,1332.0,606.9,4917,right
55,2,binary,11,2,trial,7053767.0,7054800.0,1033.0,61,R,7054127,7054349,224,1343.0,593.9,4512,right
55,2,binary,11,2,trial,7053767.0,7054800.0,1033.0,61,R,7054369,7054657,290,1425.2,581.2,4112,right
55,2,binary,11,2,postResponse,7053767.0,7054800.0,1033.0,61,R,7054719,7055135,418,1432.6,562.2,3952,right
55,2,binary,12,1,fixationCross,7061367.0,7062867.0,1500.0,62,R,7055209,7055911,704,1418.2,598.6,4652,right
55,2,binary,12,1,fixationCross,7061367.0,7062867.0,1500.0,62,R,7055921,7061049,5130,1402.9,666.5,5539,right
55,2,binary,12,1,trial,7061367.0,7062867.0,1500.0,62,R,7061097,7061727,632,1001.3,580.6,5771,NA
55,2,binary,12,1,trial,7061367.0,7062867.0,1500.0,62,R,7061769,7062267,500,693.9,614.5,4858,left
55,2,binary,12,1,trial,7061367.0,7062867.0,1500.0,62,R,7062305,7062571,268,403.6,525.5,4221,left
55,2,binary,12,1,postResponse,7061367.0,7062867.0,1500.0,62,R,7062643,7063197,556,1313.9,598.6,4294,right
55,2,binary,13,2,fixationCross,7065550.0,7066534.0,984.0,63,R,7063271,7065197,1928,1299.0,636.8,5426,right
55,2,binary,13,2,trial,7065550.0,7066534.0,984.0,63,R,7065239,7066019,782,970.1,592.4,5506,NA
55,2,binary,13,2,postResponse,7065550.0,7066534.0,984.0,63,R,7066065,7066867,804,1374.3,578.6,4659,right
55,2,binary,14,2,fixationCross,7071867.0,7076300.0,4433.0,64,R,7066941,7071527,4588,1374.5,623.8,5604,right
55,2,binary,14,2,trial,7071867.0,7076300.0,4433.0,64,R,7071571,7072411,842,1041.5,574.1,5597,NA
55,2,binary,14,2,trial,7071867.0,7076300.0,4433.0,64,R,7072467,7074403,1938,538.8,650.1,4509,left
55,2,binary,14,2,trial,7071867.0,7076300.0,4433.0,64,R,7074431,7075009,580,675.0,501.1,4525,left
55,2,binary,14,2,postResponse,7071867.0,7076300.0,4433.0,64,R,7075075,7076635,1562,1403.6,583.4,4616,right
55,2,binary,15,2,fixationCross,7078400.0,7079317.0,917.0,65,R,7076709,7078083,1376,1389.9,603.9,5262,right
55,2,binary,15,2,trial,7078400.0,7079317.0,917.0,65,R,7078125,7078669,546,1005.5,582.7,5295,NA
55,2,binary,15,2,trial,7078400.0,7079317.0,917.0,65,R,7078711,7078939,230,1327.2,584.1,4826,right
55,2,binary,15,2,trial,7078400.0,7079317.0,917.0,65,R,7078963,7079177,216,1456.5,572.9,4512,right
55,2,binary,15,2,postResponse,7078400.0,7079317.0,917.0,65,R,7079241,7079651,412,670.9,568.8,4414,left
55,2,binary,16,1,fixationCross,7080534.0,7081433.0,899.0,66,R,7079725,7080215,492,671.5,580.8,4719,left
55,2,binary,16,1,fixationCross,7080534.0,7081433.0,899.0,66,R,7080255,7080533,280,986.9,568.9,4909,NA
55,2,binary,16,1,trial,7080534.0,7081433.0,899.0,66,R,7080545,7080739,196,975.6,580.3,5054,NA
55,2,binary,16,1,trial,7080534.0,7081433.0,899.0,66,R,7080781,7080931,152,1368.3,568.4,5095,right
55,2,binary,16,1,trial,7080534.0,7081433.0,899.0,66,R,7080951,7081051,102,1419.8,568.0,4915,right
55,2,binary,16,1,postResponse,7080534.0,7081433.0,899.0,66,R,7081117,7081767,652,570.2,589.4,4622,left
55,2,binary,17,1,fixationCross,7082451.0,7083350.0,899.0,67,R,7081843,7082129,288,1255.9,546.3,4530,right
55,2,binary,17,1,trial,7082451.0,7083350.0,899.0,67,R,7082165,7082625,462,963.9,578.1,5037,NA
55,2,binary,17,1,trial,7082451.0,7083350.0,899.0,67,R,7082669,7082971,304,1335.2,586.5,5000,right
55,2,binary,17,1,trial,7082451.0,7083350.0,899.0,67,R,7083039,7083299,262,495.4,536.1,4555,left
55,2,binary,17,1,postResponse,7082451.0,7083350.0,899.0,67,R,7083323,7083685,364,453.0,458.4,4369,left
55,2,binary,18,2,fixationCross,7084250.0,7085400.0,1150.0,68,R,7083787,7083853,68,460.8,472.6,4337,left
55,2,binary,18,2,fixationCross,7084250.0,7085400.0,1150.0,68,R,7083913,7084129,218,1021.7,538.8,4543,NA
55,2,binary,18,2,trial,7084250.0,7085400.0,1150.0,68,R,7084145,7084301,158,977.6,559.5,4809,NA
55,2,binary,18,2,trial,7084250.0,7085400.0,1150.0,68,R,7084311,7084451,142,970.3,572.3,5008,NA
55,2,binary,18,2,trial,7084250.0,7085400.0,1150.0,68,R,7084493,7084749,258,1328.5,543.4,4906,right
55,2,binary,18,2,trial,7084250.0,7085400.0,1150.0,68,R,7084765,7085103,340,1373.0,497.1,4407,right
55,2,binary,18,2,trial,7084250.0,7085400.0,1150.0,68,R,7085165,7085635,472,602.3,543.9,4512,left
55,2,binary,18,2,postResponse,7084250.0,7085400.0,1150.0,68,R,7085675,7085735,62,206.7,317.1,4431,NA
55,2,binary,19,2,fixationCross,7086384.0,7087501.0,1117.0,69,R,7085809,7085987,180,199.1,309.8,4500,NA
55,2,binary,19,2,fixationCross,7086384.0,7087501.0,1117.0,69,R,7086059,7086191,134,1036.5,474.0,4577,NA
55,2,binary,19,2,trial,7086384.0,7087501.0,1117.0,69,R,7086217,7086397,182,956.7,542.6,4667,NA
55,2,binary,19,2,trial,7086384.0,7087501.0,1117.0,69,R,7086417,7086573,158,963.2,561.3,4864,NA
55,2,binary,19,2,trial,7086384.0,7087501.0,1117.0,69,R,7086617,7086831,216,1394.0,570.5,5006,right
55,2,binary,19,2,trial,7086384.0,7087501.0,1117.0,69,R,7086841,7087357,518,1421.0,554.7,4647,right
55,2,binary,19,2,postResponse,7086384.0,7087501.0,1117.0,69,R,7087423,7087835,414,613.0,529.3,4747,left
55,2,binary,20,2,fixationCross,7088650.0,7091034.0,2384.0,70,R,7087909,7088327,420,625.0,537.1,5013,left
55,2,binary,20,2,trial,7088650.0,7091034.0,2384.0,70,R,7088381,7088859,480,948.8,549.6,5205,NA
55,2,binary,20,2,trial,7088650.0,7091034.0,2384.0,70,R,7088903,7089189,288,1347.3,542.8,5095,right
55,2,binary,20,2,trial,7088650.0,7091034.0,2384.0,70,R,7089253,7089627,376,614.8,574.1,4539,left
55,2,binary,20,2,trial,7088650.0,7091034.0,2384.0,70,R,7089641,7090069,430,641.7,557.0,4512,left
55,2,binary,20,2,trial,7088650.0,7091034.0,2384.0,70,R,7090125,7090307,184,963.1,765.0,4772,likertHorizontal
55,2,binary,20,2,trial,7088650.0,7091034.0,2384.0,70,R,7090353,7090967,616,1367.5,607.7,4815,right
55,2,binary,20,2,postResponse,7088650.0,7091034.0,2384.0,70,R,7091025,7091367,344,683.1,573.2,4649,left
55,2,binary,21,1,fixationCross,7092200.0,7093368.0,1168.0,71,R,7091441,7091885,446,685.8,580.7,5114,left
55,2,binary,21,1,trial,7092200.0,7093368.0,1168.0,71,R,7091925,7092427,504,969.6,550.3,5452,NA
55,2,binary,21,1,trial,7092200.0,7093368.0,1168.0,71,R,7092471,7092741,272,1411.7,550.7,5250,right
55,2,binary,21,1,trial,7092200.0,7093368.0,1168.0,71,R,7092765,7092935,172,1486.7,628.7,5034,right
55,2,binary,21,1,trial,7092200.0,7093368.0,1168.0,71,R,7093003,7093155,154,650.3,584.5,5195,left
55,2,binary,21,1,trial,7092200.0,7093368.0,1168.0,71,R,7093179,7093301,124,562.5,605.3,5207,left
55,2,binary,21,1,postResponse,7092200.0,7093368.0,1168.0,71,R,7093353,7093699,348,483.6,899.5,5070,NA
55,2,binary,22,2,fixationCross,7094284.0,7095117.0,833.0,72,R,7093799,7093903,106,492.6,898.6,5294,NA
55,2,binary,22,2,trial,7094284.0,7095117.0,833.0,72,R,7093969,7094485,518,989.6,543.2,5412,NA
55,2,binary,22,2,trial,7094284.0,7095117.0,833.0,72,R,7094529,7095123,596,1385.2,515.9,5134,right
55,2,binary,22,2,postResponse,7094284.0,7095117.0,833.0,72,R,7095187,7095451,266,650.0,585.6,4960,left
55,2,binary,23,1,fixationCross,7096251.0,7097384.0,1133.0,73,R,7095525,7095607,84,644.8,588.8,4975,left
55,2,binary,23,1,fixationCross,7096251.0,7097384.0,1133.0,73,R,7095629,7095931,304,772.5,569.1,5125,NA
55,2,binary,23,1,trial,7096251.0,7097384.0,1133.0,73,R,7095959,7096565,608,949.2,557.6,5505,NA
55,2,binary,23,1,trial,7096251.0,7097384.0,1133.0,73,R,7096615,7096881,268,1344.2,598.0,5097,right
55,2,binary,23,1,trial,7096251.0,7097384.0,1133.0,73,R,7096947,7097461,516,529.3,577.3,4750,left
55,2,binary,23,1,postResponse,7096251.0,7097384.0,1133.0,73,R,7097513,7097717,206,1130.0,523.7,4461,NA
55,2,binary,24,2,fixationCross,7098468.0,7100234.0,1766.0,74,R,7097791,7098149,360,1124.7,530.3,4742,NA
55,2,binary,24,2,trial,7098468.0,7100234.0,1766.0,74,R,7098173,7098721,550,978.5,557.4,5341,NA
55,2,binary,24,2,trial,7098468.0,7100234.0,1766.0,74,R,7098769,7099259,492,1424.2,560.7,5050,right
55,2,binary,24,2,trial,7098468.0,7100234.0,1766.0,74,R,7099321,7099525,206,704.3,585.2,4753,left
55,2,binary,24,2,trial,7098468.0,7100234.0,1766.0,74,R,7099545,7099715,172,606.1,586.1,4619,left
55,2,binary,24,2,trial,7098468.0,7100234.0,1766.0,74,R,7099781,7100255,476,1446.8,539.9,4356,right
55,2,binary,24,2,postResponse,7098468.0,7100234.0,1766.0,74,R,7100279,7100567,290,1589.1,553.4,4378,right
55,2,binary,25,1,fixationCross,7101133.0,7102334.0,1201.0,75,R,7100667,7100801,136,1577.9,564.7,4554,right
55,2,binary,25,1,fixationCross,7101133.0,7102334.0,1201.0,75,R,7100863,7101029,168,1023.7,554.5,4947,NA
55,2,binary,25,1,trial,7101133.0,7102334.0,1201.0,75,R,7101045,7101305,262,983.2,564.7,5142,NA
55,2,binary,25,1,trial,7101133.0,7102334.0,1201.0,75,R,7101349,7101603,256,624.1,604.1,5023,left
55,2,binary,25,1,trial,7101133.0,7102334.0,1201.0,75,R,7101625,7101859,236,525.4,600.9,4403,left
55,2,binary,25,1,trial,7101133.0,7102334.0,1201.0,75,R,7101877,7102151,276,463.0,554.2,4138,left
55,2,binary,25,1,postResponse,7101133.0,7102334.0,1201.0,75,R,7102227,7102667,442,1429.7,561.5,4127,right
55,2,binary,26,2,fixationCross,7126734.0,7128650.0,1916.0,76,R,7126055,7126299,246,269.3,144.8,4837,NA
55,2,binary,26,2,fixationCross,7126734.0,7128650.0,1916.0,76,R,7126387,7126495,110,1097.6,492.0,4366,NA
55,2,binary,26,2,trial,7126734.0,7128650.0,1916.0,76,R,7126519,7126977,460,970.2,532.7,4608,NA
55,2,binary,26,2,trial,7126734.0,7128650.0,1916.0,76,R,7127027,7127253,228,545.6,565.1,4977,left
55,2,binary,26,2,trial,7126734.0,7128650.0,1916.0,76,R,7127275,7127451,178,444.6,507.6,4557,left
55,2,binary,26,2,trial,7126734.0,7128650.0,1916.0,76,R,7127507,7127637,132,410.6,939.6,4336,NA
55,2,binary,26,2,trial,7126734.0,7128650.0,1916.0,76,R,7127647,7127775,130,411.4,964.7,4308,NA
55,2,binary,26,2,trial,7126734.0,7128650.0,1916.0,76,R,7127843,7128121,280,1427.1,989.4,4596,NA
55,2,binary,26,2,trial,7126734.0,7128650.0,1916.0,76,R,7128169,7128485,318,1402.9,678.3,5034,right
55,2,binary,26,2,postResponse,7126734.0,7128650.0,1916.0,76,R,7128553,7128983,432,629.8,536.1,4930,left
55,2,binary,27,2,fixationCross,7129568.0,7131885.0,2317.0,77,R,7129085,7129159,76,636.6,546.8,4619,left
55,2,binary,27,2,fixationCross,7129568.0,7131885.0,2317.0,77,R,7129201,7129531,332,884.7,535.1,4877,NA
55,2,binary,27,2,trial,7129568.0,7131885.0,2317.0,77,R,7129551,7129759,210,959.5,528.9,5123,NA
55,2,binary,27,2,trial,7129568.0,7131885.0,2317.0,77,R,7129801,7130135,336,615.6,554.9,4985,left
55,2,binary,27,2,trial,7129568.0,7131885.0,2317.0,77,R,7130157,7130355,200,515.4,531.4,4532,left
55,2,binary,27,2,trial,7129568.0,7131885.0,2317.0,77,R,7130365,7130661,298,485.9,532.2,4354,left
55,2,binary,27,2,trial,7129568.0,7131885.0,2317.0,77,R,7130729,7131091,364,1342.0,606.3,4430,right
55,2,binary,27,2,trial,7129568.0,7131885.0,2317.0,77,R,7131141,7131557,418,1444.5,981.5,4614,NA
55,2,binary,27,2,trial,7129568.0,7131885.0,2317.0,77,R,7131609,7131829,222,1420.4,651.1,4867,right
55,2,binary,27,2,postResponse,7129568.0,7131885.0,2317.0,77,R,7131897,7132217,322,568.7,543.3,4686,left
55,2,binary,28,2,fixationCross,7133118.0,7137201.0,4083.0,78,R,7132317,7132605,290,578.0,557.5,4576,left
55,2,binary,28,2,fixationCross,7133118.0,7137201.0,4083.0,78,R,7132631,7132815,186,770.3,540.1,4829,NA
55,2,binary,28,2,trial,7133118.0,7137201.0,4083.0,78,R,7132841,7133329,490,937.3,550.0,5064,NA
55,2,binary,28,2,trial,7133118.0,7137201.0,4083.0,78,R,7133377,7133497,122,566.8,568.1,5142,left
55,2,binary,28,2,trial,7133118.0,7137201.0,4083.0,78,R,7133521,7133681,162,466.2,531.2,4781,left
55,2,binary,28,2,trial,7133118.0,7137201.0,4083.0,78,R,7133693,7133941,250,437.0,509.0,4414,left
55,2,binary,28,2,trial,7133118.0,7137201.0,4083.0,78,R,7133979,7134117,140,715.4,557.6,4310,left
55,2,binary,28,2,trial,7133118.0,7137201.0,4083.0,78,R,7134177,7134489,314,1422.0,563.6,4452,right
55,2,binary,28,2,trial,7133118.0,7137201.0,4083.0,78,R,7134519,7135027,510,1509.2,723.5,4623,right
55,2,binary,28,2,trial,7133118.0,7137201.0,4083.0,78,R,7135059,7135225,168,1343.0,522.4,4659,right
55,2,binary,28,2,trial,7133118.0,7137201.0,4083.0,78,R,7135235,7135407,174,1325.5,508.3,4673,right
55,2,binary,28,2,trial,7133118.0,7137201.0,4083.0,78,R,7135469,7135671,204,636.2,565.6,4661,left
55,2,binary,28,2,trial,7133118.0,7137201.0,4083.0,78,R,7135705,7136073,370,457.3,523.6,4689,left
55,2,binary,28,2,trial,7133118.0,7137201.0,4083.0,78,R,7136101,7136439,340,642.9,605.7,4688,left
55,2,binary,28,2,trial,7133118.0,7137201.0,4083.0,78,R,7136599,7136755,158,1411.7,491.0,4605,right
55,2,binary,28,2,postResponse,7133118.0,7137201.0,4083.0,78,R,7136777,7137535,760,1335.2,506.7,4635,right
55,2,binary,29,1,fixationCross,7138085.0,7139668.0,1583.0,79,R,7137609,7137681,74,1329.8,518.6,4701,right
55,2,binary,29,1,trial,7138085.0,7139668.0,1583.0,79,R,7137733,7138255,524,939.3,532.7,5095,NA
55,2,binary,29,1,trial,7138085.0,7139668.0,1583.0,79,R,7138303,7138485,184,524.6,562.0,5208,left
55,2,binary,29,1,trial,7138085.0,7139668.0,1583.0,79,R,7138505,7138933,430,557.2,570.9,4512,left
55,2,binary,29,1,trial,7138085.0,7139668.0,1583.0,79,R,7138957,7139105,150,515.1,492.9,4281,left
55,2,binary,29,1,trial,7138085.0,7139668.0,1583.0,79,R,7139117,7139507,392,534.8,472.7,4315,left
55,2,binary,29,1,postResponse,7138085.0,7139668.0,1583.0,79,R,7139579,7140001,424,1418.3,577.1,4439,right
55,2,binary,30,1,fixationCross,7140734.0,7143167.0,2433.0,80,R,7140075,7140419,346,1408.4,586.0,4686,right
55,2,binary,30,1,trial,7140734.0,7143167.0,2433.0,80,R,7140465,7140923,460,990.8,564.8,5166,NA
55,2,binary,30,1,trial,7140734.0,7143167.0,2433.0,80,R,7140971,7141149,180,608.6,601.7,5217,left
55,2,binary,30,1,trial,7140734.0,7143167.0,2433.0,80,R,7141165,7141653,490,565.6,576.7,4659,left
55,2,binary,30,1,trial,7140734.0,7143167.0,2433.0,80,R,7141719,7142115,398,1368.7,594.5,4492,right
55,2,binary,30,1,trial,7140734.0,7143167.0,2433.0,80,R,7142149,7142405,258,1528.8,502.8,4666,right
55,2,binary,30,1,trial,7140734.0,7143167.0,2433.0,80,R,7142419,7142571,154,1493.2,488.7,4689,right
55,2,binary,30,1,trial,7140734.0,7143167.0,2433.0,80,R,7142641,7142855,216,622.1,583.3,4892,left
55,2,binary,30,1,postResponse,7140734.0,7143167.0,2433.0,80,R,7142875,7143501,628,563.6,581.2,4796,left
55,2,binary,31,1,fixationCross,7144318.0,7146435.0,2117.0,81,R,7143575,7143997,424,566.9,586.5,4942,left
55,2,binary,31,1,trial,7144318.0,7146435.0,2117.0,81,R,7144053,7144525,474,961.1,560.3,5315,NA
55,2,binary,31,1,trial,7144318.0,7146435.0,2117.0,81,R,7144567,7144707,142,670.8,584.9,5420,left
55,2,binary,31,1,trial,7144318.0,7146435.0,2117.0,81,R,7144729,7145161,434,563.6,590.0,5041,left
55,2,binary,31,1,trial,7144318.0,7146435.0,2117.0,81,R,7145225,7145541,318,1369.0,552.3,4819,right
55,2,binary,31,1,trial,7144318.0,7146435.0,2117.0,81,R,7145601,7145845,246,1447.2,1002.6,5006,NA
55,2,binary,31,1,trial,7144318.0,7146435.0,2117.0,81,R,7145921,7146257,338,509.2,845.0,5302,NA
55,2,binary,31,1,postResponse,7144318.0,7146435.0,2117.0,81,R,7146313,7146767,456,614.5,571.4,5312,left
55,2,binary,32,1,fixationCross,7147618.0,7150651.0,3033.0,82,R,7146867,7147287,422,615.5,570.6,5213,left
55,2,binary,32,1,trial,7147618.0,7150651.0,3033.0,82,R,7147339,7147819,482,929.2,542.0,5400,NA
55,2,binary,32,1,trial,7147618.0,7150651.0,3033.0,82,R,7147863,7148107,246,1343.8,579.3,5203,right
55,2,binary,32,1,trial,7147618.0,7150651.0,3033.0,82,R,7148121,7148387,268,1394.1,570.7,4575,right
55,2,binary,32,1,trial,7147618.0,7150651.0,3033.0,82,R,7148451,7148643,194,575.5,550.5,4481,left
55,2,binary,32,1,trial,7147618.0,7150651.0,3033.0,82,R,7148665,7149015,352,473.7,530.2,4494,left
55,2,binary,32,1,trial,7147618.0,7150651.0,3033.0,82,R,7149031,7149619,590,428.2,500.5,4272,left
55,2,binary,32,1,trial,7147618.0,7150651.0,3033.0,82,R,7149689,7149821,134,1274.9,563.0,4222,right
55,2,binary,32,1,postResponse,7147618.0,7150651.0,3033.0,82,R,7149845,7150985,1142,1397.7,585.2,4457,right
55,2,binary,33,1,fixationCross,7151834.0,7152951.0,1117.0,83,R,7151085,7151491,408,1379.3,596.0,4969,right
55,2,binary,33,1,trial,7151834.0,7152951.0,1117.0,83,R,7151537,7152035,500,979.6,549.1,5437,NA
55,2,binary,33,1,trial,7151834.0,7152951.0,1117.0,83,R,7152089,7152415,328,581.8,594.1,5101,left
55,2,binary,33,1,trial,7151834.0,7152951.0,1117.0,83,R,7152437,7152707,272,527.1,521.3,4341,left
55,2,binary,33,1,postResponse,7151834.0,7152951.0,1117.0,83,R,7152779,7153285,508,1479.5,538.1,4273,right
55,2,binary,34,2,fixationCross,7154001.0,7155284.0,1283.0,84,R,7153385,7153687,304,1460.7,559.3,4861,right
55,2,binary,34,2,trial,7154001.0,7155284.0,1283.0,84,R,7153737,7154235,500,976.8,552.6,5347,NA
55,2,binary,34,2,trial,7154001.0,7155284.0,1283.0,84,R,7154275,7154549,276,729.5,598.5,5276,left
55,2,binary,34,2,trial,7154001.0,7155284.0,1283.0,84,R,7154603,7154935,334,1305.1,549.6,4892,right
55,2,binary,34,2,postResponse,7154001.0,7155284.0,1283.0,84,R,7154959,7155617,660,1387.1,534.1,4744,right
55,2,binary,35,1,fixationCross,7156451.0,7157684.0,1233.0,85,R,7155717,7156133,418,1282.3,541.2,5078,right
55,2,binary,35,1,trial,7156451.0,7157684.0,1233.0,85,R,7156173,7156647,476,987.7,545.3,5284,NA
55,2,binary,35,1,trial,7156451.0,7157684.0,1233.0,85,R,7156693,7157057,366,1401.1,555.3,4768,right
55,2,binary,35,1,trial,7156451.0,7157684.0,1233.0,85,R,7157081,7157235,156,1414.2,604.4,4460,right
55,2,binary,35,1,trial,7156451.0,7157684.0,1233.0,85,R,7157299,7157591,294,646.5,623.5,4568,left
55,2,binary,35,1,postResponse,7156451.0,7157684.0,1233.0,85,R,7157613,7158017,406,576.0,576.2,4244,left
55,2,binary,36,1,fixationCross,7158801.0,7160535.0,1734.0,86,R,7158093,7158497,406,575.2,592.6,4249,left
55,2,binary,36,1,trial,7158801.0,7160535.0,1734.0,86,R,7158543,7159037,496,964.1,553.5,4866,NA
55,2,binary,36,1,trial,7158801.0,7160535.0,1734.0,86,R,7159081,7159239,160,647.1,635.2,5147,left
55,2,binary,36,1,trial,7158801.0,7160535.0,1734.0,86,R,7159255,7159561,308,623.8,666.4,5017,left
55,2,binary,36,1,trial,7158801.0,7160535.0,1734.0,86,R,7159621,7159811,192,1375.6,531.9,4694,right
55,2,binary,36,1,trial,7158801.0,7160535.0,1734.0,86,R,7159831,7160321,492,1419.5,500.2,4709,right
55,2,binary,36,1,postResponse,7158801.0,7160535.0,1734.0,86,R,7160395,7160869,476,623.2,662.3,4954,left
55,2,binary,37,2,fixationCross,7161568.0,7163535.0,1967.0,87,R,7160971,7161247,278,629.6,663.9,4944,left
55,2,binary,37,2,fixationCross,7161568.0,7163535.0,1967.0,87,R,7161293,7161439,148,878.7,559.5,5106,NA
55,2,binary,37,2,trial,7161568.0,7163535.0,1967.0,87,R,7161461,7161803,344,973.2,555.0,5212,NA
55,2,binary,37,2,trial,7161568.0,7163535.0,1967.0,87,R,7161849,7162355,508,1393.5,584.0,4980,right
55,2,binary,37,2,trial,7161568.0,7163535.0,1967.0,87,R,7162423,7162665,244,572.1,699.3,4792,left
55,2,binary,37,2,trial,7161568.0,7163535.0,1967.0,87,R,7162689,7163111,424,455.1,675.2,4665,left
55,2,binary,37,2,trial,7161568.0,7163535.0,1967.0,87,R,7163181,7163513,334,1355.7,565.3,4527,right
55,2,binary,37,2,postResponse,7161568.0,7163535.0,1967.0,87,R,7163527,7163867,342,1389.7,556.6,4649,right
55,2,binary,38,1,fixationCross,7164418.0,7165251.0,833.0,88,R,7163941,7164041,102,1387.3,559.0,4789,right
55,2,binary,38,1,fixationCross,7164418.0,7165251.0,833.0,88,R,7164097,7164375,280,885.0,575.8,5100,NA
55,2,binary,38,1,trial,7164418.0,7165251.0,833.0,88,R,7164395,7164623,230,948.1,563.2,5251,NA
55,2,binary,38,1,trial,7164418.0,7165251.0,833.0,88,R,7164667,7164881,216,658.4,602.1,5153,left
55,2,binary,38,1,trial,7164418.0,7165251.0,833.0,88,R,7164905,7165177,274,521.7,540.2,4591,left
55,2,binary,38,1,trial,7164418.0,7165251.0,833.0,88,R,7165197,7165217,22,574.7,473.0,4268,left
55,2,binary,38,1,postResponse,7164418.0,7165251.0,833.0,88,R,7165287,7165581,296,1413.0,562.3,4117,right
55,2,binary,39,2,fixationCross,7166352.0,7167518.0,1166.0,89,R,7165657,7166039,384,1392.0,573.7,4660,right
55,2,binary,39,2,fixationCross,7166352.0,7167518.0,1166.0,89,R,7166087,7166245,160,998.1,551.3,5132,NA
55,2,binary,39,2,trial,7166352.0,7167518.0,1166.0,89,R,7166255,7166599,346,971.5,551.5,5240,NA
55,2,binary,39,2,trial,7166352.0,7167518.0,1166.0,89,R,7166649,7166915,268,575.5,633.3,5088,left
55,2,binary,39,2,trial,7166352.0,7167518.0,1166.0,89,R,7166975,7167169,196,1319.2,603.8,4656,right
55,2,binary,39,2,postResponse,7166352.0,7167518.0,1166.0,89,R,7167189,7167851,664,1401.2,616.2,4553,right
55,2,binary,40,2,fixationCross,7168651.0,7170435.0,1784.0,90,R,7167951,7167997,48,1397.7,618.3,4613,right
55,2,binary,40,2,fixationCross,7168651.0,7170435.0,1784.0,90,R,7168039,7168353,316,1068.6,554.9,4959,NA
55,2,binary,40,2,trial,7168651.0,7170435.0,1784.0,90,R,7168371,7168853,484,992.4,553.0,5333,NA
55,2,binary,40,2,trial,7168651.0,7170435.0,1784.0,90,R,7168897,7169057,162,1362.3,548.2,5167,right
55,2,binary,40,2,trial,7168651.0,7170435.0,1784.0,90,R,7169081,7169889,810,1519.3,577.2,4547,right
55,2,binary,40,2,trial,7168651.0,7170435.0,1784.0,90,R,7169967,7170337,372,583.3,648.9,4677,left
55,2,binary,40,2,postResponse,7168651.0,7170435.0,1784.0,90,R,7170353,7170769,418,565.5,609.1,4504,left
55,2,binary,41,1,fixationCross,7171318.0,7172334.0,1016.0,91,R,7170845,7170885,42,567.8,614.9,4543,left
55,2,binary,41,1,fixationCross,7171318.0,7172334.0,1016.0,91,R,7170929,7171263,336,873.8,568.5,4822,NA
55,2,binary,41,1,trial,7171318.0,7172334.0,1016.0,91,R,7171287,7171557,272,966.6,558.8,5204,NA
55,2,binary,41,1,trial,7171318.0,7172334.0,1016.0,91,R,7171605,7171877,274,620.5,636.1,5109,left
55,2,binary,41,1,trial,7171318.0,7172334.0,1016.0,91,R,7171899,7172227,330,595.2,570.9,4569,left
55,2,binary,41,1,postResponse,7171318.0,7172334.0,1016.0,91,R,7172289,7172669,382,1356.3,544.9,4320,right
55,2,binary,42,2,fixationCross,7173268.0,7174602.0,1334.0,92,R,7172769,7172899,132,1342.1,550.5,4638,right
55,2,binary,42,2,fixationCross,7173268.0,7174602.0,1334.0,92,R,7172943,7173141,200,1027.0,558.4,5006,NA
55,2,binary,42,2,trial,7173268.0,7174602.0,1334.0,92,R,7173153,7173483,332,979.0,562.6,5260,NA
55,2,binary,42,2,trial,7173268.0,7174602.0,1334.0,92,R,7173535,7173867,334,577.9,597.2,5101,left
55,2,binary,42,2,trial,7173268.0,7174602.0,1334.0,92,R,7173935,7174319,386,1386.5,566.0,4519,right
55,2,binary,42,2,trial,7173268.0,7174602.0,1334.0,92,R,7174333,7174563,232,1342.5,544.5,4681,right
55,2,binary,42,2,postResponse,7173268.0,7174602.0,1334.0,92,R,7174627,7174935,310,588.0,585.0,5032,left
55,2,binary,43,1,fixationCross,7175634.0,7177185.0,1551.0,93,R,7175037,7175321,286,592.3,591.3,4901,left
55,2,binary,43,1,fixationCross,7175634.0,7177185.0,1551.0,93,R,7175363,7175531,170,941.2,544.7,5006,NA
55,2,binary,43,1,trial,7175634.0,7177185.0,1551.0,93,R,7175539,7175847,310,963.4,543.3,5112,NA
55,2,binary,43,1,trial,7175634.0,7177185.0,1551.0,93,R,7175889,7176143,256,1327.5,572.2,5077,right
55,2,binary,43,1,trial,7175634.0,7177185.0,1551.0,93,R,7176201,7176775,576,681.0,599.8,4759,left
55,2,binary,43,1,trial,7175634.0,7177185.0,1551.0,93,R,7176805,7177071,268,500.3,553.4,4499,left
55,2,binary,43,1,postResponse,7175634.0,7177185.0,1551.0,93,R,7177099,7177519,422,682.1,602.9,4402,left
55,2,binary,44,2,fixationCross,7178368.0,7182884.0,4516.0,94,R,7177619,7178037,420,687.6,616.6,4638,left
55,2,binary,44,2,trial,7178368.0,7182884.0,4516.0,94,R,7178069,7178563,496,931.8,559.7,4752,NA
55,2,binary,44,2,trial,7178368.0,7182884.0,4516.0,94,R,7178609,7178821,214,630.5,581.5,4719,left
55,2,binary,44,2,trial,7178368.0,7182884.0,4516.0,94,R,7178837,7179153,318,580.2,559.4,4197,left
55,2,binary,44,2,trial,7178368.0,7182884.0,4516.0,94,R,7179231,7179441,212,1501.9,546.9,3928,right
55,2,binary,44,2,trial,7178368.0,7182884.0,4516.0,94,R,7179457,7180131,676,1427.7,550.8,3934,right
55,2,binary,44,2,trial,7178368.0,7182884.0,4516.0,94,R,7180145,7180511,368,1473.7,553.6,4009,right
55,2,binary,44,2,trial,7178368.0,7182884.0,4516.0,94,R,7180641,7180953,314,549.1,616.6,4310,left
55,2,binary,44,2,trial,7178368.0,7182884.0,4516.0,94,R,7180967,7181491,526,575.8,584.3,4204,left
55,2,binary,44,2,trial,7178368.0,7182884.0,4516.0,94,R,7181561,7181843,284,1416.4,645.1,4090,right
55,2,binary,44,2,trial,7178368.0,7182884.0,4516.0,94,R,7181909,7182355,448,643.3,619.8,4258,left
55,2,binary,44,2,trial,7178368.0,7182884.0,4516.0,94,R,7182371,7182567,198,610.2,577.0,4331,left
55,2,binary,44,2,postResponse,7178368.0,7182884.0,4516.0,94,R,7182637,7183219,584,1425.9,576.9,4262,right
55,2,binary,45,2,fixationCross,7183968.0,7185452.0,1484.0,95,R,7183295,7183605,312,1420.8,582.5,4283,right
55,2,binary,45,2,trial,7183968.0,7185452.0,1484.0,95,R,7183655,7184215,562,975.2,567.3,4855,NA
55,2,binary,45,2,trial,7183968.0,7185452.0,1484.0,95,R,7184261,7184469,210,692.6,596.1,4705,left
55,2,binary,45,2,trial,7183968.0,7185452.0,1484.0,95,R,7184493,7184819,328,556.4,595.9,4265,left
55,2,binary,45,2,postResponse,7183968.0,7185452.0,1484.0,95,R,7184883,7185787,906,1397.8,540.4,4207,right
55,2,binary,46,1,fixationCross,7186585.0,7188835.0,2250.0,96,R,7185861,7186099,240,1389.2,553.6,4364,right
55,2,binary,46,1,fixationCross,7186585.0,7188835.0,2250.0,96,R,7186131,7186285,156,1158.2,533.9,4729,NA
55,2,binary,46,1,trial,7186585.0,7188835.0,2250.0,96,R,7186311,7186757,448,955.1,557.4,5049,NA
55,2,binary,46,1,trial,7186585.0,7188835.0,2250.0,96,R,7186801,7187077,278,673.4,587.2,4830,left
55,2,binary,46,1,trial,7186585.0,7188835.0,2250.0,96,R,7187093,7187417,326,614.4,610.9,4174,left
55,2,binary,46,1,trial,7186585.0,7188835.0,2250.0,96,R,7187479,7187765,288,1390.3,555.8,3935,right
55,2,binary,46,1,trial,7186585.0,7188835.0,2250.0,96,R,7187783,7187971,190,1420.9,495.2,3977,right
55,2,binary,46,1,trial,7186585.0,7188835.0,2250.0,96,R,7187993,7188351,360,1452.5,563.4,4202,right
55,2,binary,46,1,postResponse,7186585.0,7188835.0,2250.0,96,R,7188421,7189169,750,545.2,618.7,4432,left
55,2,binary,47,2,fixationCross,7190352.0,7193452.0,3100.0,97,R,7189271,7189499,230,552.0,625.9,4362,left
55,2,binary,47,2,fixationCross,7190352.0,7193452.0,3100.0,97,R,7189517,7190027,512,633.3,600.3,4725,left
55,2,binary,47,2,fixationCross,7190352.0,7193452.0,3100.0,97,R,7190077,7190279,204,1033.9,552.1,4961,NA
55,2,binary,47,2,trial,7190352.0,7193452.0,3100.0,97,R,7190295,7190557,264,982.8,556.7,5043,NA
55,2,binary,47,2,trial,7190352.0,7193452.0,3100.0,97,R,7190597,7190841,246,1294.3,573.0,4968,right
55,2,binary,47,2,trial,7190352.0,7193452.0,3100.0,97,R,7190861,7191057,198,1395.6,582.3,4664,right
55,2,binary,47,2,trial,7190352.0,7193452.0,3100.0,97,R,7191073,7191775,704,1338.2,543.0,4558,right
55,2,binary,47,2,trial,7190352.0,7193452.0,3100.0,97,R,7191789,7192251,464,1377.3,545.9,4525,right
55,2,binary,47,2,trial,7190352.0,7193452.0,3100.0,97,R,7192311,7192461,152,707.0,600.7,4682,left
55,2,binary,47,2,trial,7190352.0,7193452.0,3100.0,97,R,7192485,7192783,300,584.0,619.4,4493,left
55,2,binary,47,2,trial,7190352.0,7193452.0,3100.0,97,R,7192799,7193113,316,534.7,610.1,4135,left
55,2,binary,47,2,postResponse,7190352.0,7193452.0,3100.0,97,R,7193123,7193787,666,540.9,588.7,3981,left
55,2,binary,48,1,fixationCross,7194635.0,7196368.0,1733.0,98,R,7193861,7193901,42,547.8,596.7,4112,left
55,2,binary,48,1,fixationCross,7194635.0,7196368.0,1733.0,98,R,7193921,7194313,394,643.2,576.7,4415,left
55,2,binary,48,1,trial,7194635.0,7196368.0,1733.0,98,R,7194355,7194849,496,936.9,560.1,4880,NA
55,2,binary,48,1,trial,7194635.0,7196368.0,1733.0,98,R,7194895,7195257,364,1346.3,581.6,4702,right
55,2,binary,48,1,trial,7194635.0,7196368.0,1733.0,98,R,7195275,7195455,182,1281.1,568.6,4362,right
55,2,binary,48,1,trial,7194635.0,7196368.0,1733.0,98,R,7195507,7195697,192,725.5,591.9,4276,left
55,2,binary,48,1,trial,7194635.0,7196368.0,1733.0,98,R,7195715,7195929,216,671.2,583.8,4267,left
55,2,binary,48,1,postResponse,7194635.0,7196368.0,1733.0,98,R,7195939,7196703,766,642.1,574.6,4154,left
55,2,binary,49,1,fixationCross,7197235.0,7200735.0,3500.0,99,R,7196777,7196879,104,641.0,584.2,4297,left
55,2,binary,49,1,trial,7197235.0,7200735.0,3500.0,99,R,7196921,7197237,318,894.5,559.5,4572,NA
55,2,binary,49,1,trial,7197235.0,7200735.0,3500.0,99,R,7197255,7197587,334,964.5,557.3,4847,NA
55,2,binary,49,1,trial,7197235.0,7200735.0,3500.0,99,R,7197615,7197775,162,1121.0,544.3,4775,NA
55,2,binary,49,1,trial,7197235.0,7200735.0,3500.0,99,R,7197809,7198061,254,1326.2,536.8,4652,right
55,2,binary,49,1,trial,7197235.0,7200735.0,3500.0,99,R,7198085,7198331,248,1451.1,496.5,4457,right
55,2,binary,49,1,trial,7197235.0,7200735.0,3500.0,99,R,7198343,7198709,368,1442.1,471.7,4341,right
55,2,binary,49,1,trial,7197235.0,7200735.0,3500.0,99,R,7198721,7198933,214,1430.9,448.0,4343,right
55,2,binary,49,1,trial,7197235.0,7200735.0,3500.0,99,R,7198961,7199581,622,1412.5,568.9,4620,right
55,2,binary,49,1,trial,7197235.0,7200735.0,3500.0,99,R,7199651,7199981,332,588.9,606.4,4763,left
55,2,binary,49,1,trial,7197235.0,7200735.0,3500.0,99,R,7200005,7200269,266,640.9,505.8,4519,left
55,2,binary,49,1,trial,7197235.0,7200735.0,3500.0,99,R,7200453,7200773,322,516.4,571.4,4455,left
55,2,binary,49,1,postResponse,7197235.0,7200735.0,3500.0,99,R,7200797,7201069,274,615.3,581.4,4628,left
55,2,binary,50,1,fixationCross,7201618.0,7203819.0,2201.0,100,R,7201149,7201583,436,981.3,535.4,4598,NA
55,2,binary,50,1,trial,7201618.0,7203819.0,2201.0,100,R,7201593,7201865,274,959.6,549.1,4928,NA
55,2,binary,50,1,trial,7201618.0,7203819.0,2201.0,100,R,7201909,7202257,350,1343.5,581.5,4789,right
55,2,binary,50,1,trial,7201618.0,7203819.0,2201.0,100,R,7202273,7202505,234,1365.1,526.4,4540,right
55,2,binary,50,1,trial,7201618.0,7203819.0,2201.0,100,R,7202575,7202771,198,576.1,655.6,4684,left
55,2,binary,50,1,trial,7201618.0,7203819.0,2201.0,100,R,7202791,7203025,236,511.9,656.2,4615,left
55,2,binary,50,1,trial,7201618.0,7203819.0,2201.0,100,R,7203065,7203225,162,428.9,511.4,4586,left
55,2,binary,50,1,postResponse,7201618.0,7203819.0,2201.0,100,R,7203245,7204153,910,440.9,448.4,4574,left
55,3,valuation,1,5,fixationCross,7350004.0,7360720.0,10716.0,101,R,7349275,7349537,264,837.0,687.2,4843,NA
55,3,valuation,1,5,fixationCross,7350004.0,7360720.0,10716.0,101,R,7349561,7349699,140,931.6,712.5,4894,NA
55,3,valuation,1,5,trial,7350004.0,7360720.0,10716.0,101,R,7349735,7350331,598,943.6,547.6,4944,NA
55,3,valuation,1,5,trial,7350004.0,7360720.0,10716.0,101,R,7350381,7350591,212,501.7,598.7,4693,likertVertical
55,3,valuation,1,5,trial,7350004.0,7360720.0,10716.0,101,R,7350641,7350983,344,496.7,165.1,4480,NA
55,3,valuation,1,5,trial,7350004.0,7360720.0,10716.0,101,R,7351007,7351201,196,620.2,238.3,4272,likertVertical
55,3,valuation,1,5,trial,7350004.0,7360720.0,10716.0,101,R,7351267,7351499,234,1387.1,479.4,4222,right
55,3,valuation,1,5,trial,7350004.0,7360720.0,10716.0,101,R,7351523,7351843,322,1495.9,491.7,4168,right
55,3,valuation,1,5,trial,7350004.0,7360720.0,10716.0,101,R,7351867,7352005,140,1384.1,499.4,4075,right
55,3,valuation,1,5,trial,7350004.0,7360720.0,10716.0,101,R,7352069,7352203,136,612.1,752.2,4159,likertVertical
55,3,valuation,1,5,trial,7350004.0,7360720.0,10716.0,101,R,7352227,7352477,252,568.6,833.6,4219,likertVertical
55,3,valuation,1,5,trial,7350004.0,7360720.0,10716.0,101,R,7352497,7352787,292,666.3,838.5,4473,likertVertical
55,3,valuation,1,5,trial,7350004.0,7360720.0,10716.0,101,R,7352847,7353109,264,505.4,425.3,4494,likertVertical
55,3,valuation,1,5,trial,7350004.0,7360720.0,10716.0,101,R,7353151,7353371,222,569.2,225.8,4339,likertVertical
55,3,valuation,1,5,trial,7350004.0,7360720.0,10716.0,101,R,7353393,7353507,116,640.9,250.9,4189,likertVertical
55,3,valuation,1,5,trial,7350004.0,7360720.0,10716.0,101,R,7353529,7353831,304,569.3,239.9,4079,likertVertical
55,3,valuation,1,5,trial,7350004.0,7360720.0,10716.0,101,R,7353853,7354067,216,772.0,386.5,3922,NA
55,3,valuation,1,5,trial,7350004.0,7360720.0,10716.0,101,R,7354087,7354255,170,736.9,425.5,3682,likertVertical
55,3,valuation,1,5,trial,7350004.0,7360720.0,10716.0,101,R,7359407,7359687,282,1254.2,677.0,4070,right
55,3,valuation,1,5,trial,7350004.0,7360720.0,10716.0,101,R,7359747,7359921,176,561.8,744.8,4639,likertVertical
55,3,valuation,1,5,trial,7350004.0,7360720.0,10716.0,101,R,7359939,7360107,170,524.7,650.4,4696,likertVertical
55,3,valuation,1,5,trial,7350004.0,7360720.0,10716.0,101,R,7360131,7360663,534,495.8,507.0,4563,likertVertical
55,3,valuation,1,5,postResponse,7350004.0,7360720.0,10716.0,101,R,7360729,7361059,332,1375.5,504.4,4602,right
55,3,valuation,2,2,fixationCross,7361854.0,7365687.0,3833.0,102,R,7361135,7361557,424,1366.9,543.6,4871,right
55,3,valuation,2,2,trial,7361854.0,7365687.0,3833.0,102,R,7361603,7362017,416,963.6,585.0,5287,NA
55,3,valuation,2,2,trial,7361854.0,7365687.0,3833.0,102,R,7362059,7362205,148,1313.4,526.9,5187,right
55,3,valuation,2,2,trial,7361854.0,7365687.0,3833.0,102,R,7362227,7362467,242,1420.2,487.6,4803,right
55,3,valuation,2,2,trial,7361854.0,7365687.0,3833.0,102,R,7362489,7362835,348,1545.0,508.4,4291,right
55,3,valuation,2,2,trial,7361854.0,7365687.0,3833.0,102,R,7362855,7362991,138,1464.4,470.0,4190,right
55,3,valuation,2,2,trial,7361854.0,7365687.0,3833.0,102,R,7363059,7363231,174,602.0,294.9,4298,likertVertical
55,3,valuation,2,2,trial,7361854.0,7365687.0,3833.0,102,R,7363253,7363519,268,538.0,257.4,4269,likertVertical
55,3,valuation,2,2,trial,7361854.0,7365687.0,3833.0,102,R,7363589,7363877,290,1483.0,557.3,4363,right
55,3,valuation,2,2,trial,7361854.0,7365687.0,3833.0,102,R,7363901,7364199,300,1357.4,525.2,4486,right
55,3,valuation,2,2,trial,7361854.0,7365687.0,3833.0,102,R,7364223,7364419,198,1310.1,479.1,4321,right
55,3,valuation,2,2,trial,7361854.0,7365687.0,3833.0,102,R,7364443,7364653,212,1466.7,446.3,4185,right
55,3,valuation,2,2,trial,7361854.0,7365687.0,3833.0,102,R,7364679,7364983,306,1594.6,539.7,4114,right
55,3,valuation,2,2,trial,7361854.0,7365687.0,3833.0,102,R,7365003,7365529,528,1557.6,599.8,4219,right
55,3,valuation,2,2,trial,7361854.0,7365687.0,3833.0,102,R,7365553,7365761,210,1438.3,525.5,4328,right
55,3,valuation,2,2,postResponse,7361854.0,7365687.0,3833.0,102,R,7365777,7366021,246,1427.3,481.2,4359,right
55,3,valuation,3,6,fixationCross,7366854.0,7368837.0,1983.0,103,R,7366095,7366547,454,1416.1,495.5,4588,right
55,3,valuation,3,6,trial,7366854.0,7368837.0,1983.0,103,R,7366597,7367017,422,948.7,550.2,5025,NA
55,3,valuation,3,6,trial,7366854.0,7368837.0,1983.0,103,R,7367059,7367201,144,1333.1,487.3,5024,right
55,3,valuation,3,6,trial,7366854.0,7368837.0,1983.0,103,R,7367229,7367573,346,1489.1,448.7,4668,right
55,3,valuation,3,6,trial,7366854.0,7368837.0,1983.0,103,R,7367649,7367877,230,542.0,300.1,4486,likertVertical
55,3,valuation,3,6,trial,7366854.0,7368837.0,1983.0,103,R,7367895,7368091,198,612.4,273.9,4404,likertVertical
55,3,valuation,3,6,trial,7366854.0,7368837.0,1983.0,103,R,7368133,7368285,154,523.9,567.9,4429,likertVertical
55,3,valuation,3,6,trial,7366854.0,7368837.0,1983.0,103,R,7368309,7368591,284,500.5,481.3,4541,likertVertical
55,3,valuation,3,6,trial,7366854.0,7368837.0,1983.0,103,R,7368617,7368777,162,474.8,342.4,4637,likertVertical
55,3,valuation,3,6,postResponse,7366854.0,7368837.0,1983.0,103,R,7368807,7369157,352,681.2,292.9,4566,likertVertical
55,3,valuation,4,5,fixationCross,7370004.0,7371238.0,1234.0,104,R,7369247,7369715,470,1294.4,440.4,4731,right
55,3,valuation,4,5,fixationCross,7370004.0,7371238.0,1234.0,104,R,7369755,7369907,154,994.2,534.3,5022,NA
55,3,valuation,4,5,trial,7370004.0,7371238.0,1234.0,104,R,7369917,7370155,240,966.3,550.2,5077,NA
55,3,valuation,4,5,trial,7370004.0,7371238.0,1234.0,104,R,7370199,7370401,204,1358.2,528.3,5015,right
55,3,valuation,4,5,postResponse,7370004.0,7371238.0,1234.0,104,R,7370429,7371571,1144,1490.4,621.5,4485,right
55,3,valuation,5,1,fixationCross,7373771.0,7375787.0,2016.0,105,R,7371645,7372995,1352,1467.6,640.0,4763,right
55,3,valuation,5,1,fixationCross,7373771.0,7375787.0,2016.0,105,R,7373027,7373465,440,1443.8,558.9,4847,right
55,3,valuation,5,1,fixationCross,7373771.0,7375787.0,2016.0,105,R,7373515,7373741,228,963.4,551.9,5062,NA
55,3,valuation,5,1,trial,7373771.0,7375787.0,2016.0,105,R,7373975,7374113,140,1009.2,522.2,4955,NA
55,3,valuation,5,1,trial,7373771.0,7375787.0,2016.0,105,R,7374153,7374301,150,1330.3,537.4,4891,right
55,3,valuation,5,1,trial,7373771.0,7375787.0,2016.0,105,R,7374321,7374621,302,1431.1,555.9,4325,right
