participantNo,block,task,blockTrial,response,trialStage,trialStartTime,trialFinishTime,rt,trial,eye,fixStart,fixEnd,fixLength,fixPosX,fixPosY,dilation,aoi
9,1,continuous,1,72,fixationCross,20663393.0,20670326.0,6933.0,1,L,20653087,20653441,356,1076.2,719.4,5485,NA
9,1,continuous,1,72,fixationCross,20663393.0,20670326.0,6933.0,1,L,20653473,20653587,116,970.2,559.6,5339,NA
9,1,continuous,1,72,fixationCross,20663393.0,20670326.0,6933.0,1,L,20653599,20654767,1170,986.9,523.2,5451,NA
9,1,continuous,1,72,fixationCross,20663393.0,20670326.0,6933.0,1,L,20654941,20655957,1018,985.8,524.6,5511,NA
9,1,continuous,1,72,fixationCross,20663393.0,20670326.0,6933.0,1,L,20656125,20657635,1512,978.3,521.9,5365,NA
9,1,continuous,1,72,fixationCross,20663393.0,20670326.0,6933.0,1,L,20657657,20658547,892,966.2,519.5,5223,NA
9,1,continuous,1,72,fixationCross,20663393.0,20670326.0,6933.0,1,L,20658607,20658645,40,980.7,542.7,5342,NA
9,1,continuous,1,72,fixationCross,20663393.0,20670326.0,6933.0,1,L,20658843,20659669,828,971.4,536.5,5299,NA
9,1,continuous,1,72,fixationCross,20663393.0,20670326.0,6933.0,1,L,20659861,20660891,1032,964.6,542.1,5170,NA
9,1,continuous,1,72,fixationCross,20663393.0,20670326.0,6933.0,1,L,20661079,20661495,418,997.7,536.2,5295,NA
9,1,continuous,1,72,fixationCross,20663393.0,20670326.0,6933.0,1,L,20661505,20662079,576,979.8,538.1,5408,NA
9,1,continuous,1,72,fixationCross,20663393.0,20670326.0,6933.0,1,L,20662215,20662393,180,3270.0,548.3,4809,NA
9,1,continuous,1,72,fixationCross,20663393.0,20670326.0,6933.0,1,L,20662587,20662743,158,877.7,600.8,5144,NA
9,1,continuous,1,72,trial,20663393.0,20670326.0,6933.0,1,L,20662769,20663393,626,972.3,541.8,5044,NA
9,1,continuous,1,72,trial,20663393.0,20670326.0,6933.0,1,L,20663595,20663905,312,992.9,547.4,5129,NA
9,1,continuous,1,72,trial,20663393.0,20670326.0,6933.0,1,L,20663949,20664209,262,1379.7,601.4,4857,right
9,1,continuous,1,72,trial,20663393.0,20670326.0,6933.0,1,L,20664233,20664631,400,1342.1,524.0,4528,right
9,1,continuous,1,72,trial,20663393.0,20670326.0,6933.0,1,L,20664685,20664831,148,996.0,936.8,4612,likertHorizontal
9,1,continuous,1,72,trial,20663393.0,20670326.0,6933.0,1,L,20664849,20664969,122,958.2,977.8,4769,likertHorizontal
9,1,continuous,1,72,trial,20663393.0,20670326.0,6933.0,1,L,20665031,20665441,412,1368.5,514.9,4678,right
9,1,continuous,1,72,trial,20663393.0,20670326.0,6933.0,1,L,20665485,20665753,270,1555.4,768.4,4750,NA
9,1,continuous,1,72,trial,20663393.0,20670326.0,6933.0,1,L,20666205,20666413,210,988.8,700.2,5142,NA
9,1,continuous,1,72,trial,20663393.0,20670326.0,6933.0,1,L,20666457,20666605,150,561.7,765.1,4977,NA
9,1,continuous,1,72,trial,20663393.0,20670326.0,6933.0,1,L,20666639,20666739,102,536.6,975.1,4888,NA
9,1,continuous,1,72,trial,20663393.0,20670326.0,6933.0,1,L,20666783,20667305,524,979.6,979.7,4948,likertHorizontal
9,1,continuous,1,72,trial,20663393.0,20670326.0,6933.0,1,L,20667339,20667555,218,704.7,968.9,5197,NA
9,1,continuous,1,72,trial,20663393.0,20670326.0,6933.0,1,L,20667605,20667811,208,645.7,688.7,5114,left
9,1,continuous,1,72,trial,20663393.0,20670326.0,6933.0,1,L,20667843,20668005,164,489.7,646.4,4993,left
9,1,continuous,1,72,trial,20663393.0,20670326.0,6933.0,1,L,20668067,20668323,258,1406.0,567.8,4611,right
9,1,continuous,1,72,trial,20663393.0,20670326.0,6933.0,1,L,20668345,20668495,152,1342.7,522.0,4242,right
9,1,continuous,1,72,trial,20663393.0,20670326.0,6933.0,1,L,20668551,20668857,308,609.3,565.4,4162,left
9,1,continuous,1,72,postResponse,20663393.0,20670326.0,6933.0,1,L,20668913,20670649,1738,1221.8,966.0,4580,NA
9,1,continuous,2,29,fixationCross,20681059.0,20683726.0,2667.0,2,L,20670791,20670895,106,1090.2,344.9,5161,NA
9,1,continuous,2,29,fixationCross,20681059.0,20683726.0,2667.0,2,L,20671059,20671227,170,1114.3,527.1,5401,NA
9,1,continuous,2,29,fixationCross,20681059.0,20683726.0,2667.0,2,L,20671247,20673141,1896,988.6,534.0,5489,NA
9,1,continuous,2,29,fixationCross,20681059.0,20683726.0,2667.0,2,L,20673311,20676197,2888,984.4,526.2,5443,NA
9,1,continuous,2,29,fixationCross,20681059.0,20683726.0,2667.0,2,L,20676375,20677399,1026,983.4,538.9,5207,NA
9,1,continuous,2,29,fixationCross,20681059.0,20683726.0,2667.0,2,L,20677409,20680809,3402,973.4,543.0,4707,NA
9,1,continuous,2,29,trial,20681059.0,20683726.0,2667.0,2,L,20681005,20681315,312,973.9,521.9,4528,NA
9,1,continuous,2,29,trial,20681059.0,20683726.0,2667.0,2,L,20681357,20681507,152,1361.3,515.0,4678,right
9,1,continuous,2,29,trial,20681059.0,20683726.0,2667.0,2,L,20681571,20682021,452,445.8,504.6,4207,left
9,1,continuous,2,29,trial,20681059.0,20683726.0,2667.0,2,L,20682073,20682223,152,924.2,951.8,3872,likertHorizontal
9,1,continuous,2,29,trial,20681059.0,20683726.0,2667.0,2,L,20682245,20682333,90,973.6,988.7,3811,likertHorizontal
9,1,continuous,2,29,trial,20681059.0,20683726.0,2667.0,2,L,20682393,20682765,374,1368.5,423.7,3764,right
9,1,continuous,2,29,trial,20681059.0,20683726.0,2667.0,2,L,20682827,20683081,256,534.7,487.1,4145,left
9,1,continuous,2,29,trial,20681059.0,20683726.0,2667.0,2,L,20683103,20683241,140,453.1,545.2,4026,left
9,1,continuous,2,29,trial,20681059.0,20683726.0,2667.0,2,L,20683289,20683985,698,682.1,980.4,4071,NA
9,1,continuous,2,29,postResponse,20681059.0,20683726.0,2667.0,2,L,20684047,20684077,32,1047.3,290.9,4454,NA
9,1,continuous,3,26,fixationCross,20694426.0,20699076.0,4650.0,3,L,20684151,20684611,462,1042.2,360.3,4777,NA
9,1,continuous,3,26,fixationCross,20694426.0,20699076.0,4650.0,3,L,20684787,20685433,648,998.3,517.3,5271,NA
9,1,continuous,3,26,fixationCross,20694426.0,20699076.0,4650.0,3,L,20685615,20686271,658,981.8,531.5,5166,NA
9,1,continuous,3,26,fixationCross,20694426.0,20699076.0,4650.0,3,L,20686457,20688817,2362,979.5,537.1,5258,NA
9,1,continuous,3,26,fixationCross,20694426.0,20699076.0,4650.0,3,L,20688981,20690187,1208,969.2,540.2,4936,NA
9,1,continuous,3,26,fixationCross,20694426.0,20699076.0,4650.0,3,L,20690369,20693637,3270,967.4,552.5,4825,NA
9,1,continuous,3,26,trial,20694426.0,20699076.0,4650.0,3,L,20693819,20694673,856,966.4,539.1,4968,NA
9,1,continuous,3,26,trial,20694426.0,20699076.0,4650.0,3,L,20694715,20694819,106,1389.0,585.1,4743,right
9,1,continuous,3,26,trial,20694426.0,20699076.0,4650.0,3,L,20694881,20695097,218,490.4,573.8,4262,left
9,1,continuous,3,26,trial,20694426.0,20699076.0,4650.0,3,L,20695121,20695379,260,612.0,570.0,3904,left
9,1,continuous,3,26,trial,20694426.0,20699076.0,4650.0,3,L,20695415,20695507,94,383.8,641.7,3726,left
9,1,continuous,3,26,trial,20694426.0,20699076.0,4650.0,3,L,20695579,20695803,226,1499.2,528.3,3486,right
9,1,continuous,3,26,trial,20694426.0,20699076.0,4650.0,3,L,20695833,20696093,262,1335.5,622.0,3476,right
9,1,continuous,3,26,trial,20694426.0,20699076.0,4650.0,3,L,20696117,20696217,102,1453.5,650.8,3443,right
9,1,continuous,3,26,trial,20694426.0,20699076.0,4650.0,3,L,20696293,20696499,208,432.0,556.4,3584,left
9,1,continuous,3,26,trial,20694426.0,20699076.0,4650.0,3,L,20696537,20696995,460,649.2,562.8,3775,left
9,1,continuous,3,26,trial,20694426.0,20699076.0,4650.0,3,L,20697005,20697903,900,691.1,564.1,4164,left
9,1,continuous,3,26,trial,20694426.0,20699076.0,4650.0,3,L,20697923,20698063,142,597.6,544.5,4331,left
9,1,continuous,3,26,trial,20694426.0,20699076.0,4650.0,3,L,20698099,20698447,350,353.1,546.0,4144,left
9,1,continuous,3,26,trial,20694426.0,20699076.0,4650.0,3,L,20698527,20698745,220,1562.2,612.4,3978,right
9,1,continuous,3,26,postResponse,20694426.0,20699076.0,4650.0,3,L,20698771,20699415,646,1497.6,503.9,3829,right
9,1,continuous,4,94,fixationCross,20709776.0,20713543.0,3767.0,4,L,20699515,20699545,32,1503.5,527.3,4202,right
9,1,continuous,4,94,fixationCross,20709776.0,20713543.0,3767.0,4,L,20699793,20699965,174,1296.6,538.5,4665,right
9,1,continuous,4,94,fixationCross,20709776.0,20713543.0,3767.0,4,L,20700005,20701315,1312,971.4,548.2,4893,NA
9,1,continuous,4,94,fixationCross,20709776.0,20713543.0,3767.0,4,L,20701521,20702057,538,984.3,534.4,5033,NA
9,1,continuous,4,94,fixationCross,20709776.0,20713543.0,3767.0,4,L,20702079,20702171,94,939.0,507.2,5163,NA
9,1,continuous,4,94,fixationCross,20709776.0,20713543.0,3767.0,4,L,20702189,20703773,1586,988.4,525.1,5134,NA
9,1,continuous,4,94,fixationCross,20709776.0,20713543.0,3767.0,4,L,20703965,20705433,1470,979.9,539.1,4866,NA
9,1,continuous,4,94,fixationCross,20709776.0,20713543.0,3767.0,4,L,20705627,20707673,2048,976.3,544.8,4961,NA
9,1,continuous,4,94,fixationCross,20709776.0,20713543.0,3767.0,4,L,20707693,20708813,1122,968.9,541.1,5065,NA
9,1,continuous,4,94,trial,20709776.0,20713543.0,3767.0,4,L,20709017,20709973,958,966.9,540.7,4965,NA
9,1,continuous,4,94,trial,20709776.0,20713543.0,3767.0,4,L,20710019,20710199,182,1419.9,561.7,4839,right
9,1,continuous,4,94,trial,20709776.0,20713543.0,3767.0,4,L,20710219,20710383,166,1416.3,527.5,4410,right
9,1,continuous,4,94,trial,20709776.0,20713543.0,3767.0,4,L,20710445,20710575,132,520.5,465.1,4242,left
9,1,continuous,4,94,trial,20709776.0,20713543.0,3767.0,4,L,20710593,20710931,340,456.7,458.1,3988,left
9,1,continuous,4,94,trial,20709776.0,20713543.0,3767.0,4,L,20710959,20711117,160,522.6,543.0,3774,left
9,1,continuous,4,94,trial,20709776.0,20713543.0,3767.0,4,L,20711185,20711657,474,1476.8,503.1,3591,right
9,1,continuous,4,94,trial,20709776.0,20713543.0,3767.0,4,L,20711725,20711893,170,465.0,499.1,4148,left
9,1,continuous,4,94,trial,20709776.0,20713543.0,3767.0,4,L,20711913,20712159,248,464.5,434.9,4017,left
9,1,continuous,4,94,trial,20709776.0,20713543.0,3767.0,4,L,20712225,20712819,596,1214.0,965.6,4065,NA
9,1,continuous,4,94,trial,20709776.0,20713543.0,3767.0,4,L,20712843,20713155,314,1372.0,971.3,4523,NA
9,1,continuous,4,94,trial,20709776.0,20713543.0,3767.0,4,L,20713227,20713395,170,502.1,392.9,4812,left
9,1,continuous,4,94,postResponse,20709776.0,20713543.0,3767.0,4,L,20713413,20713901,490,467.1,440.4,4464,left
9,1,continuous,5,59,fixationCross,20724276.0,20731594.0,7318.0,5,L,20714251,20714467,218,1150.1,605.7,4549,NA
9,1,continuous,5,59,fixationCross,20724276.0,20731594.0,7318.0,5,L,20714493,20715151,660,971.8,555.9,4970,NA
9,1,continuous,5,59,fixationCross,20724276.0,20731594.0,7318.0,5,L,20715361,20716043,684,966.1,546.2,5014,NA
9,1,continuous,5,59,fixationCross,20724276.0,20731594.0,7318.0,5,L,20716247,20717113,868,971.8,551.1,4792,NA
9,1,continuous,5,59,fixationCross,20724276.0,20731594.0,7318.0,5,L,20717305,20719249,1946,970.8,551.5,4863,NA
9,1,continuous,5,59,fixationCross,20724276.0,20731594.0,7318.0,5,L,20719419,20720389,972,986.5,541.4,5056,NA
9,1,continuous,5,59,fixationCross,20724276.0,20731594.0,7318.0,5,L,20720411,20720537,128,942.0,526.0,4957,NA
9,1,continuous,5,59,fixationCross,20724276.0,20731594.0,7318.0,5,L,20720547,20721373,828,973.2,530.1,5123,NA
9,1,continuous,5,59,fixationCross,20724276.0,20731594.0,7318.0,5,L,20721541,20722593,1054,958.5,540.5,5112,NA
9,1,continuous,5,59,fixationCross,20724276.0,20731594.0,7318.0,5,L,20722601,20723221,622,973.4,546.0,4892,NA
9,1,continuous,5,59,fixationCross,20724276.0,20731594.0,7318.0,5,L,20723229,20723473,246,966.9,546.0,4883,NA
9,1,continuous,5,59,trial,20724276.0,20731594.0,7318.0,5,L,20723665,20724531,868,995.8,544.7,4941,NA
9,1,continuous,5,59,trial,20724276.0,20731594.0,7318.0,5,L,20724573,20724841,270,1394.7,511.9,4312,right
9,1,continuous,5,59,trial,20724276.0,20731594.0,7318.0,5,L,20724907,20725777,872,500.0,567.3,3766,left
9,1,continuous,5,59,trial,20724276.0,20731594.0,7318.0,5,L,20725843,20726269,428,1361.7,429.0,3796,right
9,1,continuous,5,59,trial,20724276.0,20731594.0,7318.0,5,L,20726327,20726497,172,1013.0,914.3,4245,likertHorizontal
9,1,continuous,5,59,trial,20724276.0,20731594.0,7318.0,5,L,20726515,20726769,256,982.7,960.3,4468,likertHorizontal
9,1,continuous,5,59,trial,20724276.0,20731594.0,7318.0,5,L,20726779,20726947,170,1032.6,965.3,4636,likertHorizontal
9,1,continuous,5,59,trial,20724276.0,20731594.0,7318.0,5,L,20727007,20727347,342,1352.9,473.6,4588,right
9,1,continuous,5,59,trial,20724276.0,20731594.0,7318.0,5,L,20727375,20727627,254,1507.6,537.2,4359,right
9,1,continuous,5,59,trial,20724276.0,20731594.0,7318.0,5,L,20727699,20728295,598,466.6,583.4,4016,left
9,1,continuous,5,59,trial,20724276.0,20731594.0,7318.0,5,L,20728347,20728787,442,773.2,935.9,4155,likertHorizontal
9,1,continuous,5,59,trial,20724276.0,20731594.0,7318.0,5,L,20728805,20729055,252,820.6,970.6,4436,likertHorizontal
9,1,continuous,5,59,trial,20724276.0,20731594.0,7318.0,5,L,20729107,20729287,182,527.8,490.7,4568,left
9,1,continuous,5,59,trial,20724276.0,20731594.0,7318.0,5,L,20729351,20729591,242,1404.4,451.7,4278,right
9,1,continuous,5,59,trial,20724276.0,20731594.0,7318.0,5,L,20729615,20729939,326,1250.5,441.0,3933,right
9,1,continuous,5,59,trial,20724276.0,20731594.0,7318.0,5,L,20729995,20730159,166,1134.2,924.8,3840,likertHorizontal
9,1,continuous,5,59,trial,20724276.0,20731594.0,7318.0,5,L,20730183,20730445,264,1032.4,963.7,4075,likertHorizontal
9,1,continuous,5,59,trial,20724276.0,20731594.0,7318.0,5,L,20730503,20730731,230,1442.1,490.3,4310,right
9,1,continuous,5,59,trial,20724276.0,20731594.0,7318.0,5,L,20730753,20731083,332,1521.1,577.9,4175,right
9,1,continuous,5,59,postResponse,20724276.0,20731594.0,7318.0,5,L,20731135,20731931,798,1028.4,843.8,4317,likertHorizontal
9,1,continuous,6,68,fixationCross,20732310.0,20735260.0,2950.0,6,L,20732163,20732259,98,1198.2,327.8,4755,NA
9,1,continuous,6,68,trial,20732310.0,20735260.0,2950.0,6,L,20732315,20732467,154,1775.3,41.1,4637,NA
9,1,continuous,6,68,trial,20732310.0,20735260.0,2950.0,6,L,20732521,20732649,130,1064.0,567.8,4982,NA
9,1,continuous,6,68,trial,20732310.0,20735260.0,2950.0,6,L,20732695,20732881,188,547.7,557.9,4777,left
9,1,continuous,6,68,trial,20732310.0,20735260.0,2950.0,6,L,20732899,20733045,148,478.3,588.2,4565,left
9,1,continuous,6,68,trial,20732310.0,20735260.0,2950.0,6,L,20733073,20733295,224,602.8,532.5,4349,left
9,1,continuous,6,68,trial,20732310.0,20735260.0,2950.0,6,L,20733361,20733901,542,1447.6,628.6,3913,right
9,1,continuous,6,68,trial,20732310.0,20735260.0,2950.0,6,L,20733931,20734143,214,1208.5,594.9,4108,right
9,1,continuous,6,68,trial,20732310.0,20735260.0,2950.0,6,L,20734195,20734491,298,1124.8,969.6,4236,likertHorizontal
9,1,continuous,6,68,trial,20732310.0,20735260.0,2950.0,6,L,20734571,20734775,206,449.7,538.0,4377,left
9,1,continuous,6,68,trial,20732310.0,20735260.0,2950.0,6,L,20734793,20735307,516,535.9,548.6,4169,left
9,1,continuous,6,68,postResponse,20732310.0,20735260.0,2950.0,6,L,20735343,20735597,256,840.6,505.3,3897,NA
9,1,continuous,7,35,trial,20735977.0,20740877.0,4900.0,7,L,20735915,20736245,332,1029.9,472.0,4384,NA
9,1,continuous,7,35,trial,20735977.0,20740877.0,4900.0,7,L,20736285,20736511,228,1388.3,524.2,4496,right
9,1,continuous,7,35,trial,20735977.0,20740877.0,4900.0,7,L,20736535,20736769,236,1357.3,447.9,4279,right
9,1,continuous,7,35,trial,20735977.0,20740877.0,4900.0,7,L,20736833,20737097,266,429.9,546.5,4144,left
9,1,continuous,7,35,trial,20735977.0,20740877.0,4900.0,7,L,20737121,20737295,176,573.3,518.9,4035,left
9,1,continuous,7,35,trial,20735977.0,20740877.0,4900.0,7,L,20737307,20737551,246,591.7,486.6,3914,left
9,1,continuous,7,35,trial,20735977.0,20740877.0,4900.0,7,L,20737573,20737753,182,489.6,475.6,3717,left
9,1,continuous,7,35,trial,20735977.0,20740877.0,4900.0,7,L,20737763,20737911,150,521.7,461.6,3601,left
9,1,continuous,7,35,trial,20735977.0,20740877.0,4900.0,7,L,20737977,20738207,232,1414.4,454.2,3382,right
9,1,continuous,7,35,trial,20735977.0,20740877.0,4900.0,7,L,20738223,20738595,374,1336.2,470.0,3657,right
9,1,continuous,7,35,trial,20735977.0,20740877.0,4900.0,7,L,20738619,20739145,528,1365.9,394.1,4106,right
9,1,continuous,7,35,trial,20735977.0,20740877.0,4900.0,7,L,20739205,20740137,934,606.2,542.1,4243,left
9,1,continuous,7,35,trial,20735977.0,20740877.0,4900.0,7,L,20740145,20741149,1006,611.7,490.1,4370,left
9,1,continuous,8,23,fixationCross,20741577.0,20744577.0,3000.0,8,L,20741377,20741539,164,1560.8,355.8,4532,right
9,1,continuous,8,23,trial,20741577.0,20744577.0,3000.0,8,L,20741583,20741769,188,1121.1,537.2,4801,NA
9,1,continuous,8,23,trial,20741577.0,20744577.0,3000.0,8,L,20741803,20742127,326,1413.6,560.7,4691,right
9,1,continuous,8,23,trial,20741577.0,20744577.0,3000.0,8,L,20742139,20742339,202,1377.8,574.0,4168,right
9,1,continuous,8,23,trial,20741577.0,20744577.0,3000.0,8,L,20742401,20742999,600,496.1,566.9,3838,left
9,1,continuous,8,23,trial,20741577.0,20744577.0,3000.0,8,L,20743067,20743261,196,1427.8,520.9,3668,right
9,1,continuous,8,23,trial,20741577.0,20744577.0,3000.0,8,L,20743275,20743549,276,1378.5,570.2,3713,right
9,1,continuous,8,23,trial,20741577.0,20744577.0,3000.0,8,L,20743565,20743669,106,1365.8,630.5,3805,right
9,1,continuous,8,23,trial,20741577.0,20744577.0,3000.0,8,L,20743727,20743869,144,565.0,1018.5,3943,NA
9,1,continuous,8,23,trial,20741577.0,20744577.0,3000.0,8,L,20743893,20744037,146,726.6,1010.7,4036,NA
9,1,continuous,8,23,trial,20741577.0,20744577.0,3000.0,8,L,20744063,20744181,120,541.1,999.0,4051,NA
9,1,continuous,8,23,postResponse,20741577.0,20744577.0,3000.0,8,L,20744233,20744913,682,571.3,614.7,4419,left
9,1,continuous,9,1,fixationCross,20745260.0,20747493.0,2233.0,9,L,20744987,20745137,152,571.6,630.6,4423,left
9,1,continuous,9,1,trial,20745260.0,20747493.0,2233.0,9,L,20745335,20745475,142,1043.1,524.6,4695,NA
9,1,continuous,9,1,trial,20745260.0,20747493.0,2233.0,9,L,20745519,20745845,328,1496.2,557.6,4651,right
9,1,continuous,9,1,trial,20745260.0,20747493.0,2233.0,9,L,20745863,20745937,76,1427.1,520.7,4376,right
9,1,continuous,9,1,trial,20745260.0,20747493.0,2233.0,9,L,20745997,20746269,274,557.1,541.2,4020,left
9,1,continuous,9,1,trial,20745260.0,20747493.0,2233.0,9,L,20746295,20746499,206,432.6,552.8,3721,left
9,1,continuous,9,1,trial,20745260.0,20747493.0,2233.0,9,L,20746551,20746855,306,568.1,998.7,3879,NA
9,1,continuous,9,1,trial,20745260.0,20747493.0,2233.0,9,L,20746875,20747297,424,460.8,1003.4,4246,NA
9,1,continuous,9,1,postResponse,20745260.0,20747493.0,2233.0,9,L,20747367,20747831,466,1448.0,593.5,4396,right
9,1,continuous,10,88,fixationCross,20748177.0,20750193.0,2016.0,10,L,20747925,20748135,212,1135.4,551.8,4261,NA
9,1,continuous,10,88,trial,20748177.0,20750193.0,2016.0,10,L,20748159,20748407,250,1003.7,528.2,4542,NA
9,1,continuous,10,88,trial,20748177.0,20750193.0,2016.0,10,L,20748453,20748719,268,1450.5,556.0,4491,right
9,1,continuous,10,88,trial,20748177.0,20750193.0,2016.0,10,L,20748789,20749103,316,456.8,582.4,4028,left
9,1,continuous,10,88,trial,20748177.0,20750193.0,2016.0,10,L,20749141,20749345,206,634.4,556.9,3727,left
9,1,continuous,10,88,trial,20748177.0,20750193.0,2016.0,10,L,20749405,20749739,336,1421.9,540.0,3659,right
9,1,continuous,10,88,trial,20748177.0,20750193.0,2016.0,10,L,20749793,20750423,632,1336.7,989.8,3869,NA
9,1,continuous,11,38,trial,20750910.0,20755376.0,4466.0,11,L,20750651,20750913,264,952.1,423.1,4459,NA
9,1,continuous,11,38,trial,20750910.0,20755376.0,4466.0,11,L,20750939,20751131,194,959.3,554.0,4771,NA
9,1,continuous,11,38,trial,20750910.0,20755376.0,4466.0,11,L,20751173,20751325,154,544.3,499.9,4904,left
9,1,continuous,11,38,trial,20750910.0,20755376.0,4466.0,11,L,20751341,20751491,152,468.1,509.1,4734,left
9,1,continuous,11,38,trial,20750910.0,20755376.0,4466.0,11,L,20751559,20751873,316,1455.7,490.7,4194,right
9,1,continuous,11,38,trial,20750910.0,20755376.0,4466.0,11,L,20751897,20752405,510,1573.0,471.4,3957,right
9,1,continuous,11,38,trial,20750910.0,20755376.0,4466.0,11,L,20752477,20752613,138,512.1,503.1,3839,left
9,1,continuous,11,38,trial,20750910.0,20755376.0,4466.0,11,L,20752635,20753113,480,447.7,505.7,3712,left
9,1,continuous,11,38,trial,20750910.0,20755376.0,4466.0,11,L,20753183,20753457,276,1418.7,431.4,3876,right
9,1,continuous,11,38,trial,20750910.0,20755376.0,4466.0,11,L,20753483,20753733,252,1538.1,469.0,3983,right
9,1,continuous,11,38,trial,20750910.0,20755376.0,4466.0,11,L,20753803,20754003,202,436.8,463.0,4339,left
9,1,continuous,11,38,trial,20750910.0,20755376.0,4466.0,11,L,20754017,20754439,424,483.4,518.1,4210,left
9,1,continuous,11,38,trial,20750910.0,20755376.0,4466.0,11,L,20754489,20754689,202,778.2,962.1,4272,likertHorizontal
9,1,continuous,11,38,trial,20750910.0,20755376.0,4466.0,11,L,20754703,20755095,394,799.6,987.6,4329,likertHorizontal
9,1,continuous,11,38,trial,20750910.0,20755376.0,4466.0,11,L,20755155,20755369,216,1442.7,481.4,4463,right
9,1,continuous,11,38,postResponse,20750910.0,20755376.0,4466.0,11,L,20755393,20755711,320,1566.3,482.3,4384,right
9,1,continuous,12,81,trial,20756077.0,20758627.0,2550.0,12,L,20755959,20756165,208,1082.8,509.3,4460,NA
9,1,continuous,12,81,trial,20756077.0,20758627.0,2550.0,12,L,20756183,20756301,120,996.9,527.9,4665,NA
9,1,continuous,12,81,trial,20756077.0,20758627.0,2550.0,12,L,20756353,20757073,722,558.2,564.4,4268,left
9,1,continuous,12,81,trial,20756077.0,20758627.0,2550.0,12,L,20757093,20757241,150,639.7,540.1,3751,left
9,1,continuous,12,81,trial,20756077.0,20758627.0,2550.0,12,L,20757271,20757491,222,449.5,573.2,3878,left
9,1,continuous,12,81,trial,20756077.0,20758627.0,2550.0,12,L,20757563,20758091,530,1449.0,528.0,3790,right
9,1,continuous,12,81,trial,20756077.0,20758627.0,2550.0,12,L,20758149,20758559,412,1242.5,985.3,3877,NA
9,1,continuous,12,81,trial,20756077.0,20758627.0,2550.0,12,L,20758611,20758885,276,1341.3,470.4,3953,right
9,1,continuous,13,22,trial,20759344.0,20762777.0,3433.0,13,L,20759097,20759379,284,1153.2,461.8,4399,NA
9,1,continuous,13,22,trial,20759344.0,20762777.0,3433.0,13,L,20759407,20759613,208,965.9,542.1,4582,NA
9,1,continuous,13,22,trial,20759344.0,20762777.0,3433.0,13,L,20759659,20760119,462,500.9,577.8,4110,left
9,1,continuous,13,22,trial,20759344.0,20762777.0,3433.0,13,L,20760145,20760273,130,343.8,635.3,3608,left
9,1,continuous,13,22,trial,20759344.0,20762777.0,3433.0,13,L,20760341,20760671,332,1371.3,587.2,3250,right
9,1,continuous,13,22,trial,20759344.0,20762777.0,3433.0,13,L,20760693,20760925,234,1452.0,596.7,3321,right
9,1,continuous,13,22,trial,20759344.0,20762777.0,3433.0,13,L,20760965,20761331,368,1272.5,368.5,3594,right
9,1,continuous,13,22,trial,20759344.0,20762777.0,3433.0,13,L,20761393,20761733,342,440.6,550.0,3691,left
9,1,continuous,13,22,trial,20759344.0,20762777.0,3433.0,13,L,20761767,20762241,476,516.8,396.9,3357,left
9,1,continuous,13,22,trial,20759344.0,20762777.0,3433.0,13,L,20762303,20762473,172,552.8,1049.3,3292,NA
9,1,continuous,13,22,trial,20759344.0,20762777.0,3433.0,13,L,20762489,20763063,576,609.3,998.4,3708,NA
9,1,continuous,14,99,trial,20763460.0,20765827.0,2367.0,14,L,20763185,20763491,308,1098.4,431.2,4150,NA
9,1,continuous,14,99,trial,20763460.0,20765827.0,2367.0,14,L,20763515,20763707,194,998.3,557.5,4393,NA
9,1,continuous,14,99,trial,20763460.0,20765827.0,2367.0,14,L,20763749,20763975,228,1391.2,591.2,4357,right
9,1,continuous,14,99,trial,20763460.0,20765827.0,2367.0,14,L,20763991,20764215,226,1405.7,621.0,3919,right
9,1,continuous,14,99,trial,20763460.0,20765827.0,2367.0,14,L,20764233,20764353,122,1434.6,656.2,3631,right
9,1,continuous,14,99,trial,20763460.0,20765827.0,2367.0,14,L,20764419,20764729,312,451.9,472.9,3605,left
9,1,continuous,14,99,trial,20763460.0,20765827.0,2367.0,14,L,20764747,20765087,342,461.3,430.7,3712,left
9,1,continuous,14,99,trial,20763460.0,20765827.0,2367.0,14,L,20765149,20765353,206,1161.8,973.8,4019,likertHorizontal
9,1,continuous,14,99,trial,20763460.0,20765827.0,2367.0,14,L,20765383,20765667,286,1360.4,973.8,3988,NA
9,1,continuous,14,99,trial,20763460.0,20765827.0,2367.0,14,L,20765679,20765817,140,1411.1,983.8,4109,NA
9,1,continuous,14,99,postResponse,20763460.0,20765827.0,2367.0,14,L,20765865,20766159,296,1385.5,584.6,4255,right
9,1,continuous,15,86,trial,20766527.0,20770127.0,3600.0,15,L,20766269,20766733,466,1023.9,552.4,4298,NA
9,1,continuous,15,86,trial,20766527.0,20770127.0,3600.0,15,L,20766787,20766953,168,537.2,576.5,4544,left
9,1,continuous,15,86,trial,20766527.0,20770127.0,3600.0,15,L,20766973,20767341,370,460.2,532.0,4015,left
9,1,continuous,15,86,trial,20766527.0,20770127.0,3600.0,15,L,20767365,20767481,118,534.4,646.9,3616,left
9,1,continuous,15,86,trial,20766527.0,20770127.0,3600.0,15,L,20767547,20767875,330,1431.7,517.4,3624,right
9,1,continuous,15,86,trial,20766527.0,20770127.0,3600.0,15,L,20767895,20768673,780,1493.6,488.2,3902,right
9,1,continuous,15,86,trial,20766527.0,20770127.0,3600.0,15,L,20768713,20768873,162,1242.3,725.1,4067,right
9,1,continuous,15,86,trial,20766527.0,20770127.0,3600.0,15,L,20768905,20769379,476,1146.6,956.4,4137,likertHorizontal
9,1,continuous,15,86,trial,20766527.0,20770127.0,3600.0,15,L,20769393,20769531,140,1229.5,962.4,4363,NA
9,1,continuous,15,86,trial,20766527.0,20770127.0,3600.0,15,L,20769587,20769823,238,669.9,549.8,4513,left
9,1,continuous,15,86,trial,20766527.0,20770127.0,3600.0,15,L,20769849,20770083,236,493.7,603.1,4411,left
9,1,continuous,15,86,postResponse,20766527.0,20770127.0,3600.0,15,L,20770107,20770461,356,572.3,695.9,4377,left
9,1,continuous,16,100,trial,20770810.0,20773843.0,3033.0,16,L,20770683,20770999,318,1015.0,523.2,4555,NA
9,1,continuous,16,100,trial,20770810.0,20773843.0,3033.0,16,L,20771043,20771297,256,1441.0,537.8,4496,right
9,1,continuous,16,100,trial,20770810.0,20773843.0,3033.0,16,L,20771317,20771479,164,1527.5,544.8,4001,right
9,1,continuous,16,100,trial,20770810.0,20773843.0,3033.0,16,L,20771505,20771723,220,1377.1,529.6,3743,right
9,1,continuous,16,100,trial,20770810.0,20773843.0,3033.0,16,L,20771787,20772019,234,481.6,595.0,3664,left
9,1,continuous,16,100,trial,20770810.0,20773843.0,3033.0,16,L,20772041,20772421,382,405.8,582.9,3667,left
9,1,continuous,16,100,trial,20770810.0,20773843.0,3033.0,16,L,20772459,20772627,170,624.3,626.3,3557,left
9,1,continuous,16,100,trial,20770810.0,20773843.0,3033.0,16,L,20772667,20772967,302,394.9,537.5,3707,left
9,1,continuous,16,100,trial,20770810.0,20773843.0,3033.0,16,L,20773039,20773339,302,1428.3,472.0,3527,right
9,1,continuous,16,100,trial,20770810.0,20773843.0,3033.0,16,L,20773365,20773751,388,1521.2,586.2,3578,right
9,1,continuous,16,100,trial,20770810.0,20773843.0,3033.0,16,L,20773795,20774141,348,1435.7,980.3,3981,NA
9,1,continuous,17,51,fixationCross,20774527.0,20777177.0,2650.0,17,L,20774253,20774435,184,1169.9,389.7,4143,NA
9,1,continuous,17,51,trial,20774527.0,20777177.0,2650.0,17,L,20774463,20774723,262,1036.4,549.3,4383,NA
9,1,continuous,17,51,trial,20774527.0,20777177.0,2650.0,17,L,20774775,20775039,266,503.9,524.6,4462,left
9,1,continuous,17,51,trial,20774527.0,20777177.0,2650.0,17,L,20775063,20775259,198,605.0,556.7,3989,left
9,1,continuous,17,51,trial,20774527.0,20777177.0,2650.0,17,L,20775283,20775427,146,473.9,533.4,3747,left
9,1,continuous,17,51,trial,20774527.0,20777177.0,2650.0,17,L,20775495,20775721,228,1393.8,533.0,3503,right
9,1,continuous,17,51,trial,20774527.0,20777177.0,2650.0,17,L,20775745,20776057,314,1428.0,589.3,3535,right
9,1,continuous,17,51,trial,20774527.0,20777177.0,2650.0,17,L,20776107,20776329,224,956.2,761.9,3770,likertHorizontal
9,1,continuous,17,51,postResponse,20774527.0,20777177.0,2650.0,17,L,20776363,20777513,1152,964.2,965.8,4257,likertHorizontal
9,1,continuous,18,78,trial,20777877.0,20780877.0,3000.0,18,L,20777613,20778055,444,1008.8,448.3,4810,NA
9,1,continuous,18,78,trial,20777877.0,20780877.0,3000.0,18,L,20778101,20778299,200,1410.4,534.9,4783,right
9,1,continuous,18,78,trial,20777877.0,20780877.0,3000.0,18,L,20778361,20778673,314,505.6,565.2,4118,left
9,1,continuous,18,78,trial,20777877.0,20780877.0,3000.0,18,L,20778699,20778815,118,325.7,572.5,3734,left
9,1,continuous,18,78,trial,20777877.0,20780877.0,3000.0,18,L,20778883,20779229,348,1398.4,495.6,3343,right
9,1,continuous,18,78,trial,20777877.0,20780877.0,3000.0,18,L,20779249,20779463,216,1411.7,558.5,3487,right
9,1,continuous,18,78,trial,20777877.0,20780877.0,3000.0,18,L,20779497,20779931,436,1310.1,411.2,3820,right
9,1,continuous,18,78,trial,20777877.0,20780877.0,3000.0,18,L,20779989,20780909,922,1218.9,989.2,4161,NA
9,1,continuous,18,78,postResponse,20777877.0,20780877.0,3000.0,18,L,20780959,20781213,256,1163.5,554.4,4401,NA
9,1,continuous,19,49,fixationCross,20781577.0,20785310.0,3733.0,19,L,20781289,20781323,36,1162.2,577.5,4365,NA
9,1,continuous,19,49,trial,20781577.0,20785310.0,3733.0,19,L,20781349,20781761,414,965.7,539.3,4532,NA
9,1,continuous,19,49,trial,20781577.0,20785310.0,3733.0,19,L,20781807,20781849,44,1454.8,539.7,4645,right
9,1,continuous,19,49,trial,20781577.0,20785310.0,3733.0,19,L,20782035,20782187,154,1444.7,525.1,4120,right
9,1,continuous,19,49,trial,20781577.0,20785310.0,3733.0,19,L,20782261,20782541,282,450.2,563.8,4120,left
9,1,continuous,19,49,trial,20781577.0,20785310.0,3733.0,19,L,20782557,20782801,246,482.2,508.5,3809,left
9,1,continuous,19,49,trial,20781577.0,20785310.0,3733.0,19,L,20782831,20783051,222,634.9,517.4,3426,left
9,1,continuous,19,49,trial,20781577.0,20785310.0,3733.0,19,L,20783115,20783453,340,1437.9,478.5,3191,right
9,1,continuous,19,49,trial,20781577.0,20785310.0,3733.0,19,L,20783477,20783793,318,1459.8,605.0,3489,right
9,1,continuous,19,49,trial,20781577.0,20785310.0,3733.0,19,L,20783819,20783943,126,1230.9,614.0,3891,right
9,1,continuous,19,49,trial,20781577.0,20785310.0,3733.0,19,L,20783983,20784411,430,957.0,977.4,4061,likertHorizontal
9,1,continuous,19,49,trial,20781577.0,20785310.0,3733.0,19,L,20784421,20784735,316,936.9,977.5,4278,likertHorizontal
9,1,continuous,19,49,trial,20781577.0,20785310.0,3733.0,19,L,20784753,20785575,824,961.7,924.2,4509,likertHorizontal
9,1,continuous,20,61,trial,20786010.0,20791377.0,5367.0,20,L,20785749,20786213,466,936.4,467.6,4599,NA
9,1,continuous,20,61,trial,20786010.0,20791377.0,5367.0,20,L,20786265,20786417,154,1365.6,571.4,4746,right
9,1,continuous,20,61,trial,20786010.0,20791377.0,5367.0,20,L,20786441,20786581,142,1500.7,582.8,4428,right
9,1,continuous,20,61,trial,20786010.0,20791377.0,5367.0,20,L,20786607,20786793,188,1313.9,560.8,4246,right
9,1,continuous,20,61,trial,20786010.0,20791377.0,5367.0,20,L,20786805,20787061,258,1272.4,550.9,4053,right
9,1,continuous,20,61,trial,20786010.0,20791377.0,5367.0,20,L,20787119,20787473,356,474.2,528.2,4024,left
9,1,continuous,20,61,trial,20786010.0,20791377.0,5367.0,20,L,20787495,20787785,292,559.6,566.0,4022,left
9,1,continuous,20,61,trial,20786010.0,20791377.0,5367.0,20,L,20787847,20788167,322,1318.1,531.8,4018,right
9,1,continuous,20,61,trial,20786010.0,20791377.0,5367.0,20,L,20788185,20788349,166,1376.2,556.6,4096,right
9,1,continuous,20,61,trial,20786010.0,20791377.0,5367.0,20,L,20788371,20788833,464,1256.9,549.2,4135,right
9,1,continuous,20,61,trial,20786010.0,20791377.0,5367.0,20,L,20788895,20789347,454,428.3,532.4,3845,left
9,1,continuous,20,61,trial,20786010.0,20791377.0,5367.0,20,L,20789371,20789629,260,592.3,537.0,3846,left
9,1,continuous,20,61,trial,20786010.0,20791377.0,5367.0,20,L,20789655,20789941,288,425.4,561.4,3830,left
9,1,continuous,20,61,trial,20786010.0,20791377.0,5367.0,20,L,20790011,20790217,208,1334.7,514.8,3717,right
9,1,continuous,20,61,trial,20786010.0,20791377.0,5367.0,20,L,20790267,20790447,182,957.1,973.5,3909,likertHorizontal
9,1,continuous,20,61,trial,20786010.0,20791377.0,5367.0,20,L,20790459,20790645,188,1026.8,972.8,4005,likertHorizontal
9,1,continuous,20,61,trial,20786010.0,20791377.0,5367.0,20,L,20790699,20791091,394,1321.6,550.8,4188,right
9,1,continuous,20,61,postResponse,20786010.0,20791377.0,5367.0,20,L,20791103,20791711,610,1253.8,547.7,3830,right
9,1,continuous,21,23,fixationCross,20792094.0,20796244.0,4150.0,21,L,20791811,20791877,68,1249.7,555.6,3767,right
9,1,continuous,21,23,trial,20792094.0,20796244.0,4150.0,21,L,20791923,20792289,368,884.5,513.7,4196,NA
9,1,continuous,21,23,trial,20792094.0,20796244.0,4150.0,21,L,20792337,20792607,272,1364.2,518.7,4217,right
9,1,continuous,21,23,trial,20792094.0,20796244.0,4150.0,21,L,20792621,20792761,142,1380.2,575.8,3856,right
9,1,continuous,21,23,trial,20792094.0,20796244.0,4150.0,21,L,20792821,20793087,268,553.3,532.6,3644,left
9,1,continuous,21,23,trial,20792094.0,20796244.0,4150.0,21,L,20793107,20793285,180,490.2,516.3,3466,left
9,1,continuous,21,23,trial,20792094.0,20796244.0,4150.0,21,L,20793311,20794047,738,590.8,476.6,3762,left
9,1,continuous,21,23,trial,20792094.0,20796244.0,4150.0,21,L,20794073,20794297,226,446.4,520.7,4015,left
9,1,continuous,21,23,trial,20792094.0,20796244.0,4150.0,21,L,20794311,20794601,292,391.8,549.5,3997,left
9,1,continuous,21,23,trial,20792094.0,20796244.0,4150.0,21,L,20794621,20794801,182,494.4,548.7,3904,left
9,1,continuous,21,23,trial,20792094.0,20796244.0,4150.0,21,L,20794873,20795259,388,1404.5,541.2,3706,right
9,1,continuous,21,23,trial,20792094.0,20796244.0,4150.0,21,L,20795287,20795435,150,1540.3,465.3,3552,right
9,1,continuous,21,23,trial,20792094.0,20796244.0,4150.0,21,L,20795505,20795909,406,468.6,1002.5,3516,NA
9,1,continuous,21,23,trial,20792094.0,20796244.0,4150.0,21,L,20795931,20796519,590,627.3,1008.0,3895,NA
9,1,continuous,22,72,trial,20796994.0,20799927.0,2933.0,22,L,20796679,20797021,344,1044.8,385.2,4292,NA
9,1,continuous,22,72,trial,20796994.0,20799927.0,2933.0,22,L,20797045,20797221,178,987.5,515.6,4526,NA
9,1,continuous,22,72,trial,20796994.0,20799927.0,2933.0,22,L,20797265,20797573,310,577.8,512.4,4431,left
9,1,continuous,22,72,trial,20796994.0,20799927.0,2933.0,22,L,20797587,20798167,582,525.4,520.2,3902,left
9,1,continuous,22,72,trial,20796994.0,20799927.0,2933.0,22,L,20798229,20798523,296,1346.4,529.1,3520,right
9,1,continuous,22,72,trial,20796994.0,20799927.0,2933.0,22,L,20798549,20799141,594,1357.5,637.6,3447,right
9,1,continuous,22,72,trial,20796994.0,20799927.0,2933.0,22,L,20799169,20799945,778,1341.2,524.9,3490,right
9,1,continuous,22,72,trial,20796994.0,20799927.0,2933.0,22,L,20800003,20800171,170,564.4,490.0,3817,left
9,1,continuous,23,50,trial,20800611.0,20805210.0,4599.0,23,L,20800409,20800823,416,1076.1,460.3,3821,NA
9,1,continuous,23,50,trial,20800611.0,20805210.0,4599.0,23,L,20800859,20801017,160,1400.4,525.9,4080,right
9,1,continuous,23,50,trial,20800611.0,20805210.0,4599.0,23,L,20801053,20801387,336,1624.6,421.7,3642,right
9,1,continuous,23,50,trial,20800611.0,20805210.0,4599.0,23,L,20801427,20802001,576,1231.1,484.2,3504,right
9,1,continuous,23,50,trial,20800611.0,20805210.0,4599.0,23,L,20802055,20802409,356,542.9,522.3,3626,left
9,1,continuous,23,50,trial,20800611.0,20805210.0,4599.0,23,L,20802439,20802767,330,390.6,544.8,3483,left
9,1,continuous,23,50,trial,20800611.0,20805210.0,4599.0,23,L,20802821,20803087,268,223.7,517.0,3361,left
9,1,continuous,23,50,trial,20800611.0,20805210.0,4599.0,23,L,20803133,20803369,238,632.2,511.3,3522,left
9,1,continuous,23,50,trial,20800611.0,20805210.0,4599.0,23,L,20803393,20803695,304,482.0,549.2,3704,left
9,1,continuous,23,50,trial,20800611.0,20805210.0,4599.0,23,L,20803709,20803969,262,438.3,565.6,3645,left
9,1,continuous,23,50,trial,20800611.0,20805210.0,4599.0,23,L,20804045,20804295,252,1514.5,485.6,3304,right
9,1,continuous,23,50,trial,20800611.0,20805210.0,4599.0,23,L,20804323,20804545,224,1598.3,399.1,3322,right
9,1,continuous,23,50,trial,20800611.0,20805210.0,4599.0,23,L,20804615,20804717,104,871.3,1060.0,3744,likertHorizontal
9,1,continuous,23,50,postResponse,20800611.0,20805210.0,4599.0,23,L,20804735,20805545,812,928.5,967.6,4123,likertHorizontal
9,1,continuous,24,35,trial,20805894.0,20811978.0,6084.0,24,L,20805619,20806063,446,926.4,409.0,4386,NA
9,1,continuous,24,35,trial,20805894.0,20811978.0,6084.0,24,L,20806109,20806347,240,1377.8,533.0,4430,right
9,1,continuous,24,35,trial,20805894.0,20811978.0,6084.0,24,L,20806363,20807145,784,1465.4,508.8,3895,right
9,1,continuous,24,35,trial,20805894.0,20811978.0,6084.0,24,L,20807169,20807331,164,1469.1,588.3,4005,right
9,1,continuous,24,35,trial,20805894.0,20811978.0,6084.0,24,L,20807355,20807693,340,1471.5,492.1,3853,right
9,1,continuous,24,35,trial,20805894.0,20811978.0,6084.0,24,L,20807757,20807917,162,481.5,580.2,4056,left
9,1,continuous,24,35,trial,20805894.0,20811978.0,6084.0,24,L,20807933,20808395,464,447.4,543.5,3933,left
9,1,continuous,24,35,trial,20805894.0,20811978.0,6084.0,24,L,20808469,20809189,722,1450.4,511.8,3535,right
9,1,continuous,24,35,trial,20805894.0,20811978.0,6084.0,24,L,20809201,20809491,292,1464.3,477.0,3459,right
9,1,continuous,24,35,trial,20805894.0,20811978.0,6084.0,24,L,20809519,20809897,380,1488.4,623.3,3471,right
9,1,continuous,24,35,trial,20805894.0,20811978.0,6084.0,24,L,20809921,20810071,152,1371.0,583.9,3543,right
9,1,continuous,24,35,trial,20805894.0,20811978.0,6084.0,24,L,20810097,20810265,170,1273.4,494.6,3524,right
9,1,continuous,24,35,trial,20805894.0,20811978.0,6084.0,24,L,20810329,20810507,180,435.4,491.4,3495,left
9,1,continuous,24,35,trial,20805894.0,20811978.0,6084.0,24,L,20810525,20810931,408,458.6,540.4,3519,left
9,1,continuous,24,35,trial,20805894.0,20811978.0,6084.0,24,L,20810981,20811373,394,862.3,987.7,3683,likertHorizontal
9,1,continuous,24,35,trial,20805894.0,20811978.0,6084.0,24,L,20811397,20811659,264,756.0,998.3,3919,likertHorizontal
9,1,continuous,24,35,trial,20805894.0,20811978.0,6084.0,24,L,20811673,20812191,520,811.3,980.6,4258,likertHorizontal
9,1,continuous,24,35,postResponse,20805894.0,20811978.0,6084.0,24,L,20812275,20812313,40,923.5,457.4,4303,NA
9,1,continuous,25,83,trial,20812694.0,20818011.0,5317.0,25,L,20812387,20812897,512,917.3,493.0,4451,NA
9,1,continuous,25,83,trial,20812694.0,20818011.0,5317.0,25,L,20812939,20813243,306,546.1,510.8,4374,left
9,1,continuous,25,83,trial,20812694.0,20818011.0,5317.0,25,L,20813305,20813647,344,1418.2,529.6,3602,right
9,1,continuous,25,83,trial,20812694.0,20818011.0,5317.0,25,L,20813665,20813761,98,1478.5,532.7,3379,right
9,1,continuous,25,83,trial,20812694.0,20818011.0,5317.0,25,L,20813823,20814001,180,524.1,493.8,3368,left
9,1,continuous,25,83,trial,20812694.0,20818011.0,5317.0,25,L,20814011,20814513,504,493.3,523.6,3372,left
9,1,continuous,25,83,trial,20812694.0,20818011.0,5317.0,25,L,20814579,20814973,396,1346.1,446.2,3450,right
9,1,continuous,25,83,trial,20812694.0,20818011.0,5317.0,25,L,20815031,20815211,182,534.2,509.3,3616,left
9,1,continuous,25,83,trial,20812694.0,20818011.0,5317.0,25,L,20815227,20815635,410,492.4,527.5,3619,left
9,1,continuous,25,83,trial,20812694.0,20818011.0,5317.0,25,L,20815687,20815807,122,703.4,1004.6,3682,NA
9,1,continuous,25,83,trial,20812694.0,20818011.0,5317.0,25,L,20815873,20816247,376,1489.5,492.0,3675,right
9,1,continuous,25,83,trial,20812694.0,20818011.0,5317.0,25,L,20816267,20816725,460,1372.3,493.7,3580,right
9,1,continuous,25,83,trial,20812694.0,20818011.0,5317.0,25,L,20816779,20817003,226,1288.4,926.6,3409,NA
9,1,continuous,25,83,trial,20812694.0,20818011.0,5317.0,25,L,20817019,20817659,642,1349.0,972.7,3795,NA
9,1,continuous,25,83,trial,20812694.0,20818011.0,5317.0,25,L,20817673,20818029,358,1267.9,996.8,4184,NA
9,1,continuous,25,83,trial,20812694.0,20818011.0,5317.0,25,L,20818069,20818291,224,1352.9,673.7,4355,right
9,1,continuous,26,73,fixationCross,20844644.0,20848695.0,4051.0,26,L,20844320,20844454,136,981.5,-22.7,5151,NA
9,1,continuous,26,73,trial,20844644.0,20848695.0,4051.0,26,L,20844512,20844924,414,943.8,550.1,5264,NA
9,1,continuous,26,73,trial,20844644.0,20848695.0,4051.0,26,L,20844970,20845500,532,454.6,562.9,4536,left
9,1,continuous,26,73,trial,20844644.0,20848695.0,4051.0,26,L,20845574,20845838,266,1405.3,425.7,3663,right
9,1,continuous,26,73,trial,20844644.0,20848695.0,4051.0,26,L,20845860,20846316,458,1377.6,503.6,3896,right
9,1,continuous,26,73,trial,20844644.0,20848695.0,4051.0,26,L,20846332,20846390,60,1413.1,486.8,4073,right
9,1,continuous,26,73,trial,20844644.0,20848695.0,4051.0,26,L,20846450,20846642,194,533.9,543.1,4251,left
9,1,continuous,26,73,trial,20844644.0,20848695.0,4051.0,26,L,20846662,20847024,364,450.0,583.5,3958,left
9,1,continuous,26,73,trial,20844644.0,20848695.0,4051.0,26,L,20847074,20847390,318,702.6,1020.6,3681,NA
9,1,continuous,26,73,trial,20844644.0,20848695.0,4051.0,26,L,20847448,20847688,242,551.2,513.9,3776,left
9,1,continuous,26,73,trial,20844644.0,20848695.0,4051.0,26,L,20847748,20847916,170,1335.1,443.5,3701,right
9,1,continuous,26,73,trial,20844644.0,20848695.0,4051.0,26,L,20847938,20848116,180,1331.9,380.1,3687,right
9,1,continuous,26,73,trial,20844644.0,20848695.0,4051.0,26,L,20848142,20848378,238,1368.3,487.3,3907,right
9,1,continuous,26,73,trial,20844644.0,20848695.0,4051.0,26,L,20848412,20848612,202,1581.2,587.4,4155,right
9,1,continuous,26,73,trial,20844644.0,20848695.0,4051.0,26,L,20848628,20848794,168,1537.3,635.0,4216,right
9,1,continuous,26,73,postResponse,20844644.0,20848695.0,4051.0,26,L,20848830,20849028,200,1225.5,725.9,4310,right
9,1,continuous,27,1,trial,20849361.0,20850711.0,1350.0,27,L,20849116,20849554,440,893.8,443.9,4462,NA
9,1,continuous,27,1,trial,20849361.0,20850711.0,1350.0,27,L,20849600,20849738,140,1308.1,499.4,4613,right
9,1,continuous,27,1,trial,20849361.0,20850711.0,1350.0,27,L,20849770,20849918,150,1504.0,578.0,4307,right
9,1,continuous,27,1,trial,20849361.0,20850711.0,1350.0,27,L,20849984,20850256,274,478.0,565.9,4147,left
9,1,continuous,27,1,trial,20849361.0,20850711.0,1350.0,27,L,20850306,20850512,208,475.3,986.6,3991,NA
9,1,continuous,27,1,trial,20849361.0,20850711.0,1350.0,27,L,20850526,20850618,94,408.9,994.9,4067,NA
9,1,continuous,27,1,postResponse,20849361.0,20850711.0,1350.0,27,L,20850664,20851046,384,472.3,547.5,4302,left
9,1,continuous,28,14,fixationCross,20851394.0,20854994.0,3600.0,28,L,20851146,20851318,174,1150.4,462.7,4424,NA
9,1,continuous,28,14,trial,20851394.0,20854994.0,3600.0,28,L,20851342,20851594,254,1020.1,558.4,4623,NA
9,1,continuous,28,14,trial,20851394.0,20854994.0,3600.0,28,L,20851644,20851968,326,1485.7,497.3,4560,right
9,1,continuous,28,14,trial,20851394.0,20854994.0,3600.0,28,L,20852048,20852304,258,487.0,495.9,4382,left
9,1,continuous,28,14,trial,20851394.0,20854994.0,3600.0,28,L,20852326,20852498,174,576.3,458.5,4240,left
9,1,continuous,28,14,trial,20851394.0,20854994.0,3600.0,28,L,20852566,20852778,214,1450.9,497.6,4023,right
9,1,continuous,28,14,trial,20851394.0,20854994.0,3600.0,28,L,20852788,20852932,146,1472.0,492.3,3947,right
9,1,continuous,28,14,trial,20851394.0,20854994.0,3600.0,28,L,20852968,20853186,220,1277.7,704.4,4109,right
9,1,continuous,28,14,trial,20851394.0,20854994.0,3600.0,28,L,20853224,20853292,70,1245.4,941.4,4155,NA
9,1,continuous,28,14,trial,20851394.0,20854994.0,3600.0,28,L,20853354,20853572,220,424.5,519.3,4233,left
9,1,continuous,28,14,trial,20851394.0,20854994.0,3600.0,28,L,20853596,20853720,126,534.7,440.4,4348,left
9,1,continuous,28,14,trial,20851394.0,20854994.0,3600.0,28,L,20853746,20854278,534,345.8,466.6,4418,left
9,1,continuous,28,14,trial,20851394.0,20854994.0,3600.0,28,L,20854332,20854692,362,530.2,978.5,4363,NA
9,1,continuous,28,14,trial,20851394.0,20854994.0,3600.0,28,L,20854748,20855300,554,543.5,449.7,4231,left
9,1,continuous,29,18,fixationCross,20855712.0,20860128.0,4416.0,29,L,20855430,20855556,128,1171.5,619.7,4239,NA
9,1,continuous,29,18,trial,20855712.0,20860128.0,4416.0,29,L,20855584,20855880,298,988.4,578.2,4489,NA
9,1,continuous,29,18,trial,20855712.0,20860128.0,4416.0,29,L,20855924,20856226,304,1391.9,524.2,4450,right
9,1,continuous,29,18,trial,20855712.0,20860128.0,4416.0,29,L,20856252,20856612,362,1512.8,563.4,3855,right
9,1,continuous,29,18,trial,20855712.0,20860128.0,4416.0,29,L,20856686,20856936,252,340.8,566.8,3758,left
9,1,continuous,29,18,trial,20855712.0,20860128.0,4416.0,29,L,20856970,20857628,660,507.9,504.9,3591,left
9,1,continuous,29,18,trial,20855712.0,20860128.0,4416.0,29,L,20857664,20857850,188,305.6,579.7,3630,left
9,1,continuous,29,18,trial,20855712.0,20860128.0,4416.0,29,L,20857868,20858094,228,284.0,539.4,3606,left
9,1,continuous,29,18,trial,20855712.0,20860128.0,4416.0,29,L,20858136,20858558,424,592.7,454.2,3604,left
9,1,continuous,29,18,trial,20855712.0,20860128.0,4416.0,29,L,20858574,20858738,166,660.9,462.1,3590,left
9,1,continuous,29,18,trial,20855712.0,20860128.0,4416.0,29,L,20858758,20859258,502,580.2,465.1,3570,left
9,1,continuous,29,18,trial,20855712.0,20860128.0,4416.0,29,L,20859310,20859502,194,565.5,939.6,3594,NA
9,1,continuous,29,18,trial,20855712.0,20860128.0,4416.0,29,L,20859516,20860328,814,570.2,1002.9,3947,NA
9,1,continuous,29,18,postResponse,20855712.0,20860128.0,4416.0,29,L,20860388,20860462,76,1000.9,398.3,4111,NA
9,1,continuous,30,18,fixationCross,20860811.0,20862495.0,1684.0,30,L,20860538,20860606,70,987.0,434.0,4142,NA
9,1,continuous,30,18,trial,20860811.0,20862495.0,1684.0,30,L,20860630,20860980,352,915.2,557.3,4334,NA
9,1,continuous,30,18,trial,20860811.0,20862495.0,1684.0,30,L,20861024,20861222,200,1368.4,529.7,4517,right
9,1,continuous,30,18,trial,20860811.0,20862495.0,1684.0,30,L,20861246,20861474,230,1497.0,544.5,4122,right
9,1,continuous,30,18,trial,20860811.0,20862495.0,1684.0,30,L,20861546,20861694,150,493.7,491.0,3834,left
9,1,continuous,30,18,trial,20860811.0,20862495.0,1684.0,30,L,20861718,20862004,288,604.6,460.6,3599,left
9,1,continuous,30,18,trial,20860811.0,20862495.0,1684.0,30,L,20862058,20862702,646,631.1,962.0,3755,NA
9,1,continuous,30,18,postResponse,20860811.0,20862495.0,1684.0,30,L,20862756,20862830,76,971.3,560.3,4113,NA
9,1,continuous,31,49,trial,20863195.0,20867961.0,4766.0,31,L,20862904,20863372,470,960.8,599.1,4319,NA
9,1,continuous,31,49,trial,20863195.0,20867961.0,4766.0,31,L,20863416,20863696,282,1384.9,552.6,4404,right
9,1,continuous,31,49,trial,20863195.0,20867961.0,4766.0,31,L,20863762,20864340,580,484.1,464.6,3687,left
9,1,continuous,31,49,trial,20863195.0,20867961.0,4766.0,31,L,20864380,20864784,406,284.2,637.9,3647,left
9,1,continuous,31,49,trial,20863195.0,20867961.0,4766.0,31,L,20864826,20864986,162,508.8,434.0,3903,left
9,1,continuous,31,49,trial,20863195.0,20867961.0,4766.0,31,L,20865004,20865266,264,423.0,417.0,3944,left
9,1,continuous,31,49,trial,20863195.0,20867961.0,4766.0,31,L,20865290,20865528,240,395.4,519.8,4048,left
9,1,continuous,31,49,trial,20863195.0,20867961.0,4766.0,31,L,20865550,20865772,224,535.7,555.2,4148,left
9,1,continuous,31,49,trial,20863195.0,20867961.0,4766.0,31,L,20865842,20866112,272,1477.9,504.7,4036,right
9,1,continuous,31,49,trial,20863195.0,20867961.0,4766.0,31,L,20866136,20866330,196,1343.2,565.1,4067,right
9,1,continuous,31,49,trial,20863195.0,20867961.0,4766.0,31,L,20866376,20866764,390,1245.9,1010.1,4056,NA
9,1,continuous,31,49,trial,20863195.0,20867961.0,4766.0,31,L,20866790,20867268,480,1046.2,965.1,3925,likertHorizontal
9,1,continuous,31,49,trial,20863195.0,20867961.0,4766.0,31,L,20867286,20868252,968,935.8,979.8,4369,likertHorizontal
9,1,continuous,32,83,trial,20868645.0,20871495.0,2850.0,32,L,20868372,20868856,486,939.5,502.7,4511,NA
9,1,continuous,32,83,trial,20868645.0,20871495.0,2850.0,32,L,20868906,20869146,242,1348.9,529.7,4471,right
9,1,continuous,32,83,trial,20868645.0,20871495.0,2850.0,32,L,20869180,20869424,246,1500.3,467.1,3885,right
9,1,continuous,32,83,trial,20868645.0,20871495.0,2850.0,32,L,20869446,20869882,438,1421.6,478.5,3613,right
9,1,continuous,32,83,trial,20868645.0,20871495.0,2850.0,32,L,20869952,20870174,224,431.9,566.1,3607,left
9,1,continuous,32,83,trial,20868645.0,20871495.0,2850.0,32,L,20870202,20870554,354,569.4,479.6,3608,left
9,1,continuous,32,83,trial,20868645.0,20871495.0,2850.0,32,L,20870616,20870818,204,1291.4,861.3,3616,NA
9,1,continuous,32,83,trial,20868645.0,20871495.0,2850.0,32,L,20870838,20871466,630,1257.0,959.5,3929,NA
9,1,continuous,32,83,trial,20868645.0,20871495.0,2850.0,32,L,20871514,20871748,236,1266.9,502.0,4214,right
9,1,continuous,33,20,trial,20872195.0,20874628.0,2433.0,33,L,20871936,20872422,488,961.5,540.1,4421,NA
9,1,continuous,33,20,trial,20872195.0,20874628.0,2433.0,33,L,20872474,20872804,332,1428.0,471.3,4123,right
9,1,continuous,33,20,trial,20872195.0,20874628.0,2433.0,33,L,20872832,20872968,138,1590.6,513.9,3587,right
9,1,continuous,33,20,trial,20872195.0,20874628.0,2433.0,33,L,20873036,20873296,262,517.8,480.2,3478,left
9,1,continuous,33,20,trial,20872195.0,20874628.0,2433.0,33,L,20873324,20873732,410,456.9,372.5,3318,left
9,1,continuous,33,20,trial,20872195.0,20874628.0,2433.0,33,L,20873776,20874188,414,450.4,667.3,3294,left
9,1,continuous,33,20,trial,20872195.0,20874628.0,2433.0,33,L,20874232,20874458,228,583.2,999.5,3352,NA
9,1,continuous,33,20,trial,20872195.0,20874628.0,2433.0,33,L,20874470,20874668,200,615.6,978.8,3391,NA
9,1,continuous,33,20,trial,20872195.0,20874628.0,2433.0,33,L,20874734,20874938,206,1469.6,492.0,3538,right
9,1,continuous,34,24,fixationCross,20875345.0,20880228.0,4883.0,34,L,20875062,20875158,98,1037.4,515.3,3730,NA
9,1,continuous,34,24,trial,20875345.0,20880228.0,4883.0,34,L,20875186,20875530,346,848.7,568.8,4084,NA
9,1,continuous,34,24,trial,20875345.0,20880228.0,4883.0,34,L,20875570,20875922,354,525.9,494.5,4251,left
9,1,continuous,34,24,trial,20875345.0,20880228.0,4883.0,34,L,20875988,20876260,274,1405.0,487.9,3732,right
9,1,continuous,34,24,trial,20875345.0,20880228.0,4883.0,34,L,20876282,20876438,158,1477.3,481.0,3668,right
9,1,continuous,34,24,trial,20875345.0,20880228.0,4883.0,34,L,20876464,20876612,150,1433.5,391.1,3788,right
9,1,continuous,34,24,trial,20875345.0,20880228.0,4883.0,34,L,20876678,20876972,296,504.2,453.8,3953,left
9,1,continuous,34,24,trial,20875345.0,20880228.0,4883.0,34,L,20876988,20877606,620,534.8,503.8,4001,left
9,1,continuous,34,24,trial,20875345.0,20880228.0,4883.0,34,L,20877628,20878260,634,515.7,479.1,3909,left
9,1,continuous,34,24,trial,20875345.0,20880228.0,4883.0,34,L,20878328,20878708,382,1429.1,483.0,3652,right
9,1,continuous,34,24,trial,20875345.0,20880228.0,4883.0,34,L,20878734,20879020,288,1456.4,400.0,3700,right
9,1,continuous,34,24,trial,20875345.0,20880228.0,4883.0,34,L,20879092,20879306,216,600.3,1025.1,3860,NA
9,1,continuous,34,24,trial,20875345.0,20880228.0,4883.0,34,L,20879368,20879594,228,1381.8,634.6,3767,right
9,1,continuous,34,24,trial,20875345.0,20880228.0,4883.0,34,L,20879622,20880462,842,1414.7,505.9,3802,right
9,1,continuous,35,70,fixationCross,20880912.0,20884995.0,4083.0,35,L,20880638,20880830,194,813.5,526.3,4049,NA
9,1,continuous,35,70,trial,20880912.0,20884995.0,4083.0,35,L,20880850,20881110,262,898.6,522.4,4299,NA
9,1,continuous,35,70,trial,20880912.0,20884995.0,4083.0,35,L,20881164,20881302,140,1464.0,531.3,4415,right
9,1,continuous,35,70,trial,20880912.0,20884995.0,4083.0,35,L,20881326,20881544,220,1574.1,503.0,3986,right
9,1,continuous,35,70,trial,20880912.0,20884995.0,4083.0,35,L,20881612,20881934,324,491.5,542.5,3769,left
9,1,continuous,35,70,trial,20880912.0,20884995.0,4083.0,35,L,20881952,20882176,226,428.1,569.7,3682,left
9,1,continuous,35,70,trial,20880912.0,20884995.0,4083.0,35,L,20882200,20882354,156,608.8,557.8,3597,left
9,1,continuous,35,70,trial,20880912.0,20884995.0,4083.0,35,L,20882420,20882634,216,1512.3,511.9,3493,right
9,1,continuous,35,70,trial,20880912.0,20884995.0,4083.0,35,L,20882656,20883280,626,1625.1,495.8,3443,right
9,1,continuous,35,70,trial,20880912.0,20884995.0,4083.0,35,L,20883318,20883806,490,1351.2,558.7,3580,right
9,1,continuous,35,70,trial,20880912.0,20884995.0,4083.0,35,L,20883852,20883942,92,1281.7,1045.0,3917,NA
9,1,continuous,35,70,trial,20880912.0,20884995.0,4083.0,35,L,20883956,20884314,360,1260.6,991.3,3915,NA
9,1,continuous,35,70,trial,20880912.0,20884995.0,4083.0,35,L,20884334,20885246,914,1134.8,964.7,4154,likertHorizontal
9,1,continuous,36,22,trial,20885679.0,20890645.0,4966.0,36,L,20885406,20885866,462,907.2,456.5,4340,NA
9,1,continuous,36,22,trial,20885679.0,20890645.0,4966.0,36,L,20885914,20886106,194,1391.0,555.8,4460,right
9,1,continuous,36,22,trial,20885679.0,20890645.0,4966.0,36,L,20886120,20886704,586,1437.7,562.1,3665,right
9,1,continuous,36,22,trial,20885679.0,20890645.0,4966.0,36,L,20886768,20887018,252,539.4,503.0,3152,left
9,1,continuous,36,22,trial,20885679.0,20890645.0,4966.0,36,L,20887054,20887270,218,349.4,548.0,3204,left
9,1,continuous,36,22,trial,20885679.0,20890645.0,4966.0,36,L,20887300,20887756,458,479.6,429.7,3333,left
9,1,continuous,36,22,trial,20885679.0,20890645.0,4966.0,36,L,20887794,20887998,206,549.6,621.3,3404,left
9,1,continuous,36,22,trial,20885679.0,20890645.0,4966.0,36,L,20888066,20889004,940,1428.6,541.1,3439,right
9,1,continuous,36,22,trial,20885679.0,20890645.0,4966.0,36,L,20889030,20889640,612,1513.1,467.0,3430,right
9,1,continuous,36,22,trial,20885679.0,20890645.0,4966.0,36,L,20889660,20890156,498,1438.5,549.1,3778,right
9,1,continuous,36,22,trial,20885679.0,20890645.0,4966.0,36,L,20890226,20890306,82,606.9,1090.0,3977,NA
9,1,continuous,36,22,trial,20885679.0,20890645.0,4966.0,36,L,20890328,20890466,140,672.2,994.6,4061,NA
9,1,continuous,36,22,trial,20885679.0,20890645.0,4966.0,36,L,20890516,20890886,372,626.1,529.7,4101,left
9,1,continuous,36,22,postResponse,20885679.0,20890645.0,4966.0,36,L,20890924,20890982,60,988.0,499.8,4232,NA
9,1,continuous,37,71,trial,20891345.0,20897595.0,6250.0,37,L,20891082,20891550,470,976.0,509.2,4377,NA
9,1,continuous,37,71,trial,20891345.0,20897595.0,6250.0,37,L,20891602,20891800,200,581.5,497.8,4571,left
9,1,continuous,37,71,trial,20891345.0,20897595.0,6250.0,37,L,20891822,20892056,236,688.6,450.2,4201,left
9,1,continuous,37,71,trial,20891345.0,20897595.0,6250.0,37,L,20892080,20892214,136,515.0,463.0,3996,left
9,1,continuous,37,71,trial,20891345.0,20897595.0,6250.0,37,L,20892274,20892490,218,1291.8,524.7,3695,right
9,1,continuous,37,71,trial,20891345.0,20897595.0,6250.0,37,L,20892532,20892848,318,1514.6,440.9,3562,right
9,1,continuous,37,71,trial,20891345.0,20897595.0,6250.0,37,L,20892880,20893126,248,1307.1,510.5,3694,right
9,1,continuous,37,71,trial,20891345.0,20897595.0,6250.0,37,L,20893144,20893392,250,1357.4,464.7,3685,right
9,1,continuous,37,71,trial,20891345.0,20897595.0,6250.0,37,L,20893486,20893520,36,542.2,460.6,3842,left
9,1,continuous,37,71,trial,20891345.0,20897595.0,6250.0,37,L,20893706,20893866,162,569.8,477.9,3772,left
9,1,continuous,37,71,trial,20891345.0,20897595.0,6250.0,37,L,20893882,20894140,260,516.6,475.3,3912,left
9,1,continuous,37,71,trial,20891345.0,20897595.0,6250.0,37,L,20894162,20895802,1642,654.3,489.2,4090,left
9,1,continuous,37,71,trial,20891345.0,20897595.0,6250.0,37,L,20895822,20896198,378,573.7,494.9,4209,left
9,1,continuous,37,71,trial,20891345.0,20897595.0,6250.0,37,L,20896226,20896378,154,621.8,623.0,4057,left
9,1,continuous,37,71,trial,20891345.0,20897595.0,6250.0,37,L,20896444,20896680,238,1432.6,506.1,3914,right
9,1,continuous,37,71,trial,20891345.0,20897595.0,6250.0,37,L,20896706,20897134,430,1526.1,452.6,3931,right
9,1,continuous,37,71,trial,20891345.0,20897595.0,6250.0,37,L,20897168,20897506,340,1280.6,576.4,4089,right
9,1,continuous,37,71,trial,20891345.0,20897595.0,6250.0,37,L,20897552,20897870,320,1177.2,929.3,4051,likertHorizontal
9,1,continuous,38,100,trial,20898295.0,20900879.0,2584.0,38,L,20898004,20898508,506,929.8,478.6,4428,NA
9,1,continuous,38,100,trial,20898295.0,20900879.0,2584.0,38,L,20898552,20898898,348,566.4,522.6,4443,left
9,1,continuous,38,100,trial,20898295.0,20900879.0,2584.0,38,L,20898922,20899072,152,424.1,517.3,3898,left
9,1,continuous,38,100,trial,20898295.0,20900879.0,2584.0,38,L,20899140,20899380,242,1334.4,590.6,3454,right
9,1,continuous,38,100,trial,20898295.0,20900879.0,2584.0,38,L,20899402,20899764,364,1420.9,624.8,3398,right
9,1,continuous,38,100,trial,20898295.0,20900879.0,2584.0,38,L,20899806,20900064,260,1239.7,951.4,3481,NA
9,1,continuous,38,100,trial,20898295.0,20900879.0,2584.0,38,L,20900084,20900504,422,1371.9,970.8,3636,NA
9,1,continuous,38,100,trial,20898295.0,20900879.0,2584.0,38,L,20900554,20901132,580,1462.2,595.5,3966,right
9,1,continuous,39,50,trial,20901545.0,20905928.0,4383.0,39,L,20901288,20901716,430,854.0,531.6,3904,NA
9,1,continuous,39,50,trial,20901545.0,20905928.0,4383.0,39,L,20901766,20901956,192,1390.5,545.1,4290,right
9,1,continuous,39,50,trial,20901545.0,20905928.0,4383.0,39,L,20901966,20902080,116,1345.8,563.5,4119,right
9,1,continuous,39,50,trial,20901545.0,20905928.0,4383.0,39,L,20902140,20902546,408,476.2,515.6,3920,left
9,1,continuous,39,50,trial,20901545.0,20905928.0,4383.0,39,L,20902568,20902856,290,399.3,575.9,3721,left
9,1,continuous,39,50,trial,20901545.0,20905928.0,4383.0,39,L,20902872,20903038,168,488.8,561.9,3679,left
9,1,continuous,39,50,trial,20901545.0,20905928.0,4383.0,39,L,20903108,20903336,230,1385.6,559.1,3546,right
9,1,continuous,39,50,trial,20901545.0,20905928.0,4383.0,39,L,20903346,20904638,1294,1342.6,563.4,3666,right
9,1,continuous,39,50,trial,20901545.0,20905928.0,4383.0,39,L,20904686,20904820,136,1199.5,1014.9,3800,NA
9,1,continuous,39,50,trial,20901545.0,20905928.0,4383.0,39,L,20904844,20905098,256,1068.9,957.6,3951,likertHorizontal
9,1,continuous,39,50,trial,20901545.0,20905928.0,4383.0,39,L,20905118,20905370,254,975.2,974.2,4162,likertHorizontal
9,1,continuous,39,50,trial,20901545.0,20905928.0,4383.0,39,L,20905386,20906234,850,872.0,987.1,4289,likertHorizontal
9,1,continuous,40,89,trial,20906645.0,20908945.0,2300.0,40,L,20906362,20906712,352,998.5,422.3,4419,NA
9,1,continuous,40,89,trial,20906645.0,20908945.0,2300.0,40,L,20906732,20906848,118,970.3,505.7,4594,NA
9,1,continuous,40,89,trial,20906645.0,20908945.0,2300.0,40,L,20906894,20907120,228,532.6,518.5,4617,left
9,1,continuous,40,89,trial,20906645.0,20908945.0,2300.0,40,L,20907138,20907306,170,619.1,548.7,4149,left
9,1,continuous,40,89,trial,20906645.0,20908945.0,2300.0,40,L,20907332,20907508,178,469.3,529.0,3796,left
9,1,continuous,40,89,trial,20906645.0,20908945.0,2300.0,40,L,20907570,20907770,202,1318.7,464.3,3434,right
9,1,continuous,40,89,trial,20906645.0,20908945.0,2300.0,40,L,20907796,20908360,566,1459.0,526.4,3423,right
9,1,continuous,40,89,trial,20906645.0,20908945.0,2300.0,40,L,20908404,20908584,182,1362.9,915.7,3701,NA
9,1,continuous,40,89,trial,20906645.0,20908945.0,2300.0,40,L,20908602,20908904,304,1327.7,972.1,3958,NA
9,1,continuous,40,89,postResponse,20906645.0,20908945.0,2300.0,40,L,20908950,20909280,332,1382.9,516.4,4278,right
9,1,continuous,41,17,trial,20909628.0,20914328.0,4700.0,41,L,20909354,20909806,454,900.2,543.4,4464,NA
9,1,continuous,41,17,trial,20909628.0,20914328.0,4700.0,41,L,20909870,20910024,156,1364.8,541.9,4439,right
9,1,continuous,41,17,trial,20909628.0,20914328.0,4700.0,41,L,20910050,20910284,236,1495.0,489.8,4086,right
9,1,continuous,41,17,trial,20909628.0,20914328.0,4700.0,41,L,20910304,20910668,366,1381.2,463.4,3684,right
9,1,continuous,41,17,trial,20909628.0,20914328.0,4700.0,41,L,20910692,20910898,208,1478.2,408.1,3426,right
9,1,continuous,41,17,trial,20909628.0,20914328.0,4700.0,41,L,20910916,20911024,110,1527.6,453.8,3447,right
9,1,continuous,41,17,trial,20909628.0,20914328.0,4700.0,41,L,20911090,20911358,270,527.1,598.5,3746,left
9,1,continuous,41,17,trial,20909628.0,20914328.0,4700.0,41,L,20911380,20912050,672,426.5,605.6,3631,left
9,1,continuous,41,17,trial,20909628.0,20914328.0,4700.0,41,L,20912076,20912358,284,420.6,478.5,3575,left
9,1,continuous,41,17,trial,20909628.0,20914328.0,4700.0,41,L,20912380,20912658,280,300.4,499.2,3547,left
9,1,continuous,41,17,trial,20909628.0,20914328.0,4700.0,41,L,20912758,20913002,246,1395.0,471.8,3514,right
9,1,continuous,41,17,trial,20909628.0,20914328.0,4700.0,41,L,20913022,20913192,172,1498.3,473.4,3490,right
9,1,continuous,41,17,trial,20909628.0,20914328.0,4700.0,41,L,20913204,20913400,198,1536.4,491.5,3529,right
9,1,continuous,41,17,trial,20909628.0,20914328.0,4700.0,41,L,20913474,20913848,376,445.1,999.2,3678,NA
9,1,continuous,41,17,trial,20909628.0,20914328.0,4700.0,41,L,20913874,20914146,274,607.9,951.8,3671,NA
9,1,continuous,41,17,trial,20909628.0,20914328.0,4700.0,41,L,20914162,20914520,360,565.8,995.6,3829,NA
9,1,continuous,42,100,trial,20915062.0,20917295.0,2233.0,42,L,20914764,20915254,492,1020.9,522.6,4169,NA
9,1,continuous,42,100,trial,20915062.0,20917295.0,2233.0,42,L,20915296,20915500,206,1392.5,486.1,4268,right
9,1,continuous,42,100,trial,20915062.0,20917295.0,2233.0,42,L,20915516,20915762,248,1383.6,434.9,3877,right
9,1,continuous,42,100,trial,20915062.0,20917295.0,2233.0,42,L,20915828,20916024,198,397.6,557.8,3804,left
9,1,continuous,42,100,trial,20915062.0,20917295.0,2233.0,42,L,20916058,20916272,216,644.0,447.9,3701,left
9,1,continuous,42,100,trial,20915062.0,20917295.0,2233.0,42,L,20916282,20916470,190,602.5,450.9,3852,left
9,1,continuous,42,100,trial,20915062.0,20917295.0,2233.0,42,L,20916520,20916920,402,290.9,530.1,4036,left
9,1,continuous,42,100,trial,20915062.0,20917295.0,2233.0,42,L,20916994,20917214,222,1424.0,411.9,3822,right
9,1,continuous,42,100,trial,20915062.0,20917295.0,2233.0,42,L,20917226,20917584,360,1388.0,451.5,3781,right
9,1,continuous,43,80,trial,20917979.0,20920078.0,2099.0,43,L,20917706,20918168,464,975.3,640.4,4185,NA
9,1,continuous,43,80,trial,20917979.0,20920078.0,2099.0,43,L,20918222,20918372,152,514.4,578.6,4402,left
9,1,continuous,43,80,trial,20917979.0,20920078.0,2099.0,43,L,20918394,20918546,154,434.5,594.0,4151,left
9,1,continuous,43,80,trial,20917979.0,20920078.0,2099.0,43,L,20918608,20918800,194,1338.8,556.9,3935,right
9,1,continuous,43,80,trial,20917979.0,20920078.0,2099.0,43,L,20918816,20919356,542,1379.4,565.4,3656,right
9,1,continuous,43,80,trial,20917979.0,20920078.0,2099.0,43,L,20919406,20919894,490,1174.8,953.4,3608,likertHorizontal
9,1,continuous,43,80,trial,20917979.0,20920078.0,2099.0,43,L,20919906,20920134,230,1222.6,979.0,3973,NA
9,1,continuous,43,80,postResponse,20917979.0,20920078.0,2099.0,43,L,20920198,20920414,218,357.0,535.5,4212,left
9,1,continuous,44,56,trial,20920795.0,20924512.0,3717.0,44,L,20920522,20920974,454,965.6,567.1,4309,NA
9,1,continuous,44,56,trial,20920795.0,20924512.0,3717.0,44,L,20921020,20921178,160,1421.9,533.4,4392,right
9,1,continuous,44,56,trial,20920795.0,20924512.0,3717.0,44,L,20921192,20921508,318,1423.6,485.8,3875,right
9,1,continuous,44,56,trial,20920795.0,20924512.0,3717.0,44,L,20921570,20921792,224,525.9,559.5,3431,left
9,1,continuous,44,56,trial,20920795.0,20924512.0,3717.0,44,L,20921802,20922342,542,504.3,550.1,3356,left
9,1,continuous,44,56,trial,20920795.0,20924512.0,3717.0,44,L,20922380,20922606,228,289.6,504.8,3388,left
9,1,continuous,44,56,trial,20920795.0,20924512.0,3717.0,44,L,20922634,20922940,308,492.1,544.7,3416,left
9,1,continuous,44,56,trial,20920795.0,20924512.0,3717.0,44,L,20923008,20923228,222,1474.6,454.2,3446,right
9,1,continuous,44,56,trial,20920795.0,20924512.0,3717.0,44,L,20923240,20923824,586,1422.8,443.2,3357,right
9,1,continuous,44,56,trial,20920795.0,20924512.0,3717.0,44,L,20923852,20924036,186,1278.6,559.9,3331,right
9,1,continuous,44,56,trial,20920795.0,20924512.0,3717.0,44,L,20924084,20924208,126,1090.1,979.6,3407,likertHorizontal
9,1,continuous,44,56,trial,20920795.0,20924512.0,3717.0,44,L,20924228,20924762,536,988.6,976.2,3673,likertHorizontal
9,1,continuous,45,80,trial,20925212.0,20929579.0,4367.0,45,L,20924946,20925420,476,946.1,520.3,4170,NA
9,1,continuous,45,80,trial,20925212.0,20929579.0,4367.0,45,L,20925476,20925782,308,533.9,575.6,4339,left
9,1,continuous,45,80,trial,20925212.0,20929579.0,4367.0,45,L,20925806,20925904,100,403.9,610.4,4009,left
9,1,continuous,45,80,trial,20925212.0,20929579.0,4367.0,45,L,20925972,20926160,190,1409.3,534.2,3575,right
9,1,continuous,45,80,trial,20925212.0,20929579.0,4367.0,45,L,20926184,20926822,640,1453.2,474.5,3435,right
9,1,continuous,45,80,trial,20925212.0,20929579.0,4367.0,45,L,20926848,20927098,252,1322.5,563.0,3620,right
9,1,continuous,45,80,trial,20925212.0,20929579.0,4367.0,45,L,20927158,20927478,322,455.8,621.7,3868,left
9,1,continuous,45,80,trial,20925212.0,20929579.0,4367.0,45,L,20927496,20927836,342,369.0,607.7,3628,left
9,1,continuous,45,80,trial,20925212.0,20929579.0,4367.0,45,L,20927870,20928318,450,526.3,519.6,3391,left
9,1,continuous,45,80,trial,20925212.0,20929579.0,4367.0,45,L,20928386,20928774,390,1316.7,570.8,3404,right
9,1,continuous,45,80,trial,20925212.0,20929579.0,4367.0,45,L,20928798,20928970,174,1425.0,493.6,3571,right
9,1,continuous,45,80,trial,20925212.0,20929579.0,4367.0,45,L,20928980,20929252,274,1442.2,479.9,3724,right
9,1,continuous,45,80,trial,20925212.0,20929579.0,4367.0,45,L,20929302,20929762,462,1217.7,992.7,3883,NA
9,1,continuous,46,78,trial,20930263.0,20933946.0,3683.0,46,L,20929990,20930454,466,970.6,557.3,4374,NA
9,1,continuous,46,78,trial,20930263.0,20933946.0,3683.0,46,L,20930502,20930658,158,1403.2,485.7,4452,right
9,1,continuous,46,78,trial,20930263.0,20933946.0,3683.0,46,L,20930684,20931070,388,1400.0,384.3,4004,right
9,1,continuous,46,78,trial,20930263.0,20933946.0,3683.0,46,L,20931094,20931264,172,1390.5,503.6,3910,right
9,1,continuous,46,78,trial,20930263.0,20933946.0,3683.0,46,L,20931322,20931740,420,535.8,531.4,3995,left
9,1,continuous,46,78,trial,20930263.0,20933946.0,3683.0,46,L,20931764,20932168,406,611.7,458.7,3730,left
9,1,continuous,46,78,trial,20930263.0,20933946.0,3683.0,46,L,20932206,20932328,124,393.2,552.0,3632,left
9,1,continuous,46,78,trial,20930263.0,20933946.0,3683.0,46,L,20932400,20932726,328,1371.1,494.6,3532,right
9,1,continuous,46,78,trial,20930263.0,20933946.0,3683.0,46,L,20932754,20933070,318,1405.4,383.5,3646,right
9,1,continuous,46,78,trial,20930263.0,20933946.0,3683.0,46,L,20933120,20933262,144,1163.0,938.8,3927,likertHorizontal
9,1,continuous,46,78,trial,20930263.0,20933946.0,3683.0,46,L,20933280,20933428,150,1109.6,962.9,4032,likertHorizontal
9,1,continuous,46,78,trial,20930263.0,20933946.0,3683.0,46,L,20933444,20934210,768,1203.1,962.1,4292,NA
9,1,continuous,47,100,trial,20934613.0,20937029.0,2416.0,47,L,20934354,20934684,332,1174.4,461.3,4446,NA
9,1,continuous,47,100,trial,20934613.0,20937029.0,2416.0,47,L,20934716,20934842,128,973.8,526.8,4613,NA
9,1,continuous,47,100,trial,20934613.0,20937029.0,2416.0,47,L,20934896,20935004,110,519.9,529.0,4688,left
9,1,continuous,47,100,trial,20934613.0,20937029.0,2416.0,47,L,20935160,20935296,138,440.3,541.2,4290,left
9,1,continuous,47,100,trial,20934613.0,20937029.0,2416.0,47,L,20935364,20935576,214,1438.1,517.3,3930,right
9,1,continuous,47,100,trial,20934613.0,20937029.0,2416.0,47,L,20935596,20935812,218,1436.3,589.3,3775,right
9,1,continuous,47,100,trial,20934613.0,20937029.0,2416.0,47,L,20935850,20936066,218,1316.8,384.7,3937,right
9,1,continuous,47,100,trial,20934613.0,20937029.0,2416.0,47,L,20936132,20936930,800,435.4,537.4,4143,left
9,1,continuous,47,100,trial,20934613.0,20937029.0,2416.0,47,L,20937004,20937228,226,1450.9,882.6,3989,NA
9,1,continuous,47,100,postResponse,20934613.0,20937029.0,2416.0,47,L,20937286,20937364,80,978.2,485.6,3973,NA
9,1,continuous,48,25,trial,20937712.0,20940779.0,3067.0,48,L,20937438,20937792,356,994.0,515.0,4210,NA
9,1,continuous,48,25,trial,20937712.0,20940779.0,3067.0,48,L,20937804,20937894,92,949.4,526.1,4473,NA
9,1,continuous,48,25,trial,20937712.0,20940779.0,3067.0,48,L,20937950,20938496,548,412.7,590.8,4044,left
9,1,continuous,48,25,trial,20937712.0,20940779.0,3067.0,48,L,20938562,20938778,218,1346.3,474.6,3301,right
9,1,continuous,48,25,trial,20937712.0,20940779.0,3067.0,48,L,20938806,20939056,252,1465.6,419.5,3159,right
9,1,continuous,48,25,trial,20937712.0,20940779.0,3067.0,48,L,20939084,20939258,176,1297.5,522.2,3171,right
9,1,continuous,48,25,trial,20937712.0,20940779.0,3067.0,48,L,20939322,20940186,866,402.7,575.2,3321,left
9,1,continuous,48,25,trial,20937712.0,20940779.0,3067.0,48,L,20940238,20940414,178,533.0,1039.2,3367,NA
9,1,continuous,48,25,postResponse,20937712.0,20940779.0,3067.0,48,L,20940434,20941112,680,628.4,985.5,3651,NA
9,1,continuous,49,88,trial,20941462.0,20945313.0,3851.0,49,L,20941192,20941680,490,1028.8,460.8,4066,NA
9,1,continuous,49,88,trial,20941462.0,20945313.0,3851.0,49,L,20941708,20941908,202,1278.8,481.8,4221,right
9,1,continuous,49,88,trial,20941462.0,20945313.0,3851.0,49,L,20941932,20942318,388,1443.4,535.4,3828,right
9,1,continuous,49,88,trial,20941462.0,20945313.0,3851.0,49,L,20942338,20942710,374,1401.2,504.0,3724,right
9,1,continuous,49,88,trial,20941462.0,20945313.0,3851.0,49,L,20942730,20943082,354,1356.1,472.1,3777,right
9,1,continuous,49,88,trial,20941462.0,20945313.0,3851.0,49,L,20943102,20943238,138,1434.4,513.1,3752,right
9,1,continuous,49,88,trial,20941462.0,20945313.0,3851.0,49,L,20943302,20943508,208,478.9,540.6,3824,left
9,1,continuous,49,88,trial,20941462.0,20945313.0,3851.0,49,L,20943524,20943868,346,430.0,478.6,3606,left
9,1,continuous,49,88,trial,20941462.0,20945313.0,3851.0,49,L,20943886,20944070,186,509.1,512.4,3461,left
9,1,continuous,49,88,trial,20941462.0,20945313.0,3851.0,49,L,20944134,20944358,226,1198.9,975.6,3694,NA
9,1,continuous,49,88,trial,20941462.0,20945313.0,3851.0,49,L,20944380,20944740,362,1338.2,985.7,3845,NA
9,1,continuous,49,88,trial,20941462.0,20945313.0,3851.0,49,L,20944788,20945172,386,1386.0,564.5,4126,right
9,1,continuous,49,88,postResponse,20941462.0,20945313.0,3851.0,49,L,20945198,20945650,454,1349.5,463.8,3936,right
9,1,continuous,50,29,fixationCross,20946012.0,20949079.0,3067.0,50,L,20945724,20945904,182,1132.9,497.2,3935,NA
9,1,continuous,50,29,trial,20946012.0,20949079.0,3067.0,50,L,20945928,20946206,280,999.5,526.6,4233,NA
9,1,continuous,50,29,trial,20946012.0,20949079.0,3067.0,50,L,20946248,20946474,228,1374.9,574.5,4395,right
9,1,continuous,50,29,trial,20946012.0,20949079.0,3067.0,50,L,20946484,20946604,122,1398.2,574.1,4152,right
9,1,continuous,50,29,trial,20946012.0,20949079.0,3067.0,50,L,20946666,20946896,232,527.5,551.7,3877,left
9,1,continuous,50,29,trial,20946012.0,20949079.0,3067.0,50,L,20946922,20947114,194,399.8,632.8,3673,left
9,1,continuous,50,29,trial,20946012.0,20949079.0,3067.0,50,L,20947138,20947416,280,576.6,635.9,3681,left
9,1,continuous,50,29,trial,20946012.0,20949079.0,3067.0,50,L,20947430,20947732,304,614.3,607.0,3707,left
9,1,continuous,50,29,trial,20946012.0,20949079.0,3067.0,50,L,20947756,20947848,94,561.2,539.1,3786,left
9,1,continuous,50,29,trial,20946012.0,20949079.0,3067.0,50,L,20947914,20948166,254,1416.9,576.6,3798,right
9,1,continuous,50,29,trial,20946012.0,20949079.0,3067.0,50,L,20948176,20948328,154,1387.0,547.3,3664,right
9,1,continuous,50,29,trial,20946012.0,20949079.0,3067.0,50,L,20948386,20948650,266,540.6,490.7,3509,left
9,1,continuous,50,29,trial,20946012.0,20949079.0,3067.0,50,L,20948698,20948962,266,636.2,955.6,3437,NA
9,1,continuous,50,29,postResponse,20946012.0,20949079.0,3067.0,50,L,20949012,20949416,406,564.0,472.7,3828,left
9,2,binary,1,2,fixationCross,21002330.0,21004497.0,2167.0,51,L,21002053,21002271,220,1102.1,677.8,5048,NA
9,2,binary,1,2,trial,21002330.0,21004497.0,2167.0,51,L,21002293,21002517,226,1210.6,656.8,4999,right
9,2,binary,1,2,trial,21002330.0,21004497.0,2167.0,51,L,21002567,21002699,134,587.3,606.1,5046,left
9,2,binary,1,2,trial,21002330.0,21004497.0,2167.0,51,L,21002739,21002875,138,778.3,894.8,4758,likertHorizontal
9,2,binary,1,2,trial,21002330.0,21004497.0,2167.0,51,L,21002915,21003073,160,393.7,1001.5,4491,NA
9,2,binary,1,2,trial,21002330.0,21004497.0,2167.0,51,L,21003085,21003313,230,448.7,1026.1,4502,NA
9,2,binary,1,2,trial,21002330.0,21004497.0,2167.0,51,L,21003363,21003577,216,550.4,533.1,4666,left
9,2,binary,1,2,trial,21002330.0,21004497.0,2167.0,51,L,21003597,21003703,108,625.2,556.5,4648,left
9,2,binary,1,2,trial,21002330.0,21004497.0,2167.0,51,L,21003767,21004085,320,1482.8,528.2,4281,right
9,2,binary,1,2,trial,21002330.0,21004497.0,2167.0,51,L,21004105,21004401,298,1452.1,490.1,4005,right
9,2,binary,1,2,postResponse,21002330.0,21004497.0,2167.0,51,L,21004471,21004831,362,588.8,569.8,4001,left
9,2,binary,2,2,fixationCross,21005197.0,21006363.0,1166.0,52,L,21004907,21004963,58,594.0,572.9,3931,left
9,2,binary,2,2,trial,21005197.0,21006363.0,1166.0,52,L,21004995,21005265,272,881.2,548.2,4146,NA
9,2,binary,2,2,trial,21005197.0,21006363.0,1166.0,52,L,21005285,21005389,106,998.3,545.3,4392,NA
9,2,binary,2,2,trial,21005197.0,21006363.0,1166.0,52,L,21005435,21005589,156,1438.5,534.5,4471,right
9,2,binary,2,2,trial,21005197.0,21006363.0,1166.0,52,L,21005599,21005787,190,1468.6,532.4,4201,right
9,2,binary,2,2,trial,21005197.0,21006363.0,1166.0,52,L,21005855,21006233,380,448.9,493.5,3827,left
9,2,binary,2,2,postResponse,21005197.0,21006363.0,1166.0,52,L,21006259,21006691,434,369.6,439.5,3619,left
9,2,binary,3,2,trial,21007063.0,21008813.0,1750.0,53,L,21006821,21007277,458,1093.4,562.7,4037,NA
9,2,binary,3,2,trial,21007063.0,21008813.0,1750.0,53,L,21007329,21007577,250,545.8,472.8,4398,left
9,2,binary,3,2,trial,21007063.0,21008813.0,1750.0,53,L,21007601,21007727,128,613.2,415.4,4034,left
9,2,binary,3,2,trial,21007063.0,21008813.0,1750.0,53,L,21007787,21008061,276,1428.0,511.3,3558,right
9,2,binary,3,2,trial,21007063.0,21008813.0,1750.0,53,L,21008083,21008231,150,1521.8,512.9,3403,right
9,2,binary,3,2,trial,21007063.0,21008813.0,1750.0,53,L,21008257,21008599,344,1399.5,576.9,3515,right
9,2,binary,3,2,trial,21007063.0,21008813.0,1750.0,53,L,21008661,21009029,370,545.4,454.7,3616,left
9,2,binary,4,1,fixationCross,21009514.0,21011630.0,2116.0,54,L,21009249,21009435,188,1071.7,427.6,3514,NA
9,2,binary,4,1,trial,21009514.0,21011630.0,2116.0,54,L,21009459,21009689,232,983.2,509.8,3872,NA
9,2,binary,4,1,trial,21009514.0,21011630.0,2116.0,54,L,21009743,21009907,166,1544.0,437.6,4128,right
9,2,binary,4,1,trial,21009514.0,21011630.0,2116.0,54,L,21009921,21010195,276,1575.2,416.0,3949,right
9,2,binary,4,1,trial,21009514.0,21011630.0,2116.0,54,L,21010259,21010445,188,513.1,513.6,3987,left
9,2,binary,4,1,trial,21009514.0,21011630.0,2116.0,54,L,21010459,21010939,482,497.5,558.0,3809,left
9,2,binary,4,1,trial,21009514.0,21011630.0,2116.0,54,L,21011011,21011165,156,1567.7,401.0,3489,right
9,2,binary,4,1,trial,21009514.0,21011630.0,2116.0,54,L,21011181,21011455,276,1613.8,380.1,3435,right
9,2,binary,4,1,trial,21009514.0,21011630.0,2116.0,54,L,21011465,21011883,420,1597.4,374.7,3785,right
9,2,binary,5,1,trial,21012314.0,21015797.0,3483.0,55,L,21012039,21012513,476,951.2,492.5,4233,NA
9,2,binary,5,1,trial,21012314.0,21015797.0,3483.0,55,L,21012559,21012779,222,1411.7,528.6,4285,right
9,2,binary,5,1,trial,21012314.0,21015797.0,3483.0,55,L,21012799,21012987,190,1453.9,609.4,3971,right
9,2,binary,5,1,trial,21012314.0,21015797.0,3483.0,55,L,21012997,21013103,108,1452.3,629.9,3795,right
9,2,binary,5,1,trial,21012314.0,21015797.0,3483.0,55,L,21013167,21013389,224,542.9,517.9,3809,left
9,2,binary,5,1,trial,21012314.0,21015797.0,3483.0,55,L,21013417,21013799,384,383.3,529.2,3882,left
9,2,binary,5,1,trial,21012314.0,21015797.0,3483.0,55,L,21013823,21013909,88,529.1,513.6,3966,left
9,2,binary,5,1,trial,21012314.0,21015797.0,3483.0,55,L,21014083,21014213,132,580.8,522.5,4072,left
9,2,binary,5,1,trial,21012314.0,21015797.0,3483.0,55,L,21014231,21014403,174,659.8,523.8,4137,left
9,2,binary,5,1,trial,21012314.0,21015797.0,3483.0,55,L,21014465,21015083,620,1462.7,607.3,4038,right
9,2,binary,5,1,postResponse,21012314.0,21015797.0,3483.0,55,L,21015149,21016133,986,452.1,516.0,4044,left
9,2,binary,6,2,fixationCross,21016513.0,21019580.0,3067.0,56,L,21016233,21016339,108,460.4,520.0,4197,left
9,2,binary,6,2,trial,21016513.0,21019580.0,3067.0,56,L,21016387,21016659,274,932.5,564.2,4361,NA
9,2,binary,6,2,trial,21016513.0,21019580.0,3067.0,56,L,21016709,21016921,214,1455.6,527.0,4438,right
9,2,binary,6,2,trial,21016513.0,21019580.0,3067.0,56,L,21016933,21017127,196,1494.8,534.9,3940,right
9,2,binary,6,2,trial,21016513.0,21019580.0,3067.0,56,L,21017151,21017313,164,1444.9,623.9,3600,right
9,2,binary,6,2,trial,21016513.0,21019580.0,3067.0,56,L,21017373,21017637,266,599.3,559.3,3559,left
9,2,binary,6,2,trial,21016513.0,21019580.0,3067.0,56,L,21017657,21017901,246,518.8,536.5,3516,left
9,2,binary,6,2,trial,21016513.0,21019580.0,3067.0,56,L,21017973,21018283,312,1464.2,566.8,3548,right
9,2,binary,6,2,trial,21016513.0,21019580.0,3067.0,56,L,21018349,21018511,164,437.7,559.2,4072,left
9,2,binary,6,2,trial,21016513.0,21019580.0,3067.0,56,L,21018537,21018729,194,621.8,542.3,3993,left
9,2,binary,6,2,trial,21016513.0,21019580.0,3067.0,56,L,21018753,21018975,224,504.7,505.7,3800,left
9,2,binary,6,2,postResponse,21016513.0,21019580.0,3067.0,56,L,21019039,21019913,876,1425.1,536.0,3589,right
9,2,binary,7,1,trial,21020230.0,21022613.0,2383.0,57,L,21020027,21020441,416,1020.4,520.3,4245,NA
9,2,binary,7,1,trial,21020230.0,21022613.0,2383.0,57,L,21020489,21020779,292,581.7,579.5,4436,left
9,2,binary,7,1,trial,21020230.0,21022613.0,2383.0,57,L,21020811,21020935,126,353.7,632.1,4063,left
9,2,binary,7,1,trial,21020230.0,21022613.0,2383.0,57,L,21021007,21021305,300,1493.4,510.8,3692,right
9,2,binary,7,1,trial,21020230.0,21022613.0,2383.0,57,L,21021327,21021571,246,1569.0,453.0,3765,right
9,2,binary,7,1,trial,21020230.0,21022613.0,2383.0,57,L,21021595,21021919,326,1416.1,414.7,3863,right
9,2,binary,7,1,trial,21020230.0,21022613.0,2383.0,57,L,21021991,21022219,230,396.6,595.1,3933,left
9,2,binary,7,1,postResponse,21020230.0,21022613.0,2383.0,57,L,21022241,21022949,710,540.3,590.6,3620,left
9,2,binary,8,1,trial,21023314.0,21025414.0,2100.0,58,L,21023049,21023381,334,547.2,593.3,3848,left
9,2,binary,8,1,trial,21023314.0,21025414.0,2100.0,58,L,21023423,21023565,144,982.5,533.4,4223,NA
9,2,binary,8,1,trial,21023314.0,21025414.0,2100.0,58,L,21023617,21023777,162,496.7,480.8,4277,left
9,2,binary,8,1,trial,21023314.0,21025414.0,2100.0,58,L,21023801,21024571,772,528.8,421.0,4168,left
9,2,binary,8,1,trial,21023314.0,21025414.0,2100.0,58,L,21024639,21025071,434,1480.2,506.5,3901,right
9,2,binary,8,1,trial,21023314.0,21025414.0,2100.0,58,L,21025135,21025371,238,542.5,495.5,4112,left
9,2,binary,8,1,postResponse,21023314.0,21025414.0,2100.0,58,L,21025391,21025747,358,519.2,422.5,3912,left
9,2,binary,9,2,fixationCross,21026097.0,21027514.0,1417.0,59,L,21025821,21025853,34,521.7,442.2,3748,left
9,2,binary,9,2,trial,21026097.0,21027514.0,1417.0,59,L,21025883,21026351,470,745.4,464.5,4059,NA
9,2,binary,9,2,trial,21026097.0,21027514.0,1417.0,59,L,21026383,21026553,172,554.9,500.2,4272,left
9,2,binary,9,2,trial,21026097.0,21027514.0,1417.0,59,L,21026565,21026833,270,531.1,527.8,3903,left
9,2,binary,9,2,trial,21026097.0,21027514.0,1417.0,59,L,21026897,21027387,492,1462.2,471.3,3425,right
9,2,binary,9,2,trial,21026097.0,21027514.0,1417.0,59,L,21027411,21027729,320,1492.6,377.5,3550,right
9,2,binary,10,2,trial,21028230.0,21029730.0,1500.0,60,L,21027953,21028393,442,944.9,442.1,3886,NA
9,2,binary,10,2,trial,21028230.0,21029730.0,1500.0,60,L,21028445,21028637,194,1514.1,484.7,4222,right
9,2,binary,10,2,trial,21028230.0,21029730.0,1500.0,60,L,21028651,21028861,212,1448.7,515.3,3889,right
9,2,binary,10,2,trial,21028230.0,21029730.0,1500.0,60,L,21028925,21029225,302,478.5,513.5,3735,left
9,2,binary,10,2,trial,21028230.0,21029730.0,1500.0,60,L,21029247,21029461,216,403.2,479.3,3637,left
9,2,binary,10,2,postResponse,21028230.0,21029730.0,1500.0,60,L,21029529,21030063,536,1448.0,503.3,3771,right
9,2,binary,11,1,trial,21030447.0,21033546.0,3099.0,61,L,21030163,21030623,462,915.5,458.5,3937,NA
9,2,binary,11,1,trial,21030447.0,21033546.0,3099.0,61,L,21030673,21030861,190,1406.0,485.8,4159,right
9,2,binary,11,1,trial,21030447.0,21033546.0,3099.0,61,L,21030877,21031045,170,1373.4,432.5,3820,right
9,2,binary,11,1,trial,21030447.0,21033546.0,3099.0,61,L,21031105,21031843,740,462.6,468.1,3469,left
9,2,binary,11,1,trial,21030447.0,21033546.0,3099.0,61,L,21031867,21032119,254,332.7,452.0,3305,left
9,2,binary,11,1,trial,21030447.0,21033546.0,3099.0,61,L,21032193,21032381,190,1449.8,457.7,3262,right
9,2,binary,11,1,trial,21030447.0,21033546.0,3099.0,61,L,21032399,21032979,582,1381.4,421.9,3444,right
9,2,binary,11,1,trial,21030447.0,21033546.0,3099.0,61,L,21033003,21033157,156,1370.6,563.3,3574,right
9,2,binary,11,1,trial,21030447.0,21033546.0,3099.0,61,L,21033223,21033521,300,441.8,411.9,3671,left
9,2,binary,11,1,trial,21030447.0,21033546.0,3099.0,61,L,21033533,21033717,186,427.1,463.0,3650,left
9,2,binary,12,1,trial,21034230.0,21036597.0,2367.0,62,L,21033957,21034389,434,834.1,527.0,3834,NA
9,2,binary,12,1,trial,21034230.0,21036597.0,2367.0,62,L,21034441,21034757,318,1454.2,491.6,4039,right
9,2,binary,12,1,trial,21034230.0,21036597.0,2367.0,62,L,21034823,21035323,502,500.1,540.1,3685,left
9,2,binary,12,1,trial,21034230.0,21036597.0,2367.0,62,L,21035391,21035581,192,1449.3,463.7,3484,right
9,2,binary,12,1,trial,21034230.0,21036597.0,2367.0,62,L,21035591,21036135,546,1469.2,478.8,3591,right
9,2,binary,12,1,trial,21034230.0,21036597.0,2367.0,62,L,21036195,21036369,176,558.0,469.6,3854,left
9,2,binary,12,1,postResponse,21034230.0,21036597.0,2367.0,62,L,21036391,21036933,544,435.0,534.9,3684,left
9,2,binary,13,2,trial,21037281.0,21038631.0,1350.0,63,L,21037095,21037363,270,1146.1,464.3,3637,NA
9,2,binary,13,2,trial,21037281.0,21038631.0,1350.0,63,L,21037387,21037505,120,1019.4,497.5,3925,NA
9,2,binary,13,2,trial,21037281.0,21038631.0,1350.0,63,L,21037559,21037699,142,554.0,492.8,4132,left
9,2,binary,13,2,trial,21037281.0,21038631.0,1350.0,63,L,21037725,21037969,246,390.8,487.1,3802,left
9,2,binary,13,2,trial,21037281.0,21038631.0,1350.0,63,L,21038037,21038389,354,1409.0,492.2,3364,right
9,2,binary,13,2,postResponse,21037281.0,21038631.0,1350.0,63,L,21038409,21038965,558,1303.9,493.2,3658,right
9,2,binary,14,2,trial,21039280.0,21042013.0,2733.0,64,L,21039047,21039465,420,707.8,513.2,3989,left
9,2,binary,14,2,trial,21039280.0,21042013.0,2733.0,64,L,21039525,21039703,180,1446.9,474.2,4106,right
9,2,binary,14,2,trial,21039280.0,21042013.0,2733.0,64,L,21039717,21039965,250,1491.3,479.7,3827,right
9,2,binary,14,2,trial,21039280.0,21042013.0,2733.0,64,L,21039989,21040319,332,1440.4,593.2,3749,right
9,2,binary,14,2,trial,21039280.0,21042013.0,2733.0,64,L,21040385,21040835,452,462.7,504.5,3794,left
9,2,binary,14,2,trial,21039280.0,21042013.0,2733.0,64,L,21040853,21041277,426,417.6,559.3,3649,left
9,2,binary,14,2,trial,21039280.0,21042013.0,2733.0,64,L,21041345,21041567,224,1441.6,510.5,3427,right
9,2,binary,14,2,trial,21039280.0,21042013.0,2733.0,64,L,21041579,21041813,236,1474.9,496.9,3427,right
9,2,binary,14,2,trial,21039280.0,21042013.0,2733.0,64,L,21041835,21042237,404,1371.4,506.4,3635,right
9,2,binary,15,1,trial,21042697.0,21046081.0,3384.0,65,L,21042421,21042903,484,754.4,508.0,4158,NA
9,2,binary,15,1,trial,21042697.0,21046081.0,3384.0,65,L,21042939,21043501,564,504.3,520.5,4079,left
9,2,binary,15,1,trial,21042697.0,21046081.0,3384.0,65,L,21043567,21043819,254,1439.8,484.1,3715,right
9,2,binary,15,1,trial,21042697.0,21046081.0,3384.0,65,L,21043835,21044627,794,1409.6,438.2,3288,right
9,2,binary,15,1,trial,21042697.0,21046081.0,3384.0,65,L,21044687,21044839,154,561.4,492.1,3369,left
9,2,binary,15,1,trial,21042697.0,21046081.0,3384.0,65,L,21044861,21045393,534,484.6,552.6,3401,left
9,2,binary,15,1,trial,21042697.0,21046081.0,3384.0,65,L,21045411,21046251,842,496.7,521.6,3656,left
9,2,binary,16,2,fixationCross,21046764.0,21053914.0,7150.0,66,L,21046489,21046755,268,1168.7,457.6,3677,NA
9,2,binary,16,2,trial,21046764.0,21053914.0,7150.0,66,L,21046781,21046963,184,1058.5,551.7,3946,NA
9,2,binary,16,2,trial,21046764.0,21053914.0,7150.0,66,L,21047007,21047253,248,1496.9,503.5,4018,right
9,2,binary,16,2,trial,21046764.0,21053914.0,7150.0,66,L,21047271,21047455,186,1463.2,560.2,3774,right
9,2,binary,16,2,trial,21046764.0,21053914.0,7150.0,66,L,21047475,21047631,158,1547.9,592.3,3702,right
9,2,binary,16,2,trial,21046764.0,21053914.0,7150.0,66,L,21047699,21048203,506,512.6,602.9,3677,left
9,2,binary,16,2,trial,21046764.0,21053914.0,7150.0,66,L,21048233,21048505,274,396.4,527.9,3405,left
9,2,binary,16,2,trial,21046764.0,21053914.0,7150.0,66,L,21048527,21048907,382,329.3,589.8,3297,left
9,2,binary,16,2,trial,21046764.0,21053914.0,7150.0,66,L,21048931,21049327,398,365.3,471.6,3382,left
9,2,binary,16,2,trial,21046764.0,21053914.0,7150.0,66,L,21049403,21049655,254,1547.7,484.8,3276,right
9,2,binary,16,2,trial,21046764.0,21053914.0,7150.0,66,L,21049673,21050887,1216,1471.1,551.2,3837,right
9,2,binary,16,2,trial,21046764.0,21053914.0,7150.0,66,L,21050909,21051233,326,1518.6,478.0,4242,right
9,2,binary,16,2,trial,21046764.0,21053914.0,7150.0,66,L,21051257,21051469,214,1429.3,537.6,4220,right
9,2,binary,16,2,trial,21046764.0,21053914.0,7150.0,66,L,21051493,21052217,726,1569.5,593.6,4025,right
9,2,binary,16,2,trial,21046764.0,21053914.0,7150.0,66,L,21052247,21052447,202,1558.2,418.9,3806,right
9,2,binary,16,2,trial,21046764.0,21053914.0,7150.0,66,L,21052475,21052637,164,1416.1,494.9,3813,right
9,2,binary,16,2,trial,21046764.0,21053914.0,7150.0,66,L,21052701,21053107,408,470.8,555.5,3942,left
9,2,binary,16,2,trial,21046764.0,21053914.0,7150.0,66,L,21053133,21053515,384,325.9,516.5,3522,left
9,2,binary,16,2,trial,21046764.0,21053914.0,7150.0,66,L,21053585,21053897,314,1321.4,623.3,3254,right
9,2,binary,16,2,trial,21046764.0,21053914.0,7150.0,66,L,21054041,21054189,150,1306.1,388.1,3732,right
9,2,binary,17,1,fixationCross,21054647.0,21056181.0,1534.0,67,L,21054353,21054429,78,1043.5,476.5,4153,NA
9,2,binary,17,1,trial,21054647.0,21056181.0,1534.0,67,L,21054453,21054845,394,907.5,525.1,4379,NA
9,2,binary,17,1,trial,21054647.0,21056181.0,1534.0,67,L,21054897,21055089,194,1431.8,491.3,4231,right
9,2,binary,17,1,trial,21054647.0,21056181.0,1534.0,67,L,21055155,21055393,240,410.1,540.5,3730,left
9,2,binary,17,1,trial,21054647.0,21056181.0,1534.0,67,L,21055415,21055621,208,527.7,540.0,3526,left
9,2,binary,17,1,trial,21054647.0,21056181.0,1534.0,67,L,21055671,21055829,160,417.9,989.0,3471,NA
9,2,binary,17,1,postResponse,21054647.0,21056181.0,1534.0,67,L,21055901,21056515,616,1440.0,457.8,3532,right
9,2,binary,18,1,trial,21056880.0,21058947.0,2067.0,68,L,21056615,21057079,466,1045.5,487.4,3979,NA
9,2,binary,18,1,trial,21056880.0,21058947.0,2067.0,68,L,21057139,21057335,198,505.6,518.7,4422,left
9,2,binary,18,1,trial,21056880.0,21058947.0,2067.0,68,L,21057351,21057479,130,449.1,511.6,4288,left
9,2,binary,18,1,trial,21056880.0,21058947.0,2067.0,68,L,21057547,21058043,498,1423.6,521.5,3679,right
9,2,binary,18,1,trial,21056880.0,21058947.0,2067.0,68,L,21058057,21058209,154,1473.4,490.9,3588,right
9,2,binary,18,1,trial,21056880.0,21058947.0,2067.0,68,L,21058275,21058741,468,469.4,530.5,3621,left
9,2,binary,18,1,trial,21056880.0,21058947.0,2067.0,68,L,21058767,21059227,462,424.7,452.7,3502,left
9,2,binary,19,1,fixationCross,21059664.0,21061264.0,1600.0,69,L,21059427,21059645,220,1149.4,447.7,3708,NA
9,2,binary,19,1,trial,21059664.0,21061264.0,1600.0,69,L,21059671,21059903,234,992.1,532.4,3965,NA
9,2,binary,19,1,trial,21059664.0,21061264.0,1600.0,69,L,21059949,21060121,174,506.1,509.4,4130,left
9,2,binary,19,1,trial,21059664.0,21061264.0,1600.0,69,L,21060187,21060595,410,1438.4,602.9,3603,right
9,2,binary,19,1,trial,21059664.0,21061264.0,1600.0,69,L,21060621,21060753,134,1321.4,522.1,3584,right
9,2,binary,19,1,trial,21059664.0,21061264.0,1600.0,69,L,21060813,21061085,274,503.7,503.6,3827,left
9,2,binary,19,1,trial,21059664.0,21061264.0,1600.0,69,L,21061105,21061505,402,506.8,606.5,3864,left
9,2,binary,20,1,fixationCross,21061964.0,21064298.0,2334.0,70,L,21061699,21061919,222,1114.4,417.8,3715,NA
9,2,binary,20,1,trial,21061964.0,21064298.0,2334.0,70,L,21061945,21062183,240,990.0,521.7,4032,NA
9,2,binary,20,1,trial,21061964.0,21064298.0,2334.0,70,L,21062225,21062343,120,545.8,530.6,4263,left
9,2,binary,20,1,trial,21061964.0,21064298.0,2334.0,70,L,21062403,21062597,196,1400.7,499.7,3792,right
9,2,binary,20,1,trial,21061964.0,21064298.0,2334.0,70,L,21062629,21062853,226,1592.3,537.7,3487,right
9,2,binary,20,1,trial,21061964.0,21064298.0,2334.0,70,L,21062891,21063177,288,1316.7,425.1,3444,right
9,2,binary,20,1,trial,21061964.0,21064298.0,2334.0,70,L,21063195,21063415,222,1313.8,369.0,3276,right
9,2,binary,20,1,trial,21061964.0,21064298.0,2334.0,70,L,21063479,21063813,336,397.6,563.3,3284,left
9,2,binary,20,1,postResponse,21061964.0,21064298.0,2334.0,70,L,21063835,21064631,798,524.0,571.1,3254,left
9,2,binary,21,1,trial,21064964.0,21072281.0,7317.0,71,L,21064707,21065029,324,522.9,573.1,3649,left
9,2,binary,21,1,trial,21064964.0,21072281.0,7317.0,71,L,21065071,21065203,134,992.1,514.0,3954,NA
9,2,binary,21,1,trial,21064964.0,21072281.0,7317.0,71,L,21065259,21066263,1006,1503.3,482.4,3742,right
9,2,binary,21,1,trial,21064964.0,21072281.0,7317.0,71,L,21066331,21066561,232,550.1,467.3,4055,left
9,2,binary,21,1,trial,21064964.0,21072281.0,7317.0,71,L,21066579,21066723,146,482.9,492.1,3918,left
9,2,binary,21,1,trial,21064964.0,21072281.0,7317.0,71,L,21066793,21067321,530,1506.6,517.2,3489,right
9,2,binary,21,1,trial,21064964.0,21072281.0,7317.0,71,L,21067345,21067685,342,1523.9,631.7,3618,right
9,2,binary,21,1,trial,21064964.0,21072281.0,7317.0,71,L,21067715,21067899,186,1523.7,458.0,3681,right
9,2,binary,21,1,trial,21064964.0,21072281.0,7317.0,71,L,21068045,21068253,210,1525.7,483.0,3629,right
9,2,binary,21,1,trial,21064964.0,21072281.0,7317.0,71,L,21068303,21068389,88,982.8,593.6,3788,NA
9,2,binary,21,1,trial,21064964.0,21072281.0,7317.0,71,L,21068437,21068745,310,477.3,510.0,3764,left
9,2,binary,21,1,trial,21064964.0,21072281.0,7317.0,71,L,21068767,21069343,578,431.5,478.3,3519,left
9,2,binary,21,1,trial,21064964.0,21072281.0,7317.0,71,L,21069367,21069571,206,515.6,558.4,3375,left
9,2,binary,21,1,trial,21064964.0,21072281.0,7317.0,71,L,21069599,21069881,284,612.3,678.8,3411,left
9,2,binary,21,1,trial,21064964.0,21072281.0,7317.0,71,L,21069899,21070091,194,709.7,701.8,3568,left
9,2,binary,21,1,trial,21064964.0,21072281.0,7317.0,71,L,21070149,21070479,332,1396.1,644.9,3692,right
9,2,binary,21,1,trial,21064964.0,21072281.0,7317.0,71,L,21070503,21070683,182,1518.2,651.6,3839,right
9,2,binary,21,1,trial,21064964.0,21072281.0,7317.0,71,L,21070717,21070995,280,1536.8,468.5,3932,right
9,2,binary,21,1,trial,21064964.0,21072281.0,7317.0,71,L,21071017,21071219,204,1652.2,457.6,3944,right
9,2,binary,21,1,trial,21064964.0,21072281.0,7317.0,71,L,21071259,21071485,228,1320.7,367.3,4050,right
9,2,binary,21,1,trial,21064964.0,21072281.0,7317.0,71,L,21071503,21071609,108,1220.5,362.9,4054,right
9,2,binary,21,1,trial,21064964.0,21072281.0,7317.0,71,L,21071677,21072175,500,421.8,418.4,4112,left
9,2,binary,21,1,trial,21064964.0,21072281.0,7317.0,71,L,21072199,21072371,174,553.4,495.7,4039,left
9,2,binary,21,1,trial,21064964.0,21072281.0,7317.0,71,L,21072399,21072503,106,466.6,630.3,4035,left
9,2,binary,22,2,fixationCross,21072998.0,21076847.0,3849.0,72,L,21072717,21072907,192,1034.4,426.4,4036,NA
9,2,binary,22,2,trial,21072998.0,21076847.0,3849.0,72,L,21072931,21073169,240,937.5,496.6,4288,NA
9,2,binary,22,2,trial,21072998.0,21076847.0,3849.0,72,L,21073227,21073389,164,435.7,497.7,4411,left
9,2,binary,22,2,trial,21072998.0,21076847.0,3849.0,72,L,21073413,21073551,140,400.8,438.4,3989,left
9,2,binary,22,2,trial,21072998.0,21076847.0,3849.0,72,L,21073617,21073859,244,1362.2,520.3,3391,right
9,2,binary,22,2,trial,21072998.0,21076847.0,3849.0,72,L,21073889,21074399,512,1520.4,463.6,3355,right
9,2,binary,22,2,trial,21072998.0,21076847.0,3849.0,72,L,21074469,21074697,230,432.8,495.6,3469,left
9,2,binary,22,2,trial,21072998.0,21076847.0,3849.0,72,L,21074723,21075437,716,382.9,434.8,3324,left
9,2,binary,22,2,trial,21072998.0,21076847.0,3849.0,72,L,21075455,21075657,204,435.6,382.3,3359,left
9,2,binary,22,2,trial,21072998.0,21076847.0,3849.0,72,L,21075735,21076089,356,1523.3,472.1,3365,right
9,2,binary,22,2,trial,21072998.0,21076847.0,3849.0,72,L,21076119,21076455,338,1306.5,563.6,3451,right
9,2,binary,22,2,trial,21072998.0,21076847.0,3849.0,72,L,21076497,21077037,542,1546.3,480.1,3510,right
9,2,binary,23,1,trial,21078014.0,21083064.0,5050.0,73,L,21077743,21078071,330,1217.5,473.7,4328,right
9,2,binary,23,1,trial,21078014.0,21083064.0,5050.0,73,L,21078097,21078233,138,1021.5,509.2,4413,NA
9,2,binary,23,1,trial,21078014.0,21083064.0,5050.0,73,L,21078259,21078331,74,1155.5,475.2,4407,NA
9,2,binary,23,1,trial,21078014.0,21083064.0,5050.0,73,L,21078371,21078639,270,1447.9,480.5,3948,right
9,2,binary,23,1,trial,21078014.0,21083064.0,5050.0,73,L,21078713,21078939,228,524.2,534.4,3711,left
9,2,binary,23,1,trial,21078014.0,21083064.0,5050.0,73,L,21078965,21079115,152,382.2,554.3,3490,left
9,2,binary,23,1,trial,21078014.0,21083064.0,5050.0,73,L,21079125,21079521,398,362.5,571.3,3336,left
9,2,binary,23,1,trial,21078014.0,21083064.0,5050.0,73,L,21079549,21079735,188,407.6,435.9,3260,left
9,2,binary,23,1,trial,21078014.0,21083064.0,5050.0,73,L,21079811,21080063,254,1528.0,489.4,3183,right
9,2,binary,23,1,trial,21078014.0,21083064.0,5050.0,73,L,21080089,21080667,580,1568.8,368.7,3352,right
9,2,binary,23,1,trial,21078014.0,21083064.0,5050.0,73,L,21080703,21080923,222,1475.4,596.2,3542,right
9,2,binary,23,1,trial,21078014.0,21083064.0,5050.0,73,L,21080941,21081113,174,1565.3,623.9,3575,right
9,2,binary,23,1,trial,21078014.0,21083064.0,5050.0,73,L,21081147,21081353,208,1322.8,604.2,3657,right
9,2,binary,23,1,trial,21078014.0,21083064.0,5050.0,73,L,21081383,21081589,208,1393.6,433.7,3557,right
9,2,binary,23,1,trial,21078014.0,21083064.0,5050.0,73,L,21081609,21081967,360,1292.7,448.0,3774,right
9,2,binary,23,1,trial,21078014.0,21083064.0,5050.0,73,L,21082035,21082519,486,363.6,542.1,3842,left
9,2,binary,23,1,trial,21078014.0,21083064.0,5050.0,73,L,21082539,21082755,218,348.6,439.7,3576,left
9,2,binary,23,1,trial,21078014.0,21083064.0,5050.0,73,L,21082789,21083031,244,591.8,460.6,3566,left
9,2,binary,23,1,trial,21078014.0,21083064.0,5050.0,73,L,21083089,21083253,166,361.6,1044.6,3563,NA
9,2,binary,24,2,fixationCross,21083748.0,21089881.0,6133.0,74,L,21083473,21083687,216,1065.5,448.6,3851,NA
9,2,binary,24,2,trial,21083748.0,21089881.0,6133.0,74,L,21083709,21083953,246,964.5,503.3,4140,NA
9,2,binary,24,2,trial,21083748.0,21089881.0,6133.0,74,L,21084005,21084195,192,510.0,503.9,4215,left
9,2,binary,24,2,trial,21083748.0,21089881.0,6133.0,74,L,21084209,21084381,174,462.0,505.8,3820,left
9,2,binary,24,2,trial,21083748.0,21089881.0,6133.0,74,L,21084451,21084697,248,1536.5,490.3,3406,right
9,2,binary,24,2,trial,21083748.0,21089881.0,6133.0,74,L,21084725,21084865,142,1393.0,420.4,3394,right
9,2,binary,24,2,trial,21083748.0,21089881.0,6133.0,74,L,21084887,21085261,376,1327.7,372.2,3681,right
9,2,binary,24,2,trial,21083748.0,21089881.0,6133.0,74,L,21085287,21085603,318,1459.1,455.8,3910,right
9,2,binary,24,2,trial,21083748.0,21089881.0,6133.0,74,L,21085617,21086255,640,1395.5,442.1,4154,right
9,2,binary,24,2,trial,21083748.0,21089881.0,6133.0,74,L,21086279,21086535,258,1524.6,493.9,4131,right
9,2,binary,24,2,trial,21083748.0,21089881.0,6133.0,74,L,21086561,21087131,572,1348.6,441.9,4059,right
9,2,binary,24,2,trial,21083748.0,21089881.0,6133.0,74,L,21087155,21087567,414,1486.4,505.4,4163,right
9,2,binary,24,2,trial,21083748.0,21089881.0,6133.0,74,L,21087733,21088123,392,1391.7,485.1,4295,right
9,2,binary,24,2,trial,21083748.0,21089881.0,6133.0,74,L,21088143,21088417,276,1487.9,502.1,4341,right
9,2,binary,24,2,trial,21083748.0,21089881.0,6133.0,74,L,21088487,21088777,292,422.2,503.8,4093,left
9,2,binary,24,2,trial,21083748.0,21089881.0,6133.0,74,L,21088797,21089039,244,504.8,533.3,3624,left
9,2,binary,24,2,trial,21083748.0,21089881.0,6133.0,74,L,21089069,21089401,334,455.3,536.0,3277,left
9,2,binary,24,2,trial,21083748.0,21089881.0,6133.0,74,L,21089473,21089855,384,1487.8,506.4,2817,right
9,2,binary,24,2,trial,21083748.0,21089881.0,6133.0,74,L,21089875,21090125,252,1380.5,498.2,3052,right
9,2,binary,25,2,trial,21090581.0,21096348.0,5767.0,75,L,21090315,21090761,448,917.5,512.4,3777,NA
9,2,binary,25,2,trial,21090581.0,21096348.0,5767.0,75,L,21090819,21091081,264,436.6,534.7,3882,left
9,2,binary,25,2,trial,21090581.0,21096348.0,5767.0,75,L,21091097,21091261,166,489.6,549.9,3559,left
9,2,binary,25,2,trial,21090581.0,21096348.0,5767.0,75,L,21091273,21091637,366,445.0,532.8,3376,left
9,2,binary,25,2,trial,21090581.0,21096348.0,5767.0,75,L,21091707,21091975,270,1461.5,422.1,3177,right
9,2,binary,25,2,trial,21090581.0,21096348.0,5767.0,75,L,21091989,21092411,424,1353.6,418.0,3280,right
9,2,binary,25,2,trial,21090581.0,21096348.0,5767.0,75,L,21092453,21092595,144,1552.0,550.5,3277,right
9,2,binary,25,2,trial,21090581.0,21096348.0,5767.0,75,L,21092617,21092889,274,1532.8,659.9,3247,right
9,2,binary,25,2,trial,21090581.0,21096348.0,5767.0,75,L,21092899,21093177,280,1500.6,657.5,3349,right
9,2,binary,25,2,trial,21090581.0,21096348.0,5767.0,75,L,21093219,21093455,238,1543.8,375.9,3338,right
9,2,binary,25,2,trial,21090581.0,21096348.0,5767.0,75,L,21093481,21093659,180,1351.6,327.1,3285,NA
9,2,binary,25,2,trial,21090581.0,21096348.0,5767.0,75,L,21093727,21094083,358,406.5,517.5,3422,left
9,2,binary,25,2,trial,21090581.0,21096348.0,5767.0,75,L,21094099,21094293,196,474.6,507.5,3418,left
9,2,binary,25,2,trial,21090581.0,21096348.0,5767.0,75,L,21094305,21094457,154,449.0,525.5,3453,left
9,2,binary,25,2,trial,21090581.0,21096348.0,5767.0,75,L,21094475,21094745,272,467.3,601.4,3628,left
9,2,binary,25,2,trial,21090581.0,21096348.0,5767.0,75,L,21094777,21095343,568,352.9,419.9,3682,left
9,2,binary,25,2,trial,21090581.0,21096348.0,5767.0,75,L,21095367,21095885,520,551.8,460.4,3881,left
9,2,binary,25,2,trial,21090581.0,21096348.0,5767.0,75,L,21095911,21095993,84,467.2,558.8,3913,left
9,2,binary,25,2,trial,21090581.0,21096348.0,5767.0,75,L,21096063,21096273,212,1434.2,451.8,3707,right
9,2,binary,25,2,trial,21090581.0,21096348.0,5767.0,75,L,21096289,21096509,222,1352.4,430.8,3743,right
9,2,binary,26,1,trial,21122015.0,21123531.0,1516.0,76,L,21121725,21122045,322,1176.7,841.1,5135,likertHorizontal
9,2,binary,26,1,trial,21122015.0,21123531.0,1516.0,76,L,21122087,21122211,126,994.8,498.0,5054,NA
9,2,binary,26,1,trial,21122015.0,21123531.0,1516.0,76,L,21122257,21122427,172,1486.1,499.0,4884,right
9,2,binary,26,1,trial,21122015.0,21123531.0,1516.0,76,L,21122491,21122741,252,506.7,522.5,4203,left
9,2,binary,26,1,trial,21122015.0,21123531.0,1516.0,76,L,21122761,21123155,396,402.7,554.6,3611,left
9,2,binary,26,1,trial,21122015.0,21123531.0,1516.0,76,L,21123227,21123391,166,1484.3,484.5,3260,right
9,2,binary,26,1,postResponse,21122015.0,21123531.0,1516.0,76,L,21123413,21123865,454,1401.2,440.7,3231,right
9,2,binary,27,1,trial,21124198.0,21128749.0,4551.0,77,L,21123959,21124371,414,762.4,527.6,3539,NA
9,2,binary,27,1,trial,21124198.0,21128749.0,4551.0,77,L,21124413,21124659,248,442.2,544.6,4105,left
9,2,binary,27,1,trial,21124198.0,21128749.0,4551.0,77,L,21124737,21125065,330,1424.6,457.6,3682,right
9,2,binary,27,1,trial,21124198.0,21128749.0,4551.0,77,L,21125083,21125433,352,1486.2,497.6,3533,right
9,2,binary,27,1,trial,21124198.0,21128749.0,4551.0,77,L,21125503,21125847,346,451.2,521.3,3611,left
9,2,binary,27,1,trial,21124198.0,21128749.0,4551.0,77,L,21125869,21126193,326,564.2,511.3,3473,left
9,2,binary,27,1,trial,21124198.0,21128749.0,4551.0,77,L,21126261,21126665,406,1485.9,479.1,3211,right
9,2,binary,27,1,trial,21124198.0,21128749.0,4551.0,77,L,21126685,21127027,344,1371.3,483.9,3309,right
9,2,binary,27,1,trial,21124198.0,21128749.0,4551.0,77,L,21127095,21127507,414,479.7,478.3,3540,left
9,2,binary,27,1,trial,21124198.0,21128749.0,4551.0,77,L,21127529,21127901,374,385.0,526.6,3438,left
