participantNo,block,task,blockTrial,response,trialStage,trialStartTime,trialFinishTime,rt,trial,eye,fixStart,fixEnd,fixLength,fixPosX,fixPosY,dilation,aoi
58,1,binary,1,1,fixationCross,16578838.0,16586605.0,7767.0,1,R,16578127,16578511,386,936.6,426.8,4620,NA
58,1,binary,1,1,trial,16578838.0,16586605.0,7767.0,1,R,16578539,16579091,554,1010.3,545.0,4686,NA
58,1,binary,1,1,trial,16578838.0,16586605.0,7767.0,1,R,16579137,16579605,470,564.8,511.6,4348,left
58,1,binary,1,1,trial,16578838.0,16586605.0,7767.0,1,R,16579657,16579851,196,493.3,974.2,3898,NA
58,1,binary,1,1,trial,16578838.0,16586605.0,7767.0,1,R,16579861,16579967,108,471.1,998.3,3839,NA
58,1,binary,1,1,trial,16578838.0,16586605.0,7767.0,1,R,16580013,16580055,44,997.2,950.2,3879,likertHorizontal
58,1,binary,1,1,trial,16578838.0,16586605.0,7767.0,1,R,16580183,16580651,470,1411.6,457.4,4112,right
58,1,binary,1,1,trial,16578838.0,16586605.0,7767.0,1,R,16580713,16581179,468,557.8,537.8,3989,left
58,1,binary,1,1,trial,16578838.0,16586605.0,7767.0,1,R,16581249,16581563,316,305.4,534.3,3839,left
58,1,binary,1,1,trial,16578838.0,16586605.0,7767.0,1,R,16581599,16581837,240,689.4,600.3,3962,left
58,1,binary,1,1,trial,16578838.0,16586605.0,7767.0,1,R,16581883,16582081,200,955.1,978.5,3890,likertHorizontal
58,1,binary,1,1,trial,16578838.0,16586605.0,7767.0,1,R,16582121,16582727,608,502.7,994.8,4167,NA
58,1,binary,1,1,trial,16578838.0,16586605.0,7767.0,1,R,16582785,16582955,172,1202.1,952.2,4368,NA
58,1,binary,1,1,trial,16578838.0,16586605.0,7767.0,1,R,16582987,16583141,156,1431.8,993.6,4322,NA
58,1,binary,1,1,trial,16578838.0,16586605.0,7767.0,1,R,16583187,16583481,296,1536.3,515.3,4424,right
58,1,binary,1,1,trial,16578838.0,16586605.0,7767.0,1,R,16583503,16583721,220,1418.9,511.4,4110,right
58,1,binary,1,1,trial,16578838.0,16586605.0,7767.0,1,R,16583783,16584623,842,519.5,520.4,3766,left
58,1,binary,1,1,trial,16578838.0,16586605.0,7767.0,1,R,16584655,16585007,354,308.4,470.6,3689,left
58,1,binary,1,1,trial,16578838.0,16586605.0,7767.0,1,R,16585085,16585489,406,1411.2,477.3,3796,right
58,1,binary,1,1,trial,16578838.0,16586605.0,7767.0,1,R,16585551,16585953,404,452.6,497.6,3957,left
58,1,binary,1,1,trial,16578838.0,16586605.0,7767.0,1,R,16585979,16586061,84,272.3,449.4,3807,left
58,1,binary,1,1,trial,16578838.0,16586605.0,7767.0,1,R,16586137,16586463,328,1483.6,434.9,3646,right
58,1,binary,1,1,trial,16578838.0,16586605.0,7767.0,1,R,16586487,16586593,108,1327.5,448.8,3712,right
58,1,binary,1,1,trial,16578838.0,16586605.0,7767.0,1,R,16586651,16586911,262,486.9,437.2,3762,left
58,1,binary,2,1,fixationCross,16587672.0,16590672.0,3000.0,2,R,16587043,16587357,316,811.9,429.4,3917,NA
58,1,binary,2,1,trial,16587672.0,16590672.0,3000.0,2,R,16587383,16587735,354,949.3,472.7,4358,NA
58,1,binary,2,1,trial,16587672.0,16590672.0,3000.0,2,R,16587745,16587903,160,947.4,505.9,4513,NA
58,1,binary,2,1,trial,16587672.0,16590672.0,3000.0,2,R,16587951,16588137,188,625.5,454.6,4487,left
58,1,binary,2,1,trial,16587672.0,16590672.0,3000.0,2,R,16588169,16588457,290,405.1,449.7,4241,left
58,1,binary,2,1,trial,16587672.0,16590672.0,3000.0,2,R,16588485,16588635,152,643.7,507.2,4078,left
58,1,binary,2,1,trial,16587672.0,16590672.0,3000.0,2,R,16588695,16588937,244,1470.0,441.1,3895,right
58,1,binary,2,1,trial,16587672.0,16590672.0,3000.0,2,R,16588961,16589115,156,1574.4,414.3,3757,right
58,1,binary,2,1,trial,16587672.0,16590672.0,3000.0,2,R,16589133,16589315,184,1567.7,343.9,3653,NA
58,1,binary,2,1,trial,16587672.0,16590672.0,3000.0,2,R,16589347,16589695,350,1367.7,514.5,3656,right
58,1,binary,2,1,trial,16587672.0,16590672.0,3000.0,2,R,16589715,16589973,260,1422.3,559.8,3592,right
58,1,binary,2,1,trial,16587672.0,16590672.0,3000.0,2,R,16590037,16590421,386,452.0,531.4,3588,left
58,1,binary,2,1,trial,16587672.0,16590672.0,3000.0,2,R,16590449,16590649,202,636.2,517.7,3657,left
58,1,binary,2,1,trial,16587672.0,16590672.0,3000.0,2,R,16590685,16590955,272,377.6,402.6,3633,left
58,1,binary,2,1,postResponse,16587672.0,16590672.0,3000.0,2,R,16590997,16591037,42,759.1,430.8,3633,NA
58,1,binary,3,2,fixationCross,16591805.0,16594522.0,2717.0,3,R,16591137,16591191,56,755.1,436.3,3696,NA
58,1,binary,3,2,fixationCross,16591805.0,16594522.0,2717.0,3,R,16591225,16591493,270,1038.2,410.8,3880,NA
58,1,binary,3,2,fixationCross,16591805.0,16594522.0,2717.0,3,R,16591515,16591659,146,970.5,477.6,4144,NA
58,1,binary,3,2,trial,16591805.0,16594522.0,2717.0,3,R,16591683,16591967,286,982.2,524.1,4298,NA
58,1,binary,3,2,trial,16591805.0,16594522.0,2717.0,3,R,16592023,16592299,278,508.7,452.3,4240,left
58,1,binary,3,2,trial,16591805.0,16594522.0,2717.0,3,R,16592319,16592509,192,493.0,479.3,3937,left
58,1,binary,3,2,trial,16591805.0,16594522.0,2717.0,3,R,16592577,16593215,640,1460.4,433.6,3740,right
58,1,binary,3,2,trial,16591805.0,16594522.0,2717.0,3,R,16593449,16593633,186,1417.0,453.6,3810,right
58,1,binary,3,2,trial,16591805.0,16594522.0,2717.0,3,R,16593659,16594081,424,1379.7,386.1,3823,right
58,1,binary,3,2,trial,16591805.0,16594522.0,2717.0,3,R,16594133,16594377,246,1426.9,760.8,3759,NA
58,1,binary,3,2,trial,16591805.0,16594522.0,2717.0,3,R,16594407,16594553,148,1416.6,580.7,3887,right
58,1,binary,3,2,postResponse,16591805.0,16594522.0,2717.0,3,R,16594623,16594867,246,499.2,491.3,3967,left
58,1,binary,4,1,fixationCross,16595555.0,16598022.0,2467.0,4,R,16594941,16595255,316,811.6,431.1,3933,NA
58,1,binary,4,1,fixationCross,16595555.0,16598022.0,2467.0,4,R,16595277,16595493,218,976.8,488.8,4200,NA
58,1,binary,4,1,trial,16595555.0,16598022.0,2467.0,4,R,16595513,16595717,206,978.2,542.8,4360,NA
58,1,binary,4,1,trial,16595555.0,16598022.0,2467.0,4,R,16595765,16595991,228,466.1,508.7,4363,left
58,1,binary,4,1,trial,16595555.0,16598022.0,2467.0,4,R,16596013,16596297,286,511.4,459.4,3917,left
58,1,binary,4,1,trial,16595555.0,16598022.0,2467.0,4,R,16596365,16596621,258,1449.0,461.8,3523,right
58,1,binary,4,1,trial,16595555.0,16598022.0,2467.0,4,R,16596643,16597021,380,1399.8,540.6,3577,right
58,1,binary,4,1,trial,16595555.0,16598022.0,2467.0,4,R,16597085,16597617,534,575.1,619.3,3736,left
58,1,binary,4,1,trial,16595555.0,16598022.0,2467.0,4,R,16597659,16597759,102,444.1,1037.1,3709,NA
58,1,binary,4,1,trial,16595555.0,16598022.0,2467.0,4,R,16597775,16597883,110,467.0,973.6,3708,NA
58,1,binary,4,1,trial,16595555.0,16598022.0,2467.0,4,R,16597931,16598327,398,491.4,441.9,3858,left
58,1,binary,5,1,fixationCross,16599189.0,16601506.0,2317.0,5,R,16598453,16598617,166,1307.7,411.5,3929,right
58,1,binary,5,1,fixationCross,16599189.0,16601506.0,2317.0,5,R,16598657,16598883,228,931.9,394.6,4134,NA
58,1,binary,5,1,fixationCross,16599189.0,16601506.0,2317.0,5,R,16598911,16599157,248,984.4,515.8,4316,NA
58,1,binary,5,1,trial,16599189.0,16601506.0,2317.0,5,R,16599167,16599407,242,981.6,539.6,4448,NA
58,1,binary,5,1,trial,16599189.0,16601506.0,2317.0,5,R,16599453,16599791,340,543.2,484.6,4141,left
58,1,binary,5,1,trial,16599189.0,16601506.0,2317.0,5,R,16599809,16600197,390,587.0,482.4,3731,left
58,1,binary,5,1,trial,16599189.0,16601506.0,2317.0,5,R,16600267,16600603,338,1482.4,483.3,3525,right
58,1,binary,5,1,trial,16599189.0,16601506.0,2317.0,5,R,16600619,16600879,262,1407.6,495.0,3449,right
58,1,binary,5,1,trial,16599189.0,16601506.0,2317.0,5,R,16600939,16601387,450,549.3,488.0,3395,left
58,1,binary,5,1,trial,16599189.0,16601506.0,2317.0,5,R,16601405,16601525,122,488.6,455.1,3432,left
58,1,binary,5,1,trial,16599189.0,16601506.0,2317.0,5,R,16601585,16601821,238,1266.6,435.6,3388,right
58,1,binary,6,1,fixationCross,16602622.0,16606056.0,3434.0,6,R,16601917,16602165,250,926.0,424.4,3716,NA
58,1,binary,6,1,fixationCross,16602622.0,16606056.0,3434.0,6,R,16602191,16602307,118,1044.4,429.3,3998,NA
58,1,binary,6,1,trial,16602622.0,16606056.0,3434.0,6,R,16602331,16602821,492,966.5,527.9,4289,NA
58,1,binary,6,1,trial,16602622.0,16606056.0,3434.0,6,R,16602875,16603355,482,503.0,485.8,3918,left
58,1,binary,6,1,trial,16602622.0,16606056.0,3434.0,6,R,16603425,16603823,400,1475.7,506.9,3451,right
58,1,binary,6,1,trial,16602622.0,16606056.0,3434.0,6,R,16603839,16604041,204,1537.4,498.7,3355,right
58,1,binary,6,1,trial,16602622.0,16606056.0,3434.0,6,R,16604107,16604487,382,498.6,484.6,3453,left
58,1,binary,6,1,trial,16602622.0,16606056.0,3434.0,6,R,16604509,16604867,360,387.3,507.9,3537,left
58,1,binary,6,1,trial,16602622.0,16606056.0,3434.0,6,R,16604893,16605159,268,562.5,495.1,3583,left
58,1,binary,6,1,trial,16602622.0,16606056.0,3434.0,6,R,16605189,16605395,208,510.3,620.7,3584,left
58,1,binary,6,1,trial,16602622.0,16606056.0,3434.0,6,R,16605467,16605779,314,1553.8,478.6,3469,right
58,1,binary,6,1,trial,16602622.0,16606056.0,3434.0,6,R,16605801,16605935,136,1428.9,493.1,3414,right
58,1,binary,6,1,trial,16602622.0,16606056.0,3434.0,6,R,16605999,16606153,156,514.5,908.2,3598,NA
58,1,binary,6,1,postResponse,16602622.0,16606056.0,3434.0,6,R,16606179,16606389,212,469.4,969.3,3718,NA
58,1,binary,7,2,fixationCross,16607122.0,16609788.0,2666.0,7,R,16606501,16606513,14,952.4,917.2,3845,likertHorizontal
58,1,binary,7,2,fixationCross,16607122.0,16609788.0,2666.0,7,R,16606741,16606809,70,659.3,384.1,3973,left
58,1,binary,7,2,fixationCross,16607122.0,16609788.0,2666.0,7,R,16606845,16606939,96,876.8,486.1,4033,NA
58,1,binary,7,2,trial,16607122.0,16609788.0,2666.0,7,R,16606975,16607283,310,968.2,548.6,4186,NA
58,1,binary,7,2,trial,16607122.0,16609788.0,2666.0,7,R,16607329,16607607,280,1449.4,486.0,3907,right
58,1,binary,7,2,trial,16607122.0,16609788.0,2666.0,7,R,16607629,16607983,356,1383.7,561.6,3593,right
58,1,binary,7,2,trial,16607122.0,16609788.0,2666.0,7,R,16608049,16608293,246,431.3,575.9,3606,left
58,1,binary,7,2,trial,16607122.0,16609788.0,2666.0,7,R,16608319,16608549,232,571.4,550.9,3621,left
58,1,binary,7,2,trial,16607122.0,16609788.0,2666.0,7,R,16608573,16608705,134,459.4,498.2,3609,left
58,1,binary,7,2,trial,16607122.0,16609788.0,2666.0,7,R,16608771,16609127,358,1452.2,463.1,3480,right
58,1,binary,7,2,trial,16607122.0,16609788.0,2666.0,7,R,16609153,16609509,358,1388.6,558.0,3555,right
58,1,binary,7,2,trial,16607122.0,16609788.0,2666.0,7,R,16609533,16609671,140,1522.0,513.3,3582,right
58,1,binary,7,2,trial,16607122.0,16609788.0,2666.0,7,R,16609739,16610081,344,489.5,577.3,3668,left
58,1,binary,8,2,fixationCross,16610822.0,16612856.0,2034.0,8,R,16610225,16610539,316,858.6,490.6,3722,NA
58,1,binary,8,2,fixationCross,16610822.0,16612856.0,2034.0,8,R,16610563,16610707,146,1008.5,514.5,3931,NA
58,1,binary,8,2,trial,16610822.0,16612856.0,2034.0,8,R,16610723,16610991,270,954.9,538.6,4000,NA
58,1,binary,8,2,trial,16610822.0,16612856.0,2034.0,8,R,16611047,16611467,422,1399.6,473.7,4008,right
58,1,binary,8,2,trial,16610822.0,16612856.0,2034.0,8,R,16611485,16611671,188,1451.5,505.2,3898,right
58,1,binary,8,2,trial,16610822.0,16612856.0,2034.0,8,R,16611685,16611959,276,1390.7,510.5,3853,right
58,1,binary,8,2,trial,16610822.0,16612856.0,2034.0,8,R,16611983,16612119,138,1343.0,383.9,3805,right
58,1,binary,8,2,trial,16610822.0,16612856.0,2034.0,8,R,16612179,16612691,514,459.5,511.8,3873,left
58,1,binary,8,2,trial,16610822.0,16612856.0,2034.0,8,R,16612713,16613137,426,556.3,546.8,3713,left
58,1,binary,9,1,fixationCross,16613839.0,16617505.0,3666.0,9,R,16613265,16613273,10,1020.5,455.1,3654,NA
58,1,binary,9,1,fixationCross,16613839.0,16617505.0,3666.0,9,R,16613495,16613587,94,1024.2,393.9,3980,NA
58,1,binary,9,1,fixationCross,16613839.0,16617505.0,3666.0,9,R,16613607,16613727,122,966.5,476.1,4065,NA
58,1,binary,9,1,trial,16613839.0,16617505.0,3666.0,9,R,16613751,16614085,336,976.3,541.6,4235,NA
58,1,binary,9,1,trial,16613839.0,16617505.0,3666.0,9,R,16614133,16614337,206,555.2,482.6,3977,left
58,1,binary,9,1,trial,16613839.0,16617505.0,3666.0,9,R,16614361,16614645,286,443.6,466.4,3720,left
58,1,binary,9,1,trial,16613839.0,16617505.0,3666.0,9,R,16614671,16614935,266,652.6,541.2,3525,left
58,1,binary,9,1,trial,16613839.0,16617505.0,3666.0,9,R,16614945,16615111,168,659.4,562.5,3539,left
58,1,binary,9,1,trial,16613839.0,16617505.0,3666.0,9,R,16615145,16615327,184,430.0,473.9,3617,left
58,1,binary,9,1,trial,16613839.0,16617505.0,3666.0,9,R,16615343,16615951,610,468.1,448.7,3699,left
58,1,binary,9,1,trial,16613839.0,16617505.0,3666.0,9,R,16615979,16616139,162,668.4,537.0,3714,left
58,1,binary,9,1,trial,16613839.0,16617505.0,3666.0,9,R,16616201,16616425,226,1517.4,453.5,3611,right
58,1,binary,9,1,trial,16613839.0,16617505.0,3666.0,9,R,16616449,16616753,306,1638.8,413.9,3524,right
58,1,binary,9,1,trial,16613839.0,16617505.0,3666.0,9,R,16616793,16617077,286,1263.0,472.0,3524,right
58,1,binary,9,1,trial,16613839.0,16617505.0,3666.0,9,R,16617129,16617385,258,592.1,506.1,3640,left
58,1,binary,9,1,trial,16613839.0,16617505.0,3666.0,9,R,16617409,16617695,288,450.6,452.7,3530,left
58,1,binary,9,1,postResponse,16613839.0,16617505.0,3666.0,9,R,16617737,16617839,104,828.6,477.1,3516,NA
58,1,binary,10,1,fixationCross,16618522.0,16621972.0,3450.0,10,R,16617913,16617937,26,825.3,481.4,3549,NA
58,1,binary,10,1,fixationCross,16618522.0,16621972.0,3450.0,10,R,16617965,16618231,268,1036.2,448.3,3703,NA
58,1,binary,10,1,trial,16618522.0,16621972.0,3450.0,10,R,16618255,16618765,512,976.0,546.1,4119,NA
58,1,binary,10,1,trial,16618522.0,16621972.0,3450.0,10,R,16618823,16619077,256,467.6,482.9,4019,left
58,1,binary,10,1,trial,16618522.0,16621972.0,3450.0,10,R,16619099,16619197,100,546.1,420.0,3853,left
58,1,binary,10,1,trial,16618522.0,16621972.0,3450.0,10,R,16619263,16619477,216,1497.7,488.2,3606,right
58,1,binary,10,1,trial,16618522.0,16621972.0,3450.0,10,R,16619499,16620135,638,1577.1,484.2,3621,right
58,1,binary,10,1,trial,16618522.0,16621972.0,3450.0,10,R,16620163,16620295,134,1361.5,513.6,3690,right
58,1,binary,10,1,trial,16618522.0,16621972.0,3450.0,10,R,16620357,16620605,250,505.0,444.1,3800,left
58,1,binary,10,1,trial,16618522.0,16621972.0,3450.0,10,R,16620625,16620897,274,419.4,398.6,3683,left
58,1,binary,10,1,trial,16618522.0,16621972.0,3450.0,10,R,16620927,16621337,412,543.9,516.7,3567,left
58,1,binary,10,1,trial,16618522.0,16621972.0,3450.0,10,R,16621355,16621457,104,585.8,479.9,3595,left
58,1,binary,10,1,trial,16618522.0,16621972.0,3450.0,10,R,16621483,16621847,366,453.1,551.6,3677,left
58,1,binary,10,1,trial,16618522.0,16621972.0,3450.0,10,R,16621875,16622171,298,440.6,689.8,3723,left
58,1,binary,11,1,fixationCross,16622872.0,16626472.0,3600.0,11,R,16622413,16622423,12,1311.4,290.3,3922,NA
58,1,binary,11,1,fixationCross,16622872.0,16626472.0,3600.0,11,R,16622445,16622485,42,1292.6,390.4,3755,right
58,1,binary,11,1,fixationCross,16622872.0,16626472.0,3600.0,11,R,16622519,16622701,184,1005.0,465.6,3842,NA
58,1,binary,11,1,trial,16622872.0,16626472.0,3600.0,11,R,16622727,16623121,396,967.4,537.1,4103,NA
58,1,binary,11,1,trial,16622872.0,16626472.0,3600.0,11,R,16623165,16623319,156,529.1,496.0,3923,left
58,1,binary,11,1,trial,16622872.0,16626472.0,3600.0,11,R,16623341,16623781,442,436.0,467.0,3650,left
58,1,binary,11,1,trial,16622872.0,16626472.0,3600.0,11,R,16623807,16624175,370,578.2,552.8,3526,left
58,1,binary,11,1,trial,16622872.0,16626472.0,3600.0,11,R,16624193,16624693,502,488.8,539.8,3496,left
58,1,binary,11,1,trial,16622872.0,16626472.0,3600.0,11,R,16624713,16624897,186,437.4,485.8,3497,left
58,1,binary,11,1,trial,16622872.0,16626472.0,3600.0,11,R,16624909,16625309,402,434.6,451.9,3538,left
58,1,binary,11,1,trial,16622872.0,16626472.0,3600.0,11,R,16625381,16625713,334,1467.0,480.1,3532,right
58,1,binary,11,1,trial,16622872.0,16626472.0,3600.0,11,R,16625735,16626231,498,1409.2,552.6,3548,right
58,1,binary,11,1,trial,16622872.0,16626472.0,3600.0,11,R,16626245,16626699,456,1400.2,579.7,3468,right
58,1,binary,12,1,fixationCross,16627572.0,16629422.0,1850.0,12,R,16626881,16626979,100,1763.8,1433.5,3343,NA
58,1,binary,12,1,fixationCross,16627572.0,16629422.0,1850.0,12,R,16627055,16627265,212,757.1,501.9,3834,NA
58,1,binary,12,1,trial,16627572.0,16629422.0,1850.0,12,R,16627303,16627745,444,946.9,559.1,3989,NA
58,1,binary,12,1,trial,16627572.0,16629422.0,1850.0,12,R,16627801,16627939,140,508.6,539.3,4101,left
58,1,binary,12,1,trial,16627572.0,16629422.0,1850.0,12,R,16627963,16628469,508,549.0,551.7,3711,left
58,1,binary,12,1,trial,16627572.0,16629422.0,1850.0,12,R,16628531,16628905,376,1366.1,444.9,3432,right
58,1,binary,12,1,trial,16627572.0,16629422.0,1850.0,12,R,16628925,16629093,170,1455.4,428.0,3430,right
58,1,binary,12,1,postResponse,16627572.0,16629422.0,1850.0,12,R,16629165,16629755,592,474.5,498.2,3477,left
58,1,binary,13,2,fixationCross,16630438.0,16635106.0,4668.0,13,R,16629857,16630135,280,1018.9,476.8,3644,NA
58,1,binary,13,2,fixationCross,16630438.0,16635106.0,4668.0,13,R,16630165,16630277,114,841.6,459.5,3922,NA
58,1,binary,13,2,trial,16630438.0,16635106.0,4668.0,13,R,16630313,16630701,390,950.0,532.2,4104,NA
58,1,binary,13,2,trial,16630438.0,16635106.0,4668.0,13,R,16630745,16631029,286,545.0,485.9,3914,left
58,1,binary,13,2,trial,16630438.0,16635106.0,4668.0,13,R,16631095,16631547,454,1501.4,485.0,3446,right
58,1,binary,13,2,trial,16630438.0,16635106.0,4668.0,13,R,16631565,16631837,274,1407.4,503.4,3503,right
58,1,binary,13,2,trial,16630438.0,16635106.0,4668.0,13,R,16631855,16632005,152,1480.1,511.4,3585,right
58,1,binary,13,2,trial,16630438.0,16635106.0,4668.0,13,R,16632027,16632327,302,1586.4,513.4,3634,right
58,1,binary,13,2,trial,16630438.0,16635106.0,4668.0,13,R,16632351,16632759,410,1396.4,501.8,3699,right
58,1,binary,13,2,trial,16630438.0,16635106.0,4668.0,13,R,16632779,16633163,386,1484.0,502.4,3783,right
58,1,binary,13,2,trial,16630438.0,16635106.0,4668.0,13,R,16633181,16633731,552,1555.1,526.6,3832,right
58,1,binary,13,2,trial,16630438.0,16635106.0,4668.0,13,R,16633755,16633913,160,1418.8,514.0,3861,right
58,1,binary,13,2,trial,16630438.0,16635106.0,4668.0,13,R,16633977,16634279,304,531.6,479.3,3876,left
58,1,binary,13,2,trial,16630438.0,16635106.0,4668.0,13,R,16634303,16634601,300,562.1,562.9,3654,left
58,1,binary,13,2,trial,16630438.0,16635106.0,4668.0,13,R,16634667,16635169,504,1537.8,481.9,3412,right
58,1,binary,13,2,postResponse,16630438.0,16635106.0,4668.0,13,R,16635193,16635441,250,1393.6,494.6,3554,right
58,1,binary,14,1,fixationCross,16636156.0,16637439.0,1283.0,14,R,16635515,16635627,114,1391.8,496.2,3661,right
58,1,binary,14,1,fixationCross,16636156.0,16637439.0,1283.0,14,R,16635681,16635835,156,822.4,409.4,3923,NA
58,1,binary,14,1,fixationCross,16636156.0,16637439.0,1283.0,14,R,16635861,16636003,144,982.1,491.2,4047,NA
58,1,binary,14,1,trial,16636156.0,16637439.0,1283.0,14,R,16636021,16636393,374,969.4,534.2,4161,NA
58,1,binary,14,1,trial,16636156.0,16637439.0,1283.0,14,R,16636437,16636673,238,521.4,530.7,4041,left
58,1,binary,14,1,trial,16636156.0,16637439.0,1283.0,14,R,16636693,16636941,250,533.2,582.2,3739,left
58,1,binary,14,1,trial,16636156.0,16637439.0,1283.0,14,R,16636961,16637153,194,572.1,625.8,3635,left
58,1,binary,14,1,trial,16636156.0,16637439.0,1283.0,14,R,16637181,16637365,186,412.6,516.4,3604,left
58,1,binary,14,1,trial,16636156.0,16637439.0,1283.0,14,R,16637431,16637645,216,1440.7,539.9,3508,right
58,1,binary,15,2,fixationCross,16638339.0,16641789.0,3450.0,15,R,16637873,16638309,438,925.9,446.1,3767,NA
58,1,binary,15,2,trial,16638339.0,16641789.0,3450.0,15,R,16638329,16638489,162,956.7,498.6,3832,NA
58,1,binary,15,2,trial,16638339.0,16641789.0,3450.0,15,R,16638533,16638729,198,542.7,476.8,3939,left
58,1,binary,15,2,trial,16638339.0,16641789.0,3450.0,15,R,16638745,16639123,380,540.8,432.7,3826,left
58,1,binary,15,2,trial,16638339.0,16641789.0,3450.0,15,R,16639185,16639451,268,1441.7,511.7,3518,right
58,1,binary,15,2,trial,16638339.0,16641789.0,3450.0,15,R,16639471,16639635,166,1419.7,579.8,3524,right
58,1,binary,15,2,trial,16638339.0,16641789.0,3450.0,15,R,16639655,16639879,226,1462.1,620.6,3636,right
58,1,binary,15,2,trial,16638339.0,16641789.0,3450.0,15,R,16639913,16640111,200,1448.5,442.5,3634,right
58,1,binary,15,2,trial,16638339.0,16641789.0,3450.0,15,R,16640147,16640419,274,1489.2,695.5,3588,right
58,1,binary,15,2,trial,16638339.0,16641789.0,3450.0,15,R,16640443,16640999,558,1446.5,599.3,3692,right
58,1,binary,15,2,trial,16638339.0,16641789.0,3450.0,15,R,16641021,16641273,254,1499.5,677.5,3826,right
58,1,binary,15,2,trial,16638339.0,16641789.0,3450.0,15,R,16641339,16641645,308,557.2,482.2,4005,left
58,1,binary,15,2,postResponse,16638339.0,16641789.0,3450.0,15,R,16641657,16642123,468,562.0,448.5,3757,left
58,1,binary,16,1,fixationCross,16642689.0,16644073.0,1384.0,16,R,16642209,16642583,376,965.4,487.3,3875,NA
58,1,binary,16,1,trial,16642689.0,16644073.0,1384.0,16,R,16642597,16642933,338,955.6,547.6,4160,NA
58,1,binary,16,1,trial,16642689.0,16644073.0,1384.0,16,R,16642987,16643331,346,502.0,462.4,3942,left
58,1,binary,16,1,trial,16642689.0,16644073.0,1384.0,16,R,16643349,16643499,152,448.6,504.9,3644,left
58,1,binary,16,1,trial,16642689.0,16644073.0,1384.0,16,R,16643567,16644179,614,1420.3,489.0,3457,right
58,1,binary,16,1,trial,16642689.0,16644073.0,1384.0,16,R,16644193,16644317,126,1394.2,451.9,3377,right
58,1,binary,17,1,fixationCross,16645089.0,16646555.0,1466.0,17,R,16644539,16644787,250,735.4,409.1,3614,left
58,1,binary,17,1,trial,16645089.0,16646555.0,1466.0,17,R,16644813,16645267,456,921.3,501.0,3963,NA
58,1,binary,17,1,trial,16645089.0,16646555.0,1466.0,17,R,16645309,16645583,276,539.9,476.2,3893,left
58,1,binary,17,1,trial,16645089.0,16646555.0,1466.0,17,R,16645603,16645747,146,491.6,516.6,3708,left
58,1,binary,17,1,trial,16645089.0,16646555.0,1466.0,17,R,16645809,16646085,278,1334.4,463.0,3380,right
58,1,binary,17,1,trial,16645089.0,16646555.0,1466.0,17,R,16646109,16646485,378,1368.7,391.7,3435,right
58,1,binary,17,1,trial,16645089.0,16646555.0,1466.0,17,R,16646559,16646775,218,496.1,621.1,3746,left
58,1,binary,18,2,fixationCross,16647722.0,16650056.0,2334.0,18,R,16646995,16647021,28,692.3,322.4,3755,NA
58,1,binary,18,2,fixationCross,16647722.0,16650056.0,2334.0,18,R,16647041,16647287,248,688.5,412.2,3708,left
58,1,binary,18,2,fixationCross,16647722.0,16650056.0,2334.0,18,R,16647313,16647415,104,839.7,455.2,3951,NA
58,1,binary,18,2,fixationCross,16647722.0,16650056.0,2334.0,18,R,16647441,16647625,186,936.1,530.8,4055,NA
58,1,binary,18,2,trial,16647722.0,16650056.0,2334.0,18,R,16647635,16647897,264,952.8,554.9,4065,NA
58,1,binary,18,2,trial,16647722.0,16650056.0,2334.0,18,R,16647943,16648237,296,545.9,485.7,3970,left
58,1,binary,18,2,trial,16647722.0,16650056.0,2334.0,18,R,16648257,16648477,222,606.9,521.8,3688,left
58,1,binary,18,2,trial,16647722.0,16650056.0,2334.0,18,R,16648533,16648673,142,1374.1,499.5,3574,right
58,1,binary,18,2,trial,16647722.0,16650056.0,2334.0,18,R,16648697,16649383,688,1338.8,436.6,3582,right
58,1,binary,18,2,trial,16647722.0,16650056.0,2334.0,18,R,16649443,16649783,342,539.8,452.0,3694,left
58,1,binary,18,2,trial,16647722.0,16650056.0,2334.0,18,R,16649807,16649981,176,614.1,499.0,3697,left
58,1,binary,18,2,postResponse,16647722.0,16650056.0,2334.0,18,R,16650049,16650389,342,1411.5,911.7,3621,NA
58,1,binary,19,2,fixationCross,16650989.0,16652873.0,1884.0,19,R,16650465,16650679,216,966.6,375.8,3874,NA
58,1,binary,19,2,fixationCross,16650989.0,16652873.0,1884.0,19,R,16650707,16650809,104,1037.6,482.2,4011,NA
58,1,binary,19,2,trial,16650989.0,16652873.0,1884.0,19,R,16650843,16651223,382,958.6,557.5,4193,NA
58,1,binary,19,2,trial,16650989.0,16652873.0,1884.0,19,R,16651267,16651411,146,1285.5,517.3,4042,right
58,1,binary,19,2,trial,16650989.0,16652873.0,1884.0,19,R,16651437,16651773,338,1476.7,583.3,3818,right
58,1,binary,19,2,trial,16650989.0,16652873.0,1884.0,19,R,16651791,16651945,156,1400.5,581.6,3910,right
58,1,binary,19,2,trial,16650989.0,16652873.0,1884.0,19,R,16652005,16652511,508,563.0,467.9,3849,left
58,1,binary,19,2,trial,16650989.0,16652873.0,1884.0,19,R,16652537,16652767,232,395.4,455.0,3580,left
58,1,binary,19,2,postResponse,16650989.0,16652873.0,1884.0,19,R,16652837,16653205,370,1448.3,603.1,3545,right
58,1,binary,20,1,fixationCross,16653772.0,16658456.0,4684.0,20,R,16653281,16653395,116,1442.5,602.0,3736,right
58,1,binary,20,1,fixationCross,16653772.0,16658456.0,4684.0,20,R,16653447,16653665,220,1002.1,459.2,3988,NA
58,1,binary,20,1,trial,16653772.0,16658456.0,4684.0,20,R,16653691,16653983,294,969.8,531.7,4120,NA
58,1,binary,20,1,trial,16653772.0,16658456.0,4684.0,20,R,16654027,16654467,442,537.4,514.6,4069,left
58,1,binary,20,1,trial,16653772.0,16658456.0,4684.0,20,R,16654491,16654761,272,510.2,403.7,3601,left
58,1,binary,20,1,trial,16653772.0,16658456.0,4684.0,20,R,16654829,16655135,308,1421.1,441.4,3466,right
58,1,binary,20,1,trial,16653772.0,16658456.0,4684.0,20,R,16655153,16655415,264,1445.6,500.4,3566,right
58,1,binary,20,1,trial,16653772.0,16658456.0,4684.0,20,R,16655441,16655603,164,1274.8,401.0,3595,right
58,1,binary,20,1,trial,16653772.0,16658456.0,4684.0,20,R,16655613,16655941,330,1308.0,394.9,3526,right
58,1,binary,20,1,trial,16653772.0,16658456.0,4684.0,20,R,16656001,16656689,690,524.5,484.9,3723,left
58,1,binary,20,1,trial,16653772.0,16658456.0,4684.0,20,R,16656757,16657079,324,1451.7,502.0,3625,right
58,1,binary,20,1,trial,16653772.0,16658456.0,4684.0,20,R,16657105,16657283,180,1281.3,429.8,3671,right
58,1,binary,20,1,trial,16653772.0,16658456.0,4684.0,20,R,16657343,16658079,738,485.7,481.4,3656,left
58,1,binary,20,1,trial,16653772.0,16658456.0,4684.0,20,R,16658151,16658639,490,1429.0,476.7,3533,right
58,1,binary,21,2,fixationCross,16659339.0,16660989.0,1650.0,21,R,16658865,16659033,170,855.7,428.2,3646,NA
58,1,binary,21,2,fixationCross,16659339.0,16660989.0,1650.0,21,R,16659059,16659181,124,1013.9,491.4,3768,NA
58,1,binary,21,2,trial,16659339.0,16660989.0,1650.0,21,R,16659205,16659567,364,954.0,538.6,3983,NA
58,1,binary,21,2,trial,16659339.0,16660989.0,1650.0,21,R,16659609,16659865,258,550.6,517.5,3822,left
58,1,binary,21,2,trial,16659339.0,16660989.0,1650.0,21,R,16659885,16660207,324,466.7,467.9,3479,left
58,1,binary,21,2,trial,16659339.0,16660989.0,1650.0,21,R,16660277,16660679,404,1452.6,482.1,3214,right
58,1,binary,21,2,trial,16659339.0,16660989.0,1650.0,21,R,16660697,16661065,370,1383.7,527.2,3291,right
58,1,binary,21,2,trial,16659339.0,16660989.0,1650.0,21,R,16661123,16661217,96,575.7,457.6,3414,left
58,1,binary,22,2,fixationCross,16662123.0,16665072.0,2949.0,22,R,16661415,16661435,22,780.3,337.3,3561,NA
58,1,binary,22,2,fixationCross,16662123.0,16665072.0,2949.0,22,R,16661453,16661795,344,783.1,439.9,3646,NA
58,1,binary,22,2,fixationCross,16662123.0,16665072.0,2949.0,22,R,16661821,16662019,200,947.9,508.3,3885,NA
58,1,binary,22,2,trial,16662123.0,16665072.0,2949.0,22,R,16662031,16662265,236,966.2,536.7,3929,NA
58,1,binary,22,2,trial,16662123.0,16665072.0,2949.0,22,R,16662303,16662517,216,645.9,462.4,3980,left
58,1,binary,22,2,trial,16662123.0,16665072.0,2949.0,22,R,16662541,16662831,292,524.2,496.8,3647,left
58,1,binary,22,2,trial,16662123.0,16665072.0,2949.0,22,R,16662897,16663695,800,1449.1,515.9,3310,right
58,1,binary,22,2,trial,16662123.0,16665072.0,2949.0,22,R,16663713,16663941,230,1372.9,515.4,3466,right
58,1,binary,22,2,trial,16662123.0,16665072.0,2949.0,22,R,16664007,16664355,350,504.1,478.3,3510,left
58,1,binary,22,2,trial,16662123.0,16665072.0,2949.0,22,R,16664377,16664619,244,581.5,518.9,3400,left
58,1,binary,22,2,trial,16662123.0,16665072.0,2949.0,22,R,16664683,16665101,420,1460.7,550.7,3182,right
58,1,binary,22,2,trial,16662123.0,16665072.0,2949.0,22,R,16665125,16665367,244,1306.8,514.6,3290,right
58,1,binary,23,1,fixationCross,16665940.0,16669040.0,3100.0,23,R,16665479,16665777,300,1003.6,454.6,3591,NA
58,1,binary,23,1,fixationCross,16665940.0,16669040.0,3100.0,23,R,16665801,16665913,114,953.2,531.5,3786,NA
58,1,binary,23,1,trial,16665940.0,16669040.0,3100.0,23,R,16665937,16666189,254,990.6,553.8,3928,NA
58,1,binary,23,1,trial,16665940.0,16669040.0,3100.0,23,R,16666233,16666633,402,583.4,505.4,3768,left
58,1,binary,23,1,trial,16665940.0,16669040.0,3100.0,23,R,16666655,16667011,358,467.9,471.5,3527,left
58,1,binary,23,1,trial,16665940.0,16669040.0,3100.0,23,R,16667079,16667433,356,1420.7,529.6,3443,right
58,1,binary,23,1,trial,16665940.0,16669040.0,3100.0,23,R,16667497,16667849,354,489.4,493.3,3592,left
58,1,binary,23,1,trial,16665940.0,16669040.0,3100.0,23,R,16667869,16668177,310,564.0,471.8,3544,left
58,1,binary,23,1,trial,16665940.0,16669040.0,3100.0,23,R,16668197,16668287,92,470.9,484.4,3550,left
58,1,binary,23,1,trial,16665940.0,16669040.0,3100.0,23,R,16668357,16668799,444,1514.1,483.5,3474,right
58,1,binary,23,1,trial,16665940.0,16669040.0,3100.0,23,R,16668817,16668995,180,1420.0,485.2,3519,right
58,1,binary,23,1,postResponse,16665940.0,16669040.0,3100.0,23,R,16669059,16669373,316,491.0,474.8,3599,left
58,1,binary,24,2,fixationCross,16670589.0,16672073.0,1484.0,24,R,16669447,16669567,122,493.4,472.0,3711,left
58,1,binary,24,2,fixationCross,16670589.0,16672073.0,1484.0,24,R,16669593,16670275,684,674.9,454.8,3935,left
58,1,binary,24,2,trial,16670589.0,16672073.0,1484.0,24,R,16670311,16670717,408,961.0,557.2,4128,NA
58,1,binary,24,2,trial,16670589.0,16672073.0,1484.0,24,R,16670761,16671081,322,551.2,490.5,4049,left
58,1,binary,24,2,trial,16670589.0,16672073.0,1484.0,24,R,16671099,16671383,286,551.2,509.2,3593,left
58,1,binary,24,2,trial,16670589.0,16672073.0,1484.0,24,R,16671449,16671833,386,1435.2,473.6,3306,right
58,1,binary,24,2,trial,16670589.0,16672073.0,1484.0,24,R,16671855,16672071,218,1384.7,555.3,3347,right
58,1,binary,24,2,trial,16670589.0,16672073.0,1484.0,24,R,16672129,16672275,148,574.1,524.8,3491,left
58,1,binary,25,2,fixationCross,16673090.0,16674590.0,1500.0,25,R,16672487,16672501,16,744.0,333.8,3606,NA
58,1,binary,25,2,fixationCross,16673090.0,16674590.0,1500.0,25,R,16672521,16672777,258,742.0,424.0,3605,NA
58,1,binary,25,2,fixationCross,16673090.0,16674590.0,1500.0,25,R,16672803,16672925,124,927.6,524.9,3874,NA
58,1,binary,25,2,trial,16673090.0,16674590.0,1500.0,25,R,16672949,16673295,348,983.5,565.0,3883,NA
58,1,binary,25,2,trial,16673090.0,16674590.0,1500.0,25,R,16673339,16673731,394,514.6,493.7,3570,left
58,1,binary,25,2,trial,16673090.0,16674590.0,1500.0,25,R,16673801,16674283,484,1475.4,464.6,3113,right
58,1,binary,25,2,trial,16673090.0,16674590.0,1500.0,25,R,16674301,16674665,366,1444.9,537.5,3181,right
58,1,binary,25,2,trial,16673090.0,16674590.0,1500.0,25,R,16674703,16674787,86,1453.4,832.1,3208,NA
58,1,binary,26,2,fixationCross,16723890.0,16726373.0,2483.0,26,R,16723095,16723283,190,238.0,41.6,4071,NA
58,1,binary,26,2,fixationCross,16723890.0,16726373.0,2483.0,26,R,16723333,16723445,114,702.7,158.8,3851,NA
58,1,binary,26,2,fixationCross,16723890.0,16726373.0,2483.0,26,R,16723479,16723581,104,810.8,378.9,3855,NA
58,1,binary,26,2,fixationCross,16723890.0,16726373.0,2483.0,26,R,16723605,16723819,216,908.0,511.5,4011,NA
58,1,binary,26,2,trial,16723890.0,16726373.0,2483.0,26,R,16723831,16724127,298,930.6,541.1,4338,NA
58,1,binary,26,2,trial,16723890.0,16726373.0,2483.0,26,R,16724173,16724455,284,500.6,473.0,4190,left
58,1,binary,26,2,trial,16723890.0,16726373.0,2483.0,26,R,16724485,16724625,142,562.9,503.3,3913,left
58,1,binary,26,2,trial,16723890.0,16726373.0,2483.0,26,R,16724683,16724875,194,1394.2,462.1,3665,right
58,1,binary,26,2,trial,16723890.0,16726373.0,2483.0,26,R,16724897,16725503,608,1386.0,399.5,3409,right
58,1,binary,26,2,trial,16723890.0,16726373.0,2483.0,26,R,16725541,16725643,104,1031.3,367.8,3282,NA
58,1,binary,26,2,trial,16723890.0,16726373.0,2483.0,26,R,16725689,16725975,288,496.5,436.9,3355,left
58,1,binary,26,2,trial,16723890.0,16726373.0,2483.0,26,R,16725993,16726121,130,486.7,500.4,3535,left
58,1,binary,26,2,trial,16723890.0,16726373.0,2483.0,26,R,16726187,16726417,232,1466.3,916.9,3614,NA
58,1,binary,26,2,trial,16723890.0,16726373.0,2483.0,26,R,16726439,16726601,164,1368.2,938.1,3686,NA
58,1,binary,27,2,fixationCross,16727490.0,16729423.0,1933.0,27,R,16726863,16727177,316,942.6,368.0,4154,NA
58,1,binary,27,2,trial,16727490.0,16729423.0,1933.0,27,R,16727203,16727513,312,948.9,519.8,4391,NA
58,1,binary,27,2,trial,16727490.0,16729423.0,1933.0,27,R,16727551,16727663,114,1306.8,490.9,4362,right
58,1,binary,27,2,trial,16727490.0,16729423.0,1933.0,27,R,16727723,16727905,184,617.3,528.3,4461,left
58,1,binary,27,2,trial,16727490.0,16729423.0,1933.0,27,R,16727927,16727963,38,555.1,518.0,4424,left
58,1,binary,27,2,trial,16727490.0,16729423.0,1933.0,27,R,16728023,16728327,306,1472.7,496.0,4051,right
58,1,binary,27,2,trial,16727490.0,16729423.0,1933.0,27,R,16728339,16728749,412,1434.3,502.6,4025,right
58,1,binary,27,2,trial,16727490.0,16729423.0,1933.0,27,R,16728813,16728931,120,704.9,485.7,4128,left
58,1,binary,27,2,trial,16727490.0,16729423.0,1933.0,27,R,16728957,16729245,290,537.4,505.6,4084,left
58,1,binary,27,2,trial,16727490.0,16729423.0,1933.0,27,R,16729307,16729677,372,1439.3,514.3,3740,right
58,1,binary,27,2,postResponse,16727490.0,16729423.0,1933.0,27,R,16729721,16729757,38,976.6,466.5,3752,NA
58,1,binary,28,1,fixationCross,16730340.0,16732323.0,1983.0,28,R,16729857,16730199,344,979.8,468.5,3994,NA
58,1,binary,28,1,trial,16730340.0,16732323.0,1983.0,28,R,16730217,16730345,130,911.9,475.6,4265,NA
58,1,binary,28,1,trial,16730340.0,16732323.0,1983.0,28,R,16730363,16730543,182,930.3,518.9,4351,NA
58,1,binary,28,1,trial,16730340.0,16732323.0,1983.0,28,R,16730595,16730857,264,1439.8,480.8,4271,right
58,1,binary,28,1,trial,16730340.0,16732323.0,1983.0,28,R,16730875,16730981,108,1381.8,444.5,4116,right
58,1,binary,28,1,trial,16730340.0,16732323.0,1983.0,28,R,16731043,16731331,290,422.3,522.4,3895,left
58,1,binary,28,1,trial,16730340.0,16732323.0,1983.0,28,R,16731353,16731759,408,510.2,526.6,3734,left
58,1,binary,28,1,trial,16730340.0,16732323.0,1983.0,28,R,16731821,16732107,288,1392.8,433.3,3523,right
58,1,binary,28,1,trial,16730340.0,16732323.0,1983.0,28,R,16732137,16732249,114,1382.3,612.2,3574,right
58,1,binary,28,1,trial,16730340.0,16732323.0,1983.0,28,R,16732315,16732533,220,427.4,700.9,3814,left
58,1,binary,29,1,fixationCross,16733440.0,16735057.0,1617.0,29,R,16732735,16733003,270,815.7,268.0,3971,NA
58,1,binary,29,1,fixationCross,16733440.0,16735057.0,1617.0,29,R,16733031,16733129,100,797.0,379.4,4168,NA
58,1,binary,29,1,fixationCross,16733440.0,16735057.0,1617.0,29,R,16733157,16733355,200,903.8,502.8,4281,NA
58,1,binary,29,1,trial,16733440.0,16735057.0,1617.0,29,R,16733371,16733669,300,917.9,526.5,4343,NA
58,1,binary,29,1,trial,16733440.0,16735057.0,1617.0,29,R,16733711,16734015,306,496.2,477.0,4089,left
58,1,binary,29,1,trial,16733440.0,16735057.0,1617.0,29,R,16734077,16734471,396,1408.2,463.8,3577,right
58,1,binary,29,1,trial,16733440.0,16735057.0,1617.0,29,R,16734495,16734591,98,1289.9,498.1,3477,right
58,1,binary,29,1,trial,16733440.0,16735057.0,1617.0,29,R,16734649,16734997,350,468.3,463.9,3497,left
58,1,binary,29,1,postResponse,16733440.0,16735057.0,1617.0,29,R,16735017,16735391,376,413.9,502.6,3458,left
58,1,binary,30,1,fixationCross,16736073.0,16737790.0,1717.0,30,R,16735491,16735505,16,415.1,500.9,3502,left
58,1,binary,30,1,fixationCross,16736073.0,16737790.0,1717.0,30,R,16735551,16735775,226,795.8,460.6,3623,NA
58,1,binary,30,1,fixationCross,16736073.0,16737790.0,1717.0,30,R,16735797,16735975,180,931.4,498.5,3816,NA
58,1,binary,30,1,trial,16736073.0,16737790.0,1717.0,30,R,16735983,16736231,250,912.4,518.1,4044,NA
58,1,binary,30,1,trial,16736073.0,16737790.0,1717.0,30,R,16736261,16736491,232,1242.0,514.7,4040,right
58,1,binary,30,1,trial,16736073.0,16737790.0,1717.0,30,R,16736541,16736701,162,602.4,472.5,3722,left
58,1,binary,30,1,trial,16736073.0,16737790.0,1717.0,30,R,16736731,16737441,712,429.5,519.0,3580,left
58,1,binary,30,1,trial,16736073.0,16737790.0,1717.0,30,R,16737511,16737967,458,1409.6,512.2,3588,right
58,1,binary,31,2,fixationCross,16738690.0,16739874.0,1184.0,31,R,16738225,16738397,174,1119.5,390.9,3678,NA
58,1,binary,31,2,fixationCross,16738690.0,16739874.0,1184.0,31,R,16738423,16738641,220,969.1,467.0,3955,NA
58,1,binary,31,2,trial,16738690.0,16739874.0,1184.0,31,R,16738663,16738917,256,905.0,527.2,4027,NA
58,1,binary,31,2,trial,16738690.0,16739874.0,1184.0,31,R,16738961,16739455,496,1351.5,502.0,3704,right
58,1,binary,31,2,trial,16738690.0,16739874.0,1184.0,31,R,16739521,16739787,268,418.9,455.8,3410,left
58,1,binary,31,2,postResponse,16738690.0,16739874.0,1184.0,31,R,16739845,16740223,380,1246.2,511.6,3470,right
58,1,binary,32,2,fixationCross,16741074.0,16742506.0,1432.0,32,R,16740377,16740785,410,849.6,447.1,3817,NA
58,1,binary,32,2,trial,16741074.0,16742506.0,1432.0,32,R,16740807,16741309,504,902.8,520.1,4184,NA
58,1,binary,32,2,trial,16741074.0,16742506.0,1432.0,32,R,16741357,16741597,242,1384.5,525.5,3995,right
58,1,binary,32,2,trial,16741074.0,16742506.0,1432.0,32,R,16741665,16741923,260,365.3,486.1,3690,left
58,1,binary,32,2,trial,16741074.0,16742506.0,1432.0,32,R,16741945,16742163,220,458.1,493.6,3509,left
58,1,binary,32,2,trial,16741074.0,16742506.0,1432.0,32,R,16742229,16742657,430,1418.7,486.9,3366,right
58,1,binary,33,1,fixationCross,16743423.0,16745873.0,2450.0,33,R,16742939,16742973,36,808.8,370.8,3464,NA
58,1,binary,33,1,fixationCross,16743423.0,16745873.0,2450.0,33,R,16742997,16743251,256,962.6,448.8,3659,NA
58,1,binary,33,1,trial,16743423.0,16745873.0,2450.0,33,R,16743273,16743655,384,907.8,508.8,4011,NA
58,1,binary,33,1,trial,16743423.0,16745873.0,2450.0,33,R,16743711,16744007,298,403.9,503.7,3852,left
58,1,binary,33,1,trial,16743423.0,16745873.0,2450.0,33,R,16744017,16744331,316,424.7,483.0,3574,left
58,1,binary,33,1,trial,16743423.0,16745873.0,2450.0,33,R,16744341,16744485,146,460.7,480.7,3479,left
58,1,binary,33,1,trial,16743423.0,16745873.0,2450.0,33,R,16744493,16744649,158,433.9,487.0,3496,left
58,1,binary,33,1,trial,16743423.0,16745873.0,2450.0,33,R,16744721,16744957,238,1461.3,473.8,3485,right
58,1,binary,33,1,trial,16743423.0,16745873.0,2450.0,33,R,16744983,16745297,316,1305.6,398.0,3494,right
58,1,binary,33,1,trial,16743423.0,16745873.0,2450.0,33,R,16745319,16745473,156,1384.5,470.0,3446,right
58,1,binary,33,1,trial,16743423.0,16745873.0,2450.0,33,R,16745535,16745753,220,467.4,492.8,3545,left
58,1,binary,33,1,trial,16743423.0,16745873.0,2450.0,33,R,16745769,16745943,176,418.7,499.9,3516,left
58,1,binary,33,1,trial,16743423.0,16745873.0,2450.0,33,R,16745953,16746071,120,391.9,499.1,3524,left
58,1,binary,34,1,fixationCross,16746974.0,16749607.0,2633.0,34,R,16746283,16746675,394,862.8,394.9,3709,NA
58,1,binary,34,1,trial,16746974.0,16749607.0,2633.0,34,R,16746699,16747015,318,921.3,478.9,3984,NA
58,1,binary,34,1,trial,16746974.0,16749607.0,2633.0,34,R,16747037,16747199,164,908.9,542.8,4035,NA
58,1,binary,34,1,trial,16746974.0,16749607.0,2633.0,34,R,16747247,16747463,218,421.3,462.5,3889,left
58,1,binary,34,1,trial,16746974.0,16749607.0,2633.0,34,R,16747481,16747819,340,438.0,402.9,3638,left
58,1,binary,34,1,trial,16746974.0,16749607.0,2633.0,34,R,16747885,16748283,400,1383.6,414.7,3381,right
58,1,binary,34,1,trial,16746974.0,16749607.0,2633.0,34,R,16748307,16748479,174,1314.5,524.6,3380,right
58,1,binary,34,1,trial,16746974.0,16749607.0,2633.0,34,R,16748491,16748867,378,1282.9,548.2,3403,right
58,1,binary,34,1,trial,16746974.0,16749607.0,2633.0,34,R,16748901,16749067,168,1443.2,409.7,3399,right
58,1,binary,34,1,trial,16746974.0,16749607.0,2633.0,34,R,16749133,16749377,246,457.1,461.5,3508,left
58,1,binary,34,1,trial,16746974.0,16749607.0,2633.0,34,R,16749391,16749621,232,421.8,428.3,3503,left
58,1,binary,34,1,trial,16746974.0,16749607.0,2633.0,34,R,16749631,16749849,220,430.8,406.5,3503,left
58,1,binary,34,1,postResponse,16746974.0,16749607.0,2633.0,34,R,16749897,16749955,60,929.0,431.1,3505,NA
58,1,binary,35,1,fixationCross,16750523.0,16753540.0,3017.0,35,R,16750031,16750217,188,928.5,434.5,3594,NA
58,1,binary,35,1,fixationCross,16750523.0,16753540.0,3017.0,35,R,16750239,16750315,78,961.4,483.5,3758,NA
58,1,binary,35,1,trial,16750523.0,16753540.0,3017.0,35,R,16750335,16750755,422,898.6,519.4,3993,NA
58,1,binary,35,1,trial,16750523.0,16753540.0,3017.0,35,R,16750799,16750937,140,1375.4,556.2,3873,right
58,1,binary,35,1,trial,16750523.0,16753540.0,3017.0,35,R,16750951,16751133,184,1325.8,523.9,3657,right
58,1,binary,35,1,trial,16750523.0,16753540.0,3017.0,35,R,16751193,16751889,698,432.8,430.5,3435,left
58,1,binary,35,1,trial,16750523.0,16753540.0,3017.0,35,R,16751955,16752167,214,1353.2,485.7,3292,right
58,1,binary,35,1,trial,16750523.0,16753540.0,3017.0,35,R,16752181,16752789,610,1324.1,511.8,3389,right
58,1,binary,35,1,trial,16750523.0,16753540.0,3017.0,35,R,16752817,16752945,130,1313.0,367.1,3400,right
58,1,binary,35,1,trial,16750523.0,16753540.0,3017.0,35,R,16753007,16753537,532,445.8,469.7,3491,left
58,1,binary,35,1,trial,16750523.0,16753540.0,3017.0,35,R,16753565,16753797,234,623.3,416.1,3430,left
58,1,binary,35,1,postResponse,16750523.0,16753540.0,3017.0,35,R,16753839,16753873,36,975.6,511.8,3419,NA
58,1,binary,36,2,fixationCross,16754407.0,16756291.0,1884.0,36,R,16753947,16754189,244,972.3,517.7,3532,NA
58,1,binary,36,2,fixationCross,16754407.0,16756291.0,1884.0,36,R,16754203,16754333,132,935.9,491.0,3767,NA
58,1,binary,36,2,trial,16754407.0,16756291.0,1884.0,36,R,16754349,16754623,276,901.1,523.9,3946,NA
58,1,binary,36,2,trial,16754407.0,16756291.0,1884.0,36,R,16754671,16754971,302,416.1,487.5,3760,left
58,1,binary,36,2,trial,16754407.0,16756291.0,1884.0,36,R,16754995,16755291,298,518.0,440.7,3406,left
58,1,binary,36,2,trial,16754407.0,16756291.0,1884.0,36,R,16755313,16755485,174,397.2,402.4,3260,left
58,1,binary,36,2,trial,16754407.0,16756291.0,1884.0,36,R,16755551,16756025,476,1386.0,444.6,3244,right
58,1,binary,36,2,trial,16754407.0,16756291.0,1884.0,36,R,16756043,16756349,308,1346.3,503.3,3455,right
58,1,binary,36,2,trial,16754407.0,16756291.0,1884.0,36,R,16756371,16756481,112,1461.4,479.6,3458,right
58,1,binary,37,1,fixationCross,16757374.0,16758774.0,1400.0,37,R,16756741,16756875,136,1217.0,351.6,3593,right
58,1,binary,37,1,fixationCross,16757374.0,16758774.0,1400.0,37,R,16756913,16757079,168,889.3,445.2,3817,NA
58,1,binary,37,1,trial,16757374.0,16758774.0,1400.0,37,R,16757101,16757593,494,909.0,508.2,4015,NA
58,1,binary,37,1,trial,16757374.0,16758774.0,1400.0,37,R,16757641,16757899,260,1357.4,465.5,3629,right
58,1,binary,37,1,trial,16757374.0,16758774.0,1400.0,37,R,16757961,16758387,428,438.0,490.5,3338,left
58,1,binary,37,1,trial,16757374.0,16758774.0,1400.0,37,R,16758409,16758793,386,527.1,443.2,3192,left
58,1,binary,37,1,trial,16757374.0,16758774.0,1400.0,37,R,16758817,16759023,208,393.5,503.0,3210,left
58,1,binary,37,1,postResponse,16757374.0,16758774.0,1400.0,37,R,16759077,16759123,48,762.2,395.5,3296,NA
58,1,binary,38,2,fixationCross,16760007.0,16761757.0,1750.0,38,R,16759223,16759343,122,764.8,422.2,3329,NA
58,1,binary,38,2,fixationCross,16760007.0,16761757.0,1750.0,38,R,16759369,16759603,236,943.5,397.2,3531,NA
58,1,binary,38,2,fixationCross,16760007.0,16761757.0,1750.0,38,R,16759623,16759765,144,902.3,453.8,3735,NA
58,1,binary,38,2,trial,16760007.0,16761757.0,1750.0,38,R,16759783,16760229,448,907.1,512.5,3919,NA
58,1,binary,38,2,trial,16760007.0,16761757.0,1750.0,38,R,16760279,16760669,392,1407.3,499.2,3720,right
58,1,binary,38,2,trial,16760007.0,16761757.0,1750.0,38,R,16760735,16760977,244,557.4,497.2,3558,left
58,1,binary,38,2,trial,16760007.0,16761757.0,1750.0,38,R,16761003,16761291,290,399.7,497.0,3537,left
58,1,binary,38,2,trial,16760007.0,16761757.0,1750.0,38,R,16761317,16761491,176,433.3,409.2,3528,left
58,1,binary,38,2,trial,16760007.0,16761757.0,1750.0,38,R,16761519,16761647,130,595.3,596.5,3504,left
58,1,binary,38,2,trial,16760007.0,16761757.0,1750.0,38,R,16761703,16761949,248,1373.0,500.6,3412,right
58,1,binary,39,1,fixationCross,16762757.0,16765473.0,2716.0,39,R,16762169,16762185,18,1263.7,249.3,3691,NA
58,1,binary,39,1,fixationCross,16762757.0,16765473.0,2716.0,39,R,16762211,16762333,124,1248.5,375.5,3525,right
58,1,binary,39,1,fixationCross,16762757.0,16765473.0,2716.0,39,R,16762369,16762509,142,885.2,466.3,3748,NA
58,1,binary,39,1,trial,16762757.0,16765473.0,2716.0,39,R,16762533,16762963,432,915.5,511.9,3909,NA
58,1,binary,39,1,trial,16762757.0,16765473.0,2716.0,39,R,16763007,16763347,342,438.3,503.9,3743,left
58,1,binary,39,1,trial,16762757.0,16765473.0,2716.0,39,R,16763371,16763581,212,322.8,436.4,3428,left
58,1,binary,39,1,trial,16762757.0,16765473.0,2716.0,39,R,16763651,16763875,226,1376.3,471.3,3209,right
58,1,binary,39,1,trial,16762757.0,16765473.0,2716.0,39,R,16763897,16764241,346,1277.0,432.1,3171,right
58,1,binary,39,1,trial,16762757.0,16765473.0,2716.0,39,R,16764301,16764501,202,503.7,466.9,3281,left
58,1,binary,39,1,trial,16762757.0,16765473.0,2716.0,39,R,16764559,16764783,226,1352.0,444.4,3246,right
58,1,binary,39,1,trial,16762757.0,16765473.0,2716.0,39,R,16764801,16764913,114,1271.1,427.8,3277,right
58,1,binary,39,1,trial,16762757.0,16765473.0,2716.0,39,R,16764973,16765289,318,445.5,476.2,3445,left
58,1,binary,39,1,trial,16762757.0,16765473.0,2716.0,39,R,16765323,16765475,154,385.2,589.1,3432,left
58,1,binary,39,1,trial,16762757.0,16765473.0,2716.0,39,R,16765495,16765677,184,293.2,536.9,3347,left
58,1,binary,39,1,postResponse,16762757.0,16765473.0,2716.0,39,R,16765783,16765819,38,699.1,366.3,3373,left
58,1,binary,40,2,fixationCross,16766391.0,16768790.0,2399.0,40,R,16765919,16766053,136,694.8,416.1,3350,left
58,1,binary,40,2,fixationCross,16766391.0,16768790.0,2399.0,40,R,16766079,16766321,244,902.4,472.4,3542,NA
58,1,binary,40,2,trial,16766391.0,16768790.0,2399.0,40,R,16766335,16766589,256,900.1,513.9,3754,NA
58,1,binary,40,2,trial,16766391.0,16768790.0,2399.0,40,R,16766637,16766783,148,482.3,446.6,3823,left
58,1,binary,40,2,trial,16766391.0,16768790.0,2399.0,40,R,16766803,16767177,376,532.4,413.5,3655,left
58,1,binary,40,2,trial,16766391.0,16768790.0,2399.0,40,R,16767205,16767353,150,377.9,498.9,3535,left
58,1,binary,40,2,trial,16766391.0,16768790.0,2399.0,40,R,16767415,16767725,312,1314.3,495.8,3486,right
58,1,binary,40,2,trial,16766391.0,16768790.0,2399.0,40,R,16767747,16768153,408,1374.3,482.2,3643,right
58,1,binary,40,2,trial,16766391.0,16768790.0,2399.0,40,R,16768179,16768385,208,1219.4,527.2,3847,right
58,1,binary,40,2,trial,16766391.0,16768790.0,2399.0,40,R,16768409,16768637,230,1336.6,495.1,3898,right
58,1,binary,40,2,trial,16766391.0,16768790.0,2399.0,40,R,16768651,16768879,230,1377.0,491.0,3940,right
58,1,binary,40,2,postResponse,16766391.0,16768790.0,2399.0,40,R,16768933,16769137,206,705.3,417.0,4005,left
58,1,binary,41,1,fixationCross,16769957.0,16771174.0,1217.0,41,R,16769237,16769435,200,708.6,414.1,3953,left
58,1,binary,41,1,fixationCross,16769957.0,16771174.0,1217.0,41,R,16769457,16769637,182,793.4,475.5,3969,NA
58,1,binary,41,1,trial,16769957.0,16771174.0,1217.0,41,R,16769663,16770127,466,911.3,540.1,4151,NA
58,1,binary,41,1,trial,16769957.0,16771174.0,1217.0,41,R,16770171,16770401,232,478.4,480.6,4027,left
58,1,binary,41,1,trial,16769957.0,16771174.0,1217.0,41,R,16770417,16770659,244,511.8,473.8,3587,left
58,1,binary,41,1,trial,16769957.0,16771174.0,1217.0,41,R,16770719,16771203,486,1379.8,412.2,3211,right
58,1,binary,41,1,trial,16769957.0,16771174.0,1217.0,41,R,16771223,16771349,128,1438.0,478.2,3239,right
58,1,binary,42,1,fixationCross,16772140.0,16773824.0,1684.0,42,R,16771585,16771609,26,938.9,304.7,3548,NA
58,1,binary,42,1,fixationCross,16772140.0,16773824.0,1684.0,42,R,16771619,16771827,210,922.9,371.6,3537,NA
58,1,binary,42,1,trial,16772140.0,16773824.0,1684.0,42,R,16771855,16772333,480,897.9,511.1,3869,NA
58,1,binary,42,1,trial,16772140.0,16773824.0,1684.0,42,R,16772375,16772653,280,489.6,485.6,3754,left
58,1,binary,42,1,trial,16772140.0,16773824.0,1684.0,42,R,16772675,16772809,136,534.9,554.9,3606,left
58,1,binary,42,1,trial,16772140.0,16773824.0,1684.0,42,R,16772871,16773235,366,1406.8,464.7,3424,right
58,1,binary,42,1,trial,16772140.0,16773824.0,1684.0,42,R,16773257,16773597,342,1290.0,446.0,3425,right
58,1,binary,42,1,postResponse,16772140.0,16773824.0,1684.0,42,R,16773655,16774157,504,562.6,521.9,3534,left
58,1,binary,43,1,fixationCross,16774707.0,16780541.0,5834.0,43,R,16774231,16774309,80,564.3,526.7,3621,left
58,1,binary,43,1,fixationCross,16774707.0,16780541.0,5834.0,43,R,16774361,16774587,228,973.0,463.1,3714,NA
58,1,binary,43,1,trial,16774707.0,16780541.0,5834.0,43,R,16774605,16774901,298,904.8,490.3,3902,NA
58,1,binary,43,1,trial,16774707.0,16780541.0,5834.0,43,R,16774949,16775197,250,414.7,509.8,3908,left
58,1,binary,43,1,trial,16774707.0,16780541.0,5834.0,43,R,16775265,16775611,348,1371.2,436.3,3365,right
58,1,binary,43,1,trial,16774707.0,16780541.0,5834.0,43,R,16775631,16775981,352,1377.8,353.2,3143,right
58,1,binary,43,1,trial,16774707.0,16780541.0,5834.0,43,R,16776001,16776315,316,1374.2,429.1,3167,right
58,1,binary,43,1,trial,16774707.0,16780541.0,5834.0,43,R,16776343,16776711,370,1237.2,498.7,3414,right
58,1,binary,43,1,trial,16774707.0,16780541.0,5834.0,43,R,16776773,16777105,334,444.2,430.8,3561,left
58,1,binary,43,1,trial,16774707.0,16780541.0,5834.0,43,R,16777121,16777627,508,441.2,388.2,3449,left
58,1,binary,43,1,trial,16774707.0,16780541.0,5834.0,43,R,16777655,16777839,186,417.4,514.0,3474,left
58,1,binary,43,1,trial,16774707.0,16780541.0,5834.0,43,R,16777853,16778285,434,446.9,477.5,3420,left
58,1,binary,43,1,trial,16774707.0,16780541.0,5834.0,43,R,16778309,16778445,138,441.4,400.5,3407,left
58,1,binary,43,1,trial,16774707.0,16780541.0,5834.0,43,R,16778463,16778603,142,455.4,360.0,3398,left
58,1,binary,43,1,trial,16774707.0,16780541.0,5834.0,43,R,16778667,16778931,266,1368.1,378.6,3312,right
58,1,binary,43,1,trial,16774707.0,16780541.0,5834.0,43,R,16778951,16779281,332,1404.5,365.1,3272,right
58,1,binary,43,1,trial,16774707.0,16780541.0,5834.0,43,R,16779295,16779541,248,1395.0,326.3,3258,NA
58,1,binary,43,1,trial,16774707.0,16780541.0,5834.0,43,R,16779581,16779899,320,1298.5,523.1,3257,right
58,1,binary,43,1,trial,16774707.0,16780541.0,5834.0,43,R,16779921,16780229,310,1381.4,468.2,3284,right
58,1,binary,43,1,trial,16774707.0,16780541.0,5834.0,43,R,16780253,16780331,80,1318.8,386.7,3288,right
58,1,binary,43,1,trial,16774707.0,16780541.0,5834.0,43,R,16780373,16780497,126,918.9,390.1,3345,NA
58,1,binary,43,1,trial,16774707.0,16780541.0,5834.0,43,R,16780545,16780757,214,398.6,465.0,3355,left
58,1,binary,44,2,fixationCross,16781424.0,16783641.0,2217.0,44,R,16780971,16780983,14,767.5,276.6,3596,NA
58,1,binary,44,2,fixationCross,16781424.0,16783641.0,2217.0,44,R,16781001,16781085,86,749.4,357.6,3510,NA
58,1,binary,44,2,fixationCross,16781424.0,16783641.0,2217.0,44,R,16781121,16781269,150,997.6,451.5,3642,NA
58,1,binary,44,2,trial,16781424.0,16783641.0,2217.0,44,R,16781295,16781425,132,862.7,522.7,3823,NA
58,1,binary,44,2,trial,16781424.0,16783641.0,2217.0,44,R,16781435,16781607,174,892.6,518.6,3906,NA
58,1,binary,44,2,trial,16781424.0,16783641.0,2217.0,44,R,16781649,16781857,210,476.5,444.1,3811,left
58,1,binary,44,2,trial,16781424.0,16783641.0,2217.0,44,R,16781873,16782383,512,478.8,374.7,3482,left
58,1,binary,44,2,trial,16781424.0,16783641.0,2217.0,44,R,16782445,16782775,332,1355.3,470.9,3401,right
58,1,binary,44,2,trial,16781424.0,16783641.0,2217.0,44,R,16782801,16783085,286,1494.2,559.3,3479,right
58,1,binary,44,2,trial,16781424.0,16783641.0,2217.0,44,R,16783109,16783357,250,1329.2,469.9,3444,right
58,1,binary,44,2,trial,16781424.0,16783641.0,2217.0,44,R,16783375,16783705,332,1254.9,497.2,3468,right
58,1,binary,44,2,postResponse,16781424.0,16783641.0,2217.0,44,R,16783731,16783987,258,1327.3,604.5,3498,right
58,1,binary,45,2,fixationCross,16784757.0,16786308.0,1551.0,45,R,16784103,16784311,210,973.8,388.4,3605,NA
58,1,binary,45,2,fixationCross,16784757.0,16786308.0,1551.0,45,R,16784337,16784467,132,804.8,418.7,3766,NA
58,1,binary,45,2,trial,16784757.0,16786308.0,1551.0,45,R,16784493,16784927,436,907.6,510.9,3951,NA
58,1,binary,45,2,trial,16784757.0,16786308.0,1551.0,45,R,16784973,16785205,234,391.2,483.9,3903,left
58,1,binary,45,2,trial,16784757.0,16786308.0,1551.0,45,R,16785227,16785371,146,439.6,468.5,3577,left
58,1,binary,45,2,trial,16784757.0,16786308.0,1551.0,45,R,16785437,16785653,218,1426.0,471.2,3286,right
58,1,binary,45,2,trial,16784757.0,16786308.0,1551.0,45,R,16785677,16785955,280,1295.7,515.9,3231,right
58,1,binary,45,2,trial,16784757.0,16786308.0,1551.0,45,R,16785965,16786297,334,1305.4,536.4,3204,right
58,1,binary,45,2,trial,16784757.0,16786308.0,1551.0,45,R,16786339,16786527,190,1394.0,858.3,3195,NA
58,1,binary,45,2,postResponse,16784757.0,16786308.0,1551.0,45,R,16786583,16786643,62,1120.3,393.2,3368,NA
58,1,binary,46,2,fixationCross,16787507.0,16789541.0,2034.0,46,R,16786743,16786801,60,1117.0,405.6,3552,NA
58,1,binary,46,2,fixationCross,16787507.0,16789541.0,2034.0,46,R,16786839,16787203,366,862.8,393.5,3803,NA
58,1,binary,46,2,fixationCross,16787507.0,16789541.0,2034.0,46,R,16787227,16787459,234,904.0,494.5,3957,NA
58,1,binary,46,2,trial,16787507.0,16789541.0,2034.0,46,R,16787473,16787681,210,898.4,529.2,4027,NA
58,1,binary,46,2,trial,16787507.0,16789541.0,2034.0,46,R,16787727,16787917,192,478.8,492.1,3920,left
58,1,binary,46,2,trial,16787507.0,16789541.0,2034.0,46,R,16787935,16788121,188,411.2,419.7,3551,left
58,1,binary,46,2,trial,16787507.0,16789541.0,2034.0,46,R,16788147,16788279,134,451.8,548.5,3397,left
58,1,binary,46,2,trial,16787507.0,16789541.0,2034.0,46,R,16788341,16788617,278,1338.4,476.7,3307,right
58,1,binary,46,2,trial,16787507.0,16789541.0,2034.0,46,R,16788641,16788835,196,1401.8,587.1,3423,right
58,1,binary,46,2,trial,16787507.0,16789541.0,2034.0,46,R,16788847,16789157,312,1365.0,612.7,3577,right
58,1,binary,46,2,trial,16787507.0,16789541.0,2034.0,46,R,16789183,16789551,370,1451.5,550.0,3556,right
58,1,binary,46,2,trial,16787507.0,16789541.0,2034.0,46,R,16789605,16789805,202,743.2,496.7,3653,NA
58,1,binary,46,2,postResponse,16787507.0,16789541.0,2034.0,46,R,16789837,16789875,40,989.5,520.5,3667,NA
58,1,binary,47,1,fixationCross,16790708.0,16792608.0,1900.0,47,R,16789975,16790107,134,991.7,520.6,3766,NA
58,1,binary,47,1,fixationCross,16790708.0,16792608.0,1900.0,47,R,16790143,16790393,252,764.5,457.8,3967,NA
58,1,binary,47,1,trial,16790708.0,16792608.0,1900.0,47,R,16790427,16790869,444,893.1,533.9,4132,NA
58,1,binary,47,1,trial,16790708.0,16792608.0,1900.0,47,R,16790911,16791123,214,547.2,468.5,4087,left
58,1,binary,47,1,trial,16790708.0,16792608.0,1900.0,47,R,16791143,16791311,170,588.2,455.4,3676,left
58,1,binary,47,1,trial,16790708.0,16792608.0,1900.0,47,R,16791369,16791595,228,1379.4,449.6,3360,right
58,1,binary,47,1,trial,16790708.0,16792608.0,1900.0,47,R,16791611,16791823,214,1322.5,453.2,3288,right
58,1,binary,47,1,trial,16790708.0,16792608.0,1900.0,47,R,16791841,16791997,158,1391.6,449.0,3270,right
58,1,binary,47,1,trial,16790708.0,16792608.0,1900.0,47,R,16792057,16792289,234,550.9,445.7,3403,left
58,1,binary,47,1,postResponse,16790708.0,16792608.0,1900.0,47,R,16792299,16792941,644,589.0,452.1,3490,left
58,1,binary,48,2,fixationCross,16793674.0,16795257.0,1583.0,48,R,16793017,16793099,84,596.3,463.0,3557,left
58,1,binary,48,2,fixationCross,16793674.0,16795257.0,1583.0,48,R,16793145,16793399,256,980.8,432.9,3707,NA
58,1,binary,48,2,trial,16793674.0,16795257.0,1583.0,48,R,16793419,16793909,492,920.9,482.3,3988,NA
58,1,binary,48,2,trial,16793674.0,16795257.0,1583.0,48,R,16793955,16794477,524,434.2,504.6,3725,left
58,1,binary,48,2,trial,16793674.0,16795257.0,1583.0,48,R,16794501,16794629,130,553.8,511.3,3350,left
58,1,binary,48,2,trial,16793674.0,16795257.0,1583.0,48,R,16794687,16795031,346,1402.2,430.7,3215,right
58,1,binary,48,2,trial,16793674.0,16795257.0,1583.0,48,R,16795053,16795305,254,1298.1,482.5,3296,right
58,1,binary,48,2,postResponse,16793674.0,16795257.0,1583.0,48,R,16795357,16795591,236,640.6,488.7,3370,left
58,1,binary,49,1,fixationCross,16796441.0,16798558.0,2117.0,49,R,16795691,16796149,460,869.0,427.6,3541,NA
58,1,binary,49,1,trial,16796441.0,16798558.0,2117.0,49,R,16796167,16796499,334,898.5,494.9,3890,NA
58,1,binary,49,1,trial,16796441.0,16798558.0,2117.0,49,R,16796523,16796629,108,911.0,532.3,3974,NA
58,1,binary,49,1,trial,16796441.0,16798558.0,2117.0,49,R,16796675,16797033,360,486.5,508.6,3706,left
58,1,binary,49,1,trial,16796441.0,16798558.0,2117.0,49,R,16797097,16797405,310,1402.1,488.6,3266,right
58,1,binary,49,1,trial,16796441.0,16798558.0,2117.0,49,R,16797425,16797843,420,1287.8,497.8,3147,right
58,1,binary,49,1,trial,16796441.0,16798558.0,2117.0,49,R,16797863,16797981,120,1389.5,504.2,3090,right
58,1,binary,49,1,trial,16796441.0,16798558.0,2117.0,49,R,16798045,16798403,360,393.3,560.7,3208,left
58,1,binary,49,1,trial,16796441.0,16798558.0,2117.0,49,R,16798421,16798723,304,376.5,499.6,3285,left
58,1,binary,50,1,fixationCross,16799724.0,16803341.0,3617.0,50,R,16798977,16799315,340,640.9,407.4,3420,left
58,1,binary,50,1,fixationCross,16799724.0,16803341.0,3617.0,50,R,16799339,16799411,74,766.0,452.9,3661,NA
58,1,binary,50,1,trial,16799724.0,16803341.0,3617.0,50,R,16799437,16799903,468,905.7,510.7,3738,NA
58,1,binary,50,1,trial,16799724.0,16803341.0,3617.0,50,R,16799947,16800417,472,445.0,418.0,3561,left
58,1,binary,50,1,trial,16799724.0,16803341.0,3617.0,50,R,16800441,16800577,138,448.6,485.1,3424,left
58,1,binary,50,1,trial,16799724.0,16803341.0,3617.0,50,R,16800643,16800981,340,1400.5,499.5,3334,right
58,1,binary,50,1,trial,16799724.0,16803341.0,3617.0,50,R,16801007,16801261,256,1247.5,428.3,3273,right
58,1,binary,50,1,trial,16799724.0,16803341.0,3617.0,50,R,16801279,16801315,38,1273.0,465.7,3247,right
58,1,binary,50,1,trial,16799724.0,16803341.0,3617.0,50,R,16801381,16801555,176,391.4,801.4,3357,NA
58,1,binary,50,1,trial,16799724.0,16803341.0,3617.0,50,R,16801601,16801779,180,911.5,909.7,3447,likertHorizontal
58,1,binary,50,1,trial,16799724.0,16803341.0,3617.0,50,R,16801827,16802131,306,1303.1,473.1,3723,right
58,1,binary,50,1,trial,16799724.0,16803341.0,3617.0,50,R,16802149,16802253,106,1358.8,481.4,3758,right
58,1,binary,50,1,trial,16799724.0,16803341.0,3617.0,50,R,16802315,16802625,312,448.6,427.8,3526,left
58,1,binary,50,1,trial,16799724.0,16803341.0,3617.0,50,R,16802657,16802923,268,352.5,533.4,3446,left
58,1,binary,50,1,trial,16799724.0,16803341.0,3617.0,50,R,16802945,16803313,370,475.4,561.7,3504,left
58,1,binary,50,1,postResponse,16799724.0,16803341.0,3617.0,50,R,16803347,16803675,330,429.6,386.8,3536,left
58,2,continuous,1,38,fixationCross,16879459.0,16885725.0,6266.0,51,R,16878533,16878581,50,822.4,896.1,4161,likertHorizontal
58,2,continuous,1,38,fixationCross,16879459.0,16885725.0,6266.0,51,R,16878603,16879047,446,903.9,895.6,4266,likertHorizontal
58,2,continuous,1,38,fixationCross,16879459.0,16885725.0,6266.0,51,R,16879207,16879265,60,964.9,299.5,4340,NA
58,2,continuous,1,38,trial,16879459.0,16885725.0,6266.0,51,R,16879305,16879497,194,952.0,492.9,4353,NA
58,2,continuous,1,38,trial,16879459.0,16885725.0,6266.0,51,R,16879521,16879799,280,948.2,535.8,4462,NA
58,2,continuous,1,38,trial,16879459.0,16885725.0,6266.0,51,R,16879845,16880071,228,1345.5,463.4,3910,right
58,2,continuous,1,38,trial,16879459.0,16885725.0,6266.0,51,R,16880097,16880205,110,1539.5,465.9,3685,right
58,2,continuous,1,38,trial,16879459.0,16885725.0,6266.0,51,R,16880259,16880421,164,903.1,929.1,3625,likertHorizontal
58,2,continuous,1,38,trial,16879459.0,16885725.0,6266.0,51,R,16880473,16880759,288,552.5,513.5,3594,left
58,2,continuous,1,38,trial,16879459.0,16885725.0,6266.0,51,R,16880781,16881019,240,436.6,567.2,3614,left
58,2,continuous,1,38,trial,16879459.0,16885725.0,6266.0,51,R,16881035,16881207,174,398.6,515.3,3519,left
58,2,continuous,1,38,trial,16879459.0,16885725.0,6266.0,51,R,16881279,16881643,366,1569.5,422.2,3303,right
58,2,continuous,1,38,trial,16879459.0,16885725.0,6266.0,51,R,16881659,16881871,214,1481.1,415.4,3470,right
58,2,continuous,1,38,trial,16879459.0,16885725.0,6266.0,51,R,16881899,16882113,216,1271.6,445.7,3554,right
58,2,continuous,1,38,trial,16879459.0,16885725.0,6266.0,51,R,16882171,16882437,268,482.4,502.9,3618,left
58,2,continuous,1,38,trial,16879459.0,16885725.0,6266.0,51,R,16882487,16882673,188,806.1,942.2,3542,likertHorizontal
58,2,continuous,1,38,trial,16879459.0,16885725.0,6266.0,51,R,16882709,16882831,124,1108.6,891.7,3528,likertHorizontal
58,2,continuous,1,38,trial,16879459.0,16885725.0,6266.0,51,R,16882887,16883053,168,493.5,1002.9,3747,NA
58,2,continuous,1,38,trial,16879459.0,16885725.0,6266.0,51,R,16883117,16883297,182,467.8,531.6,3991,left
58,2,continuous,1,38,trial,16879459.0,16885725.0,6266.0,51,R,16883313,16883609,298,402.0,526.3,3736,left
58,2,continuous,1,38,trial,16879459.0,16885725.0,6266.0,51,R,16883633,16883785,154,541.9,589.1,3480,left
58,2,continuous,1,38,trial,16879459.0,16885725.0,6266.0,51,R,16883853,16884237,386,1517.8,430.0,3274,right
58,2,continuous,1,38,trial,16879459.0,16885725.0,6266.0,51,R,16884261,16884411,152,1420.3,346.9,3357,NA
58,2,continuous,1,38,trial,16879459.0,16885725.0,6266.0,51,R,16884481,16884675,196,879.6,969.7,3528,likertHorizontal
58,2,continuous,1,38,trial,16879459.0,16885725.0,6266.0,51,R,16884725,16884825,102,1397.1,951.1,3547,NA
58,2,continuous,1,38,trial,16879459.0,16885725.0,6266.0,51,R,16884873,16885211,340,1514.9,432.9,3677,right
58,2,continuous,1,38,trial,16879459.0,16885725.0,6266.0,51,R,16885235,16885445,212,1347.3,390.2,3690,right
58,2,continuous,1,38,trial,16879459.0,16885725.0,6266.0,51,R,16885503,16885603,102,550.5,553.1,3643,left
58,2,continuous,1,38,trial,16879459.0,16885725.0,6266.0,51,R,16885657,16885961,306,809.8,964.1,3583,likertHorizontal
58,2,continuous,2,29,fixationCross,16886775.0,16893425.0,6650.0,52,R,16886171,16886465,296,1032.8,412.6,3915,NA
58,2,continuous,2,29,fixationCross,16886775.0,16893425.0,6650.0,52,R,16886505,16886625,122,921.6,531.3,4219,NA
58,2,continuous,2,29,trial,16886775.0,16893425.0,6650.0,52,R,16886633,16886945,314,947.1,529.0,4317,NA
58,2,continuous,2,29,trial,16886775.0,16893425.0,6650.0,52,R,16886993,16887301,310,1439.4,450.7,3898,right
58,2,continuous,2,29,trial,16886775.0,16893425.0,6650.0,52,R,16887325,16887509,186,1518.8,366.2,3500,right
58,2,continuous,2,29,trial,16886775.0,16893425.0,6650.0,52,R,16887577,16888179,604,432.7,452.9,3512,left
58,2,continuous,2,29,trial,16886775.0,16893425.0,6650.0,52,R,16888201,16888293,94,416.0,378.7,3480,left
58,2,continuous,2,29,trial,16886775.0,16893425.0,6650.0,52,R,16888349,16888469,122,867.8,868.5,3470,likertHorizontal
58,2,continuous,2,29,trial,16886775.0,16893425.0,6650.0,52,R,16888491,16888843,354,921.6,932.7,3586,likertHorizontal
58,2,continuous,2,29,trial,16886775.0,16893425.0,6650.0,52,R,16888901,16889095,196,1523.8,482.3,3817,right
58,2,continuous,2,29,trial,16886775.0,16893425.0,6650.0,52,R,16889121,16889291,172,1442.9,354.5,3887,right
58,2,continuous,2,29,trial,16886775.0,16893425.0,6650.0,52,R,16889359,16889659,302,442.3,432.8,3800,left
58,2,continuous,2,29,trial,16886775.0,16893425.0,6650.0,52,R,16889683,16889767,86,553.3,465.6,3728,left
58,2,continuous,2,29,trial,16886775.0,16893425.0,6650.0,52,R,16889939,16890159,222,1428.3,452.8,3493,right
58,2,continuous,2,29,trial,16886775.0,16893425.0,6650.0,52,R,16890185,16890405,222,1436.3,343.6,3593,NA
58,2,continuous,2,29,trial,16886775.0,16893425.0,6650.0,52,R,16890423,16890615,194,1511.5,363.2,3478,right
58,2,continuous,2,29,trial,16886775.0,16893425.0,6650.0,52,R,16890645,16890781,138,1382.9,508.7,3472,right
58,2,continuous,2,29,trial,16886775.0,16893425.0,6650.0,52,R,16890797,16891301,506,1420.8,458.3,3428,right
58,2,continuous,2,29,trial,16886775.0,16893425.0,6650.0,52,R,16891361,16891495,136,628.2,499.2,3537,left
58,2,continuous,2,29,trial,16886775.0,16893425.0,6650.0,52,R,16891521,16891877,358,463.8,431.7,3513,left
58,2,continuous,2,29,trial,16886775.0,16893425.0,6650.0,52,R,16891929,16892187,260,711.9,919.9,3580,NA
58,2,continuous,2,29,trial,16886775.0,16893425.0,6650.0,52,R,16892235,16892345,112,1207.6,927.1,3576,NA
58,2,continuous,2,29,trial,16886775.0,16893425.0,6650.0,52,R,16892409,16892585,178,492.4,429.8,3780,left
58,2,continuous,2,29,trial,16886775.0,16893425.0,6650.0,52,R,16892653,16892797,146,1549.5,448.8,3802,right
58,2,continuous,2,29,trial,16886775.0,16893425.0,6650.0,52,R,16892821,16893119,300,1487.3,363.7,3681,right
58,2,continuous,2,29,trial,16886775.0,16893425.0,6650.0,52,R,16893187,16893391,206,493.4,489.4,3705,left
58,2,continuous,2,29,postResponse,16886775.0,16893425.0,6650.0,52,R,16893451,16893759,310,1446.8,445.7,3461,right
58,2,continuous,3,12,fixationCross,16894442.0,16896559.0,2117.0,53,R,16893833,16894113,282,1439.1,445.3,3665,right
58,2,continuous,3,12,fixationCross,16894442.0,16896559.0,2117.0,53,R,16894159,16894299,142,918.5,472.2,4065,NA
58,2,continuous,3,12,trial,16894442.0,16896559.0,2117.0,53,R,16894321,16894625,306,934.1,513.5,4204,NA
58,2,continuous,3,12,trial,16894442.0,16896559.0,2117.0,53,R,16894671,16894971,302,439.6,503.4,4035,left
58,2,continuous,3,12,trial,16894442.0,16896559.0,2117.0,53,R,16894987,16895147,162,359.6,460.8,3684,left
58,2,continuous,3,12,trial,16894442.0,16896559.0,2117.0,53,R,16895213,16895577,366,1407.9,403.6,3421,right
58,2,continuous,3,12,trial,16894442.0,16896559.0,2117.0,53,R,16895599,16895853,256,1480.6,455.3,3333,right
58,2,continuous,3,12,trial,16894442.0,16896559.0,2117.0,53,R,16895921,16896123,204,714.2,888.9,3480,NA
58,2,continuous,3,12,trial,16894442.0,16896559.0,2117.0,53,R,16896151,16896483,334,520.0,905.5,3581,NA
58,2,continuous,3,12,postResponse,16894442.0,16896559.0,2117.0,53,R,16896531,16896891,362,452.6,546.5,3882,left
58,2,continuous,4,60,fixationCross,16897625.0,16900792.0,3167.0,54,R,16896965,16897017,54,462.1,543.1,3871,left
58,2,continuous,4,60,fixationCross,16897625.0,16900792.0,3167.0,54,R,16897069,16897331,264,998.9,424.9,3994,NA
58,2,continuous,4,60,fixationCross,16897625.0,16900792.0,3167.0,54,R,16897353,16897599,248,947.5,489.3,4223,NA
58,2,continuous,4,60,trial,16897625.0,16900792.0,3167.0,54,R,16897613,16897833,222,948.9,523.4,4385,NA
58,2,continuous,4,60,trial,16897625.0,16900792.0,3167.0,54,R,16897877,16898215,340,503.5,514.0,4071,left
58,2,continuous,4,60,trial,16897625.0,16900792.0,3167.0,54,R,16898237,16898521,286,585.1,498.9,3533,left
58,2,continuous,4,60,trial,16897625.0,16900792.0,3167.0,54,R,16898547,16898799,254,439.4,462.9,3334,left
58,2,continuous,4,60,trial,16897625.0,16900792.0,3167.0,54,R,16899005,16899683,680,1369.2,437.5,3280,right
58,2,continuous,4,60,trial,16897625.0,16900792.0,3167.0,54,R,16899737,16900075,340,950.9,958.5,3560,likertHorizontal
58,2,continuous,4,60,trial,16897625.0,16900792.0,3167.0,54,R,16900131,16900303,174,494.0,485.1,3759,left
58,2,continuous,4,60,trial,16897625.0,16900792.0,3167.0,54,R,16900357,16900577,222,1134.4,601.1,3702,NA
58,2,continuous,4,60,trial,16897625.0,16900792.0,3167.0,54,R,16900623,16900843,222,962.0,941.0,3655,likertHorizontal
58,2,continuous,4,60,postResponse,16897625.0,16900792.0,3167.0,54,R,16900897,16901125,230,916.4,331.6,3849,NA
58,2,continuous,5,34,fixationCross,16901842.0,16907342.0,5500.0,55,R,16901223,16901521,300,1071.9,415.1,4127,NA
58,2,continuous,5,34,trial,16901842.0,16907342.0,5500.0,55,R,16901557,16902067,512,938.2,530.3,4390,NA
58,2,continuous,5,34,trial,16901842.0,16907342.0,5500.0,55,R,16902111,16902615,506,500.6,506.0,3910,left
58,2,continuous,5,34,trial,16901842.0,16907342.0,5500.0,55,R,16902637,16902941,306,606.3,497.4,3551,left
58,2,continuous,5,34,trial,16901842.0,16907342.0,5500.0,55,R,16902963,16903127,166,545.5,542.1,3560,left
58,2,continuous,5,34,trial,16901842.0,16907342.0,5500.0,55,R,16903193,16903451,260,1503.1,491.1,3458,right
58,2,continuous,5,34,trial,16901842.0,16907342.0,5500.0,55,R,16903475,16903657,184,1382.4,427.9,3489,right
58,2,continuous,5,34,trial,16901842.0,16907342.0,5500.0,55,R,16903697,16903807,112,1350.9,726.1,3496,right
58,2,continuous,5,34,trial,16901842.0,16907342.0,5500.0,55,R,16903829,16904127,300,1383.3,643.4,3426,right
58,2,continuous,5,34,trial,16901842.0,16907342.0,5500.0,55,R,16904197,16904329,134,750.0,427.3,3407,NA
58,2,continuous,5,34,trial,16901842.0,16907342.0,5500.0,55,R,16904361,16904753,394,529.2,431.7,3530,left
58,2,continuous,5,34,trial,16901842.0,16907342.0,5500.0,55,R,16904785,16905007,224,418.7,554.0,3742,left
58,2,continuous,5,34,trial,16901842.0,16907342.0,5500.0,55,R,16905033,16905259,228,601.9,556.8,3686,left
58,2,continuous,5,34,trial,16901842.0,16907342.0,5500.0,55,R,16905285,16905617,334,514.9,400.0,3505,left
58,2,continuous,5,34,trial,16901842.0,16907342.0,5500.0,55,R,16905685,16905959,276,1408.6,407.0,3424,right
58,2,continuous,5,34,trial,16901842.0,16907342.0,5500.0,55,R,16906015,16906389,376,663.4,593.0,3643,left
58,2,continuous,5,34,trial,16901842.0,16907342.0,5500.0,55,R,16906425,16906619,196,729.3,939.5,3758,NA
58,2,continuous,5,34,trial,16901842.0,16907342.0,5500.0,55,R,16906649,16906897,250,976.4,903.4,3811,likertHorizontal
58,2,continuous,5,34,trial,16901842.0,16907342.0,5500.0,55,R,16906943,16907297,356,726.4,683.8,3912,left
58,2,continuous,5,34,postResponse,16901842.0,16907342.0,5500.0,55,R,16907329,16907677,350,525.8,522.4,3970,left
58,2,continuous,6,36,fixationCross,16908392.0,16911025.0,2633.0,56,R,16907753,16907863,112,522.0,520.9,3929,left
58,2,continuous,6,36,fixationCross,16908392.0,16911025.0,2633.0,56,R,16907897,16908075,180,862.1,482.8,3942,NA
58,2,continuous,6,36,trial,16908392.0,16911025.0,2633.0,56,R,16908099,16908553,456,959.3,513.5,4085,NA
58,2,continuous,6,36,trial,16908392.0,16911025.0,2633.0,56,R,16908601,16908777,178,1425.5,488.8,4030,right
58,2,continuous,6,36,trial,16908392.0,16911025.0,2633.0,56,R,16908839,16909221,384,493.6,488.2,3688,left
58,2,continuous,6,36,trial,16908392.0,16911025.0,2633.0,56,R,16909245,16909385,142,551.4,545.5,3519,left
58,2,continuous,6,36,trial,16908392.0,16911025.0,2633.0,56,R,16909445,16909835,392,1389.8,430.8,3300,right
58,2,continuous,6,36,trial,16908392.0,16911025.0,2633.0,56,R,16909851,16910029,180,1350.4,458.6,3398,right
58,2,continuous,6,36,trial,16908392.0,16911025.0,2633.0,56,R,16910201,16910409,210,839.8,756.2,3656,likertHorizontal
58,2,continuous,6,36,trial,16908392.0,16911025.0,2633.0,56,R,16910449,16910583,136,569.7,531.2,3755,left
58,2,continuous,6,36,trial,16908392.0,16911025.0,2633.0,56,R,16910631,16910951,322,852.1,934.9,3738,likertHorizontal
58,2,continuous,6,36,postResponse,16908392.0,16911025.0,2633.0,56,R,16911001,16911359,360,536.2,463.2,3697,left
58,2,continuous,7,55,fixationCross,16911925.0,16915426.0,3501.0,57,R,16911433,16911447,16,533.9,462.8,3721,left
58,2,continuous,7,55,fixationCross,16911925.0,16915426.0,3501.0,57,R,16911491,16911731,242,880.1,486.9,3779,NA
58,2,continuous,7,55,trial,16911925.0,16915426.0,3501.0,57,R,16911755,16912115,362,946.8,484.8,3974,NA
58,2,continuous,7,55,trial,16911925.0,16915426.0,3501.0,57,R,16912165,16912335,172,1432.9,443.9,3903,right
58,2,continuous,7,55,trial,16911925.0,16915426.0,3501.0,57,R,16912355,16912451,98,1338.9,413.9,3623,right
58,2,continuous,7,55,trial,16911925.0,16915426.0,3501.0,57,R,16912505,16912741,238,545.4,413.8,3506,left
58,2,continuous,7,55,trial,16911925.0,16915426.0,3501.0,57,R,16912767,16913015,250,454.3,492.8,3467,left
58,2,continuous,7,55,trial,16911925.0,16915426.0,3501.0,57,R,16913081,16913319,240,1397.7,402.4,3340,right
58,2,continuous,7,55,trial,16911925.0,16915426.0,3501.0,57,R,16913333,16913593,262,1338.6,387.6,3330,right
58,2,continuous,7,55,trial,16911925.0,16915426.0,3501.0,57,R,16913603,16913773,172,1313.5,371.3,3381,right
58,2,continuous,7,55,trial,16911925.0,16915426.0,3501.0,57,R,16913793,16914165,374,1390.8,352.3,3366,right
58,2,continuous,7,55,trial,16911925.0,16915426.0,3501.0,57,R,16914185,16914653,470,1325.0,379.8,3434,right
58,2,continuous,7,55,trial,16911925.0,16915426.0,3501.0,57,R,16914679,16914909,232,1450.5,516.8,3355,right
58,2,continuous,7,55,trial,16911925.0,16915426.0,3501.0,57,R,16914961,16915417,458,956.9,944.8,3452,likertHorizontal
58,2,continuous,7,55,postResponse,16911925.0,16915426.0,3501.0,57,R,16915467,16915759,294,699.3,477.8,3679,left
58,2,continuous,8,22,fixationCross,16916459.0,16919659.0,3200.0,58,R,16915859,16916157,300,702.6,481.2,3912,left
58,2,continuous,8,22,fixationCross,16916459.0,16919659.0,3200.0,58,R,16916191,16916327,138,902.5,495.6,4002,NA
58,2,continuous,8,22,trial,16916459.0,16919659.0,3200.0,58,R,16916343,16916601,260,940.7,507.4,4036,NA
58,2,continuous,8,22,trial,16916459.0,16919659.0,3200.0,58,R,16916643,16916855,214,542.9,467.4,4081,left
58,2,continuous,8,22,trial,16916459.0,16919659.0,3200.0,58,R,16916877,16917041,166,419.0,430.3,3697,left
58,2,continuous,8,22,trial,16916459.0,16919659.0,3200.0,58,R,16917051,16917177,128,393.3,394.1,3479,left
58,2,continuous,8,22,trial,16916459.0,16919659.0,3200.0,58,R,16917243,16917593,352,1385.7,383.0,3247,right
58,2,continuous,8,22,trial,16916459.0,16919659.0,3200.0,58,R,16917611,16918097,488,1456.8,377.7,3308,right
58,2,continuous,8,22,trial,16916459.0,16919659.0,3200.0,58,R,16918119,16918349,232,1333.6,387.7,3436,right
58,2,continuous,8,22,trial,16916459.0,16919659.0,3200.0,58,R,16918415,16918765,352,443.9,486.4,3677,left
58,2,continuous,8,22,trial,16916459.0,16919659.0,3200.0,58,R,16918811,16919109,300,645.1,892.5,3555,NA
58,2,continuous,8,22,trial,16916459.0,16919659.0,3200.0,58,R,16919131,16919459,330,714.3,892.7,3706,NA
58,2,continuous,8,22,trial,16916459.0,16919659.0,3200.0,58,R,16919509,16919679,172,516.8,487.3,3980,left
58,2,continuous,8,22,trial,16916459.0,16919659.0,3200.0,58,R,16919703,16919953,252,411.4,433.1,3873,left
58,2,continuous,9,83,fixationCross,16920792.0,16922692.0,1900.0,59,R,16920067,16920311,246,799.1,370.3,3719,NA
58,2,continuous,9,83,fixationCross,16920792.0,16922692.0,1900.0,59,R,16920335,16920499,166,941.1,423.6,3962,NA
58,2,continuous,9,83,trial,16920792.0,16922692.0,1900.0,59,R,16920523,16920933,412,927.5,515.8,4174,NA
58,2,continuous,9,83,trial,16920792.0,16922692.0,1900.0,59,R,16920977,16921359,384,528.2,457.6,3916,left
58,2,continuous,9,83,trial,16920792.0,16922692.0,1900.0,59,R,16921423,16921791,370,1360.2,497.6,3372,right
58,2,continuous,9,83,trial,16920792.0,16922692.0,1900.0,59,R,16921813,16921959,148,1459.6,470.9,3307,right
58,2,continuous,9,83,trial,16920792.0,16922692.0,1900.0,59,R,16922009,16922201,194,1070.5,815.5,3485,likertHorizontal
58,2,continuous,9,83,trial,16920792.0,16922692.0,1900.0,59,R,16922249,16922459,212,1383.5,575.4,3692,right
58,2,continuous,9,83,trial,16920792.0,16922692.0,1900.0,59,R,16922481,16922595,116,1313.7,538.6,3879,right
58,2,continuous,9,83,trial,16920792.0,16922692.0,1900.0,59,R,16922651,16922883,234,541.7,506.9,3846,left
58,2,continuous,10,25,fixationCross,16923776.0,16926275.0,2499.0,60,R,16923127,16923457,332,731.5,427.4,3861,left
58,2,continuous,10,25,trial,16923776.0,16926275.0,2499.0,60,R,16923485,16923919,436,932.7,513.3,4048,NA
58,2,continuous,10,25,trial,16923776.0,16926275.0,2499.0,60,R,16923963,16924179,218,492.0,503.0,4090,left
58,2,continuous,10,25,trial,16923776.0,16926275.0,2499.0,60,R,16924189,16924621,434,451.3,488.2,3632,left
58,2,continuous,10,25,trial,16923776.0,16926275.0,2499.0,60,R,16924697,16925119,424,1399.0,491.7,3268,right
58,2,continuous,10,25,trial,16923776.0,16926275.0,2499.0,60,R,16925141,16925243,104,1428.5,446.8,3269,right
58,2,continuous,10,25,trial,16923776.0,16926275.0,2499.0,60,R,16925303,16925621,320,581.1,486.9,3416,left
58,2,continuous,10,25,postResponse,16923776.0,16926275.0,2499.0,60,R,16925647,16926609,964,458.1,471.1,3478,left
58,2,continuous,11,94,fixationCross,16927442.0,16929942.0,2500.0,61,R,16926683,16927007,326,468.7,480.9,3799,left
58,2,continuous,11,94,fixationCross,16927442.0,16929942.0,2500.0,61,R,16927031,16927139,110,593.5,478.9,3948,left
58,2,continuous,11,94,trial,16927442.0,16929942.0,2500.0,61,R,16927175,16927589,416,933.8,515.1,4026,NA
58,2,continuous,11,94,trial,16927442.0,16929942.0,2500.0,61,R,16927633,16927861,230,493.8,491.6,4105,left
58,2,continuous,11,94,trial,16927442.0,16929942.0,2500.0,61,R,16927877,16928017,142,454.7,431.5,3765,left
58,2,continuous,11,94,trial,16927442.0,16929942.0,2500.0,61,R,16928031,16928329,300,443.8,389.5,3553,left
58,2,continuous,11,94,trial,16927442.0,16929942.0,2500.0,61,R,16928397,16928701,306,1461.1,443.8,3361,right
58,2,continuous,11,94,trial,16927442.0,16929942.0,2500.0,61,R,16928729,16928949,222,1434.3,611.6,3457,right
58,2,continuous,11,94,trial,16927442.0,16929942.0,2500.0,61,R,16928983,16929181,200,1423.5,464.5,3534,right
58,2,continuous,11,94,trial,16927442.0,16929942.0,2500.0,61,R,16929211,16929707,498,1432.1,640.9,3602,right
58,2,continuous,11,94,trial,16927442.0,16929942.0,2500.0,61,R,16929741,16929995,256,1415.7,473.1,3746,right
58,2,continuous,11,94,postResponse,16927442.0,16929942.0,2500.0,61,R,16930025,16930275,252,1421.1,652.9,3663,right
58,2,continuous,12,75,fixationCross,16930992.0,16932759.0,1767.0,62,R,16930395,16930689,296,1115.0,497.4,3959,NA
58,2,continuous,12,75,fixationCross,16930992.0,16932759.0,1767.0,62,R,16930717,16930853,138,902.8,519.4,4214,NA
58,2,continuous,12,75,trial,16930992.0,16932759.0,1767.0,62,R,16930863,16931147,286,940.2,527.5,4269,NA
58,2,continuous,12,75,trial,16930992.0,16932759.0,1767.0,62,R,16931193,16931585,394,483.3,488.1,3949,left
58,2,continuous,12,75,trial,16930992.0,16932759.0,1767.0,62,R,16931783,16932047,266,1369.0,451.1,3288,right
58,2,continuous,12,75,trial,16930992.0,16932759.0,1767.0,62,R,16932065,16932635,572,1329.3,408.5,3309,right
58,2,continuous,12,75,trial,16930992.0,16932759.0,1767.0,62,R,16932687,16932961,276,1138.8,896.4,3409,likertHorizontal
58,2,continuous,12,75,postResponse,16930992.0,16932759.0,1767.0,62,R,16933015,16933093,80,1063.0,352.9,3553,NA
58,2,continuous,13,77,fixationCross,16933859.0,16935892.0,2033.0,63,R,16933193,16933333,142,1056.5,373.2,3744,NA
58,2,continuous,13,77,fixationCross,16933859.0,16935892.0,2033.0,63,R,16933359,16933537,180,906.2,435.6,3965,NA
58,2,continuous,13,77,trial,16933859.0,16935892.0,2033.0,63,R,16933561,16933993,434,919.7,509.3,4157,NA
58,2,continuous,13,77,trial,16933859.0,16935892.0,2033.0,63,R,16934043,16934289,248,510.0,463.9,4093,left
58,2,continuous,13,77,trial,16933859.0,16935892.0,2033.0,63,R,16934319,16934591,274,417.4,592.1,3668,left
58,2,continuous,13,77,trial,16933859.0,16935892.0,2033.0,63,R,16934657,16934983,328,1348.6,464.9,3409,right
58,2,continuous,13,77,trial,16933859.0,16935892.0,2033.0,63,R,16935007,16935255,250,1472.1,413.2,3401,right
58,2,continuous,13,77,trial,16933859.0,16935892.0,2033.0,63,R,16935299,16935743,446,1224.1,680.5,3505,right
58,2,continuous,13,77,postResponse,16933859.0,16935892.0,2033.0,63,R,16935771,16936227,458,1381.2,504.7,3711,right
58,2,continuous,14,20,fixationCross,16936793.0,16940825.0,4032.0,64,R,16936303,16936347,46,1375.9,506.3,3753,right
58,2,continuous,14,20,fixationCross,16936793.0,16940825.0,4032.0,64,R,16936389,16936619,232,992.5,475.4,3951,NA
58,2,continuous,14,20,trial,16936793.0,16940825.0,4032.0,64,R,16936643,16936925,284,928.1,514.8,4150,NA
58,2,continuous,14,20,trial,16936793.0,16940825.0,4032.0,64,R,16936969,16937281,314,510.6,491.3,4081,left
58,2,continuous,14,20,trial,16936793.0,16940825.0,4032.0,64,R,16937295,16937623,330,474.6,441.6,3607,left
58,2,continuous,14,20,trial,16936793.0,16940825.0,4032.0,64,R,16937637,16937785,150,514.5,429.9,3506,left
58,2,continuous,14,20,trial,16936793.0,16940825.0,4032.0,64,R,16937845,16938233,390,1393.6,406.5,3353,right
58,2,continuous,14,20,trial,16936793.0,16940825.0,4032.0,64,R,16938255,16938441,188,1473.5,481.2,3385,right
58,2,continuous,14,20,trial,16936793.0,16940825.0,4032.0,64,R,16938507,16938707,202,535.0,514.8,3542,left
58,2,continuous,14,20,trial,16936793.0,16940825.0,4032.0,64,R,16938753,16938975,224,758.2,885.5,3484,likertHorizontal
58,2,continuous,14,20,trial,16936793.0,16940825.0,4032.0,64,R,16939003,16939119,118,578.6,900.5,3570,NA
58,2,continuous,14,20,trial,16936793.0,16940825.0,4032.0,64,R,16939165,16939355,192,508.3,495.9,3741,left
58,2,continuous,14,20,trial,16936793.0,16940825.0,4032.0,64,R,16939375,16939563,190,514.6,451.7,3781,left
58,2,continuous,14,20,trial,16936793.0,16940825.0,4032.0,64,R,16939633,16940057,426,1502.1,408.2,3474,right
58,2,continuous,14,20,trial,16936793.0,16940825.0,4032.0,64,R,16940083,16940237,156,1321.5,450.4,3470,right
58,2,continuous,14,20,trial,16936793.0,16940825.0,4032.0,64,R,16940303,16940531,230,455.5,489.5,3580,left
58,2,continuous,14,20,trial,16936793.0,16940825.0,4032.0,64,R,16940551,16940743,194,525.2,436.8,3537,left
58,2,continuous,14,20,trial,16936793.0,16940825.0,4032.0,64,R,16940757,16940925,170,485.3,420.6,3478,left
58,2,continuous,14,20,postResponse,16936793.0,16940825.0,4032.0,64,R,16940957,16941159,204,632.4,508.7,3498,left
58,2,continuous,15,17,fixationCross,16941976.0,16943493.0,1517.0,65,R,16941259,16941479,222,634.2,507.7,3717,left
58,2,continuous,15,17,fixationCross,16941976.0,16943493.0,1517.0,65,R,16941505,16941649,146,791.0,448.5,3888,NA
58,2,continuous,15,17,trial,16941976.0,16943493.0,1517.0,65,R,16941675,16942177,504,942.4,490.2,3920,NA
58,2,continuous,15,17,trial,16941976.0,16943493.0,1517.0,65,R,16942239,16942477,240,543.7,475.0,3868,left
58,2,continuous,15,17,trial,16941976.0,16943493.0,1517.0,65,R,16942503,16942665,164,422.2,539.2,3658,left
58,2,continuous,15,17,trial,16941976.0,16943493.0,1517.0,65,R,16942733,16943341,610,1416.0,423.2,3300,right
58,2,continuous,15,17,postResponse,16941976.0,16943493.0,1517.0,65,R,16943401,16943825,426,528.0,429.4,3392,left
58,2,continuous,16,38,fixationCross,16944609.0,16946410.0,1801.0,66,R,16943899,16943953,56,531.7,429.8,3466,left
58,2,continuous,16,38,fixationCross,16944609.0,16946410.0,1801.0,66,R,16943977,16944145,170,708.1,426.4,3582,left
58,2,continuous,16,38,fixationCross,16944609.0,16946410.0,1801.0,66,R,16944171,16944317,148,882.7,463.5,3737,NA
58,2,continuous,16,38,trial,16944609.0,16946410.0,1801.0,66,R,16944337,16944739,404,933.6,510.2,3915,NA
58,2,continuous,16,38,trial,16944609.0,16946410.0,1801.0,66,R,16944783,16945141,360,531.0,466.4,3839,left
58,2,continuous,16,38,trial,16944609.0,16946410.0,1801.0,66,R,16945163,16945371,210,415.9,468.9,3659,left
58,2,continuous,16,38,trial,16944609.0,16946410.0,1801.0,66,R,16945439,16945589,152,1459.9,487.1,3476,right
58,2,continuous,16,38,trial,16944609.0,16946410.0,1801.0,66,R,16945759,16945887,130,1390.1,407.9,3403,right
58,2,continuous,16,38,trial,16944609.0,16946410.0,1801.0,66,R,16945943,16946259,318,627.3,496.1,3558,left
58,2,continuous,16,38,trial,16944609.0,16946410.0,1801.0,66,R,16946299,16946425,128,781.6,793.9,3546,likertHorizontal
58,2,continuous,16,38,postResponse,16944609.0,16946410.0,1801.0,66,R,16946469,16946743,276,474.6,446.4,3711,left
58,2,continuous,17,61,fixationCross,16947443.0,16949126.0,1683.0,67,R,16946819,16946901,84,482.5,455.6,3884,left
58,2,continuous,17,61,fixationCross,16947443.0,16949126.0,1683.0,67,R,16946947,16947139,194,851.1,478.5,3943,NA
58,2,continuous,17,61,trial,16947443.0,16949126.0,1683.0,67,R,16947165,16947559,396,931.3,514.0,4039,NA
58,2,continuous,17,61,trial,16947443.0,16949126.0,1683.0,67,R,16947601,16947817,218,553.6,498.9,4142,left
58,2,continuous,17,61,trial,16947443.0,16949126.0,1683.0,67,R,16947839,16947955,118,452.9,481.6,3828,left
58,2,continuous,17,61,trial,16947443.0,16949126.0,1683.0,67,R,16948021,16948545,526,1457.1,471.1,3369,right
58,2,continuous,17,61,trial,16947443.0,16949126.0,1683.0,67,R,16948593,16948783,192,1185.5,650.9,3444,right
58,2,continuous,17,61,trial,16947443.0,16949126.0,1683.0,67,R,16948821,16949009,190,1010.7,880.7,3556,likertHorizontal
58,2,continuous,17,61,trial,16947443.0,16949126.0,1683.0,67,R,16949059,16949221,164,721.8,474.6,3757,left
58,2,continuous,17,61,postResponse,16947443.0,16949126.0,1683.0,67,R,16949261,16949459,200,1060.0,474.6,3874,NA
58,2,continuous,18,67,fixationCross,16950010.0,16953609.0,3599.0,68,R,16949533,16949703,172,1059.7,480.4,3985,NA
58,2,continuous,18,67,fixationCross,16950010.0,16953609.0,3599.0,68,R,16949725,16949919,196,899.4,481.4,4077,NA
58,2,continuous,18,67,trial,16950010.0,16953609.0,3599.0,68,R,16949943,16950201,260,951.4,529.9,4100,NA
58,2,continuous,18,67,trial,16950010.0,16953609.0,3599.0,68,R,16950253,16950377,126,910.5,973.7,4132,likertHorizontal
58,2,continuous,18,67,trial,16950010.0,16953609.0,3599.0,68,R,16950431,16950585,156,1401.7,474.9,3825,right
58,2,continuous,18,67,trial,16950010.0,16953609.0,3599.0,68,R,16950637,16950893,258,925.7,927.8,3818,likertHorizontal
58,2,continuous,18,67,trial,16950010.0,16953609.0,3599.0,68,R,16950917,16951057,142,939.0,982.3,3824,likertHorizontal
58,2,continuous,18,67,trial,16950010.0,16953609.0,3599.0,68,R,16951113,16951337,226,1436.4,439.8,3782,right
58,2,continuous,18,67,trial,16950010.0,16953609.0,3599.0,68,R,16951357,16951495,140,1397.1,387.5,3756,right
58,2,continuous,18,67,trial,16950010.0,16953609.0,3599.0,68,R,16951563,16951967,406,477.5,464.9,3705,left
58,2,continuous,18,67,trial,16950010.0,16953609.0,3599.0,68,R,16951987,16952163,178,555.8,427.2,3543,left
58,2,continuous,18,67,trial,16950010.0,16953609.0,3599.0,68,R,16952225,16952497,274,1405.5,382.0,3339,right
58,2,continuous,18,67,trial,16950010.0,16953609.0,3599.0,68,R,16952519,16952797,280,1488.1,414.7,3379,right
58,2,continuous,18,67,trial,16950010.0,16953609.0,3599.0,68,R,16952865,16953211,348,946.5,945.4,3589,likertHorizontal
58,2,continuous,18,67,trial,16950010.0,16953609.0,3599.0,68,R,16953241,16953369,130,1181.0,847.3,3633,likertHorizontal
58,2,continuous,18,67,trial,16950010.0,16953609.0,3599.0,68,R,16953417,16953535,120,1407.4,444.6,3700,right
58,2,continuous,18,67,trial,16950010.0,16953609.0,3599.0,68,R,16953617,16953835,220,394.2,513.5,3892,left
58,2,continuous,19,25,fixationCross,16954710.0,16959260.0,4550.0,69,R,16954025,16954081,58,753.4,457.1,3701,NA
58,2,continuous,19,25,fixationCross,16954710.0,16959260.0,4550.0,69,R,16954125,16954401,278,1004.3,656.5,3740,NA
58,2,continuous,19,25,trial,16954710.0,16959260.0,4550.0,69,R,16954433,16954889,458,921.6,516.3,4085,NA
58,2,continuous,19,25,trial,16954710.0,16959260.0,4550.0,69,R,16954941,16955261,322,467.3,489.0,3932,left
58,2,continuous,19,25,trial,16954710.0,16959260.0,4550.0,69,R,16955329,16955521,194,1510.3,504.9,3641,right
58,2,continuous,19,25,trial,16954710.0,16959260.0,4550.0,69,R,16955535,16955923,390,1549.1,494.5,3556,right
58,2,continuous,19,25,trial,16954710.0,16959260.0,4550.0,69,R,16955995,16956441,448,461.1,475.6,3638,left
58,2,continuous,19,25,trial,16954710.0,16959260.0,4550.0,69,R,16956459,16956849,392,426.4,535.0,3871,left
58,2,continuous,19,25,trial,16954710.0,16959260.0,4550.0,69,R,16956921,16957221,302,1474.4,488.3,3759,right
58,2,continuous,19,25,trial,16954710.0,16959260.0,4550.0,69,R,16957291,16957529,240,487.9,487.4,3758,left
58,2,continuous,19,25,trial,16954710.0,16959260.0,4550.0,69,R,16957601,16957765,166,1525.8,545.4,3619,right
58,2,continuous,19,25,trial,16954710.0,16959260.0,4550.0,69,R,16957789,16958457,670,1552.7,494.6,3592,right
58,2,continuous,19,25,trial,16954710.0,16959260.0,4550.0,69,R,16958525,16958765,242,466.2,493.1,3683,left
58,2,continuous,19,25,trial,16954710.0,16959260.0,4550.0,69,R,16958787,16958843,58,397.3,525.4,3691,left
58,2,continuous,19,25,trial,16954710.0,16959260.0,4550.0,69,R,16958919,16959165,248,1582.3,517.0,3681,right
58,2,continuous,19,25,trial,16954710.0,16959260.0,4550.0,69,R,16959179,16959463,286,1543.0,503.9,3808,right
58,2,continuous,19,25,postResponse,16954710.0,16959260.0,4550.0,69,R,16959551,16959593,44,764.6,441.7,3849,NA
58,2,continuous,20,27,fixationCross,16960326.0,16962210.0,1884.0,70,R,16959667,16959781,116,760.7,430.9,3862,NA
58,2,continuous,20,27,fixationCross,16960326.0,16962210.0,1884.0,70,R,16959813,16960039,228,1000.9,412.4,4003,NA
58,2,continuous,20,27,trial,16960326.0,16962210.0,1884.0,70,R,16960065,16960483,420,937.7,487.0,4228,NA
58,2,continuous,20,27,trial,16960326.0,16962210.0,1884.0,70,R,16960537,16960727,192,468.0,488.7,4192,left
58,2,continuous,20,27,trial,16960326.0,16962210.0,1884.0,70,R,16960749,16960913,166,551.7,455.1,3829,left
58,2,continuous,20,27,trial,16960326.0,16962210.0,1884.0,70,R,16960933,16961015,84,586.2,436.3,3629,left
58,2,continuous,20,27,trial,16960326.0,16962210.0,1884.0,70,R,16961213,16961525,314,1450.7,402.3,3416,right
58,2,continuous,20,27,trial,16960326.0,16962210.0,1884.0,70,R,16961583,16961763,182,596.7,490.0,3636,left
58,2,continuous,20,27,trial,16960326.0,16962210.0,1884.0,70,R,16961781,16962113,334,558.2,444.9,3466,left
58,2,continuous,20,27,trial,16960326.0,16962210.0,1884.0,70,R,16962165,16962437,274,757.6,976.2,3507,likertHorizontal
58,2,continuous,20,27,postResponse,16960326.0,16962210.0,1884.0,70,R,16962493,16962539,48,778.3,342.4,3552,NA
58,2,continuous,21,32,fixationCross,16963326.0,16967377.0,4051.0,71,R,16962615,16962863,250,763.1,359.4,3688,NA
58,2,continuous,21,32,fixationCross,16963326.0,16967377.0,4051.0,71,R,16962889,16963043,156,907.5,435.7,3915,NA
58,2,continuous,21,32,trial,16963326.0,16967377.0,4051.0,71,R,16963065,16963439,376,944.4,502.9,4066,NA
58,2,continuous,21,32,trial,16963326.0,16967377.0,4051.0,71,R,16963481,16963727,248,585.8,465.8,4088,left
58,2,continuous,21,32,trial,16963326.0,16967377.0,4051.0,71,R,16963753,16963923,172,494.5,544.6,3896,left
58,2,continuous,21,32,trial,16963326.0,16967377.0,4051.0,71,R,16963987,16964239,254,1414.8,432.4,3610,right
58,2,continuous,21,32,trial,16963326.0,16967377.0,4051.0,71,R,16964259,16964623,366,1439.0,356.5,3442,right
58,2,continuous,21,32,trial,16963326.0,16967377.0,4051.0,71,R,16964695,16965153,460,473.9,495.8,3540,left
58,2,continuous,21,32,trial,16963326.0,16967377.0,4051.0,71,R,16965207,16965377,172,936.6,848.3,3464,likertHorizontal
58,2,continuous,21,32,trial,16963326.0,16967377.0,4051.0,71,R,16965431,16965613,184,1372.3,483.1,3408,right
58,2,continuous,21,32,trial,16963326.0,16967377.0,4051.0,71,R,16965641,16965857,218,1448.7,374.3,3539,right
58,2,continuous,21,32,trial,16963326.0,16967377.0,4051.0,71,R,16965923,16966249,328,489.6,494.7,3561,left
58,2,continuous,21,32,trial,16963326.0,16967377.0,4051.0,71,R,16966267,16966435,170,439.5,536.5,3485,left
58,2,continuous,21,32,trial,16963326.0,16967377.0,4051.0,71,R,16966485,16967253,770,875.0,913.2,3507,likertHorizontal
58,2,continuous,21,32,trial,16963326.0,16967377.0,4051.0,71,R,16967297,16967401,106,1175.7,875.1,3868,likertHorizontal
58,2,continuous,21,32,trial,16963326.0,16967377.0,4051.0,71,R,16967445,16967657,214,686.0,896.6,3936,NA
58,2,continuous,22,24,fixationCross,16968260.0,16971393.0,3133.0,72,R,16967787,16967975,190,1006.8,493.2,4057,NA
58,2,continuous,22,24,trial,16968260.0,16971393.0,3133.0,72,R,16967997,16968475,480,935.2,525.1,4222,NA
58,2,continuous,22,24,trial,16968260.0,16971393.0,3133.0,72,R,16968527,16968719,194,527.6,528.9,4081,left
58,2,continuous,22,24,trial,16968260.0,16971393.0,3133.0,72,R,16968747,16968987,242,345.2,538.9,3671,left
58,2,continuous,22,24,trial,16968260.0,16971393.0,3133.0,72,R,16969055,16969355,302,1337.9,500.6,3347,right
58,2,continuous,22,24,trial,16968260.0,16971393.0,3133.0,72,R,16969379,16969653,276,1462.2,535.7,3315,right
58,2,continuous,22,24,trial,16968260.0,16971393.0,3133.0,72,R,16969723,16969955,234,460.8,510.6,3479,left
58,2,continuous,22,24,trial,16968260.0,16971393.0,3133.0,72,R,16969979,16970101,124,335.4,521.4,3470,left
58,2,continuous,22,24,trial,16968260.0,16971393.0,3133.0,72,R,16970153,16970281,130,484.8,981.2,3527,NA
58,2,continuous,22,24,trial,16968260.0,16971393.0,3133.0,72,R,16970295,16970475,182,437.3,956.2,3544,NA
58,2,continuous,22,24,trial,16968260.0,16971393.0,3133.0,72,R,16970523,16970765,244,373.5,569.3,3591,left
58,2,continuous,22,24,trial,16968260.0,16971393.0,3133.0,72,R,16970819,16970925,108,952.6,581.3,3611,NA
58,2,continuous,22,24,trial,16968260.0,16971393.0,3133.0,72,R,16970959,16971171,214,1306.6,539.0,3528,right
58,2,continuous,22,24,trial,16968260.0,16971393.0,3133.0,72,R,16971235,16971575,342,668.1,912.9,3748,NA
58,2,continuous,22,24,postResponse,16968260.0,16971393.0,3133.0,72,R,16971619,16971731,114,726.9,546.7,3672,left
58,2,continuous,23,29,fixationCross,16972326.0,16975009.0,2683.0,73,R,16971831,16972071,242,962.6,453.2,3807,NA
58,2,continuous,23,29,fixationCross,16972326.0,16975009.0,2683.0,73,R,16972099,16972189,92,1001.8,462.6,4011,NA
58,2,continuous,23,29,trial,16972326.0,16975009.0,2683.0,73,R,16972215,16972473,260,921.4,522.5,4179,NA
58,2,continuous,23,29,trial,16972326.0,16975009.0,2683.0,73,R,16972515,16972729,216,544.2,509.5,4132,left
58,2,continuous,23,29,trial,16972326.0,16975009.0,2683.0,73,R,16972753,16972909,158,650.0,453.2,3761,left
58,2,continuous,23,29,trial,16972326.0,16975009.0,2683.0,73,R,16972963,16973055,94,1371.7,402.9,3482,right
58,2,continuous,23,29,trial,16972326.0,16975009.0,2683.0,73,R,16973231,16973415,186,1472.4,363.1,3416,right
58,2,continuous,23,29,trial,16972326.0,16975009.0,2683.0,73,R,16973437,16973945,510,1380.5,335.9,3461,NA
58,2,continuous,23,29,trial,16972326.0,16975009.0,2683.0,73,R,16973967,16974229,264,1499.4,380.6,3291,right
58,2,continuous,23,29,trial,16972326.0,16975009.0,2683.0,73,R,16974295,16974623,330,544.3,432.4,3501,left
58,2,continuous,23,29,trial,16972326.0,16975009.0,2683.0,73,R,16974649,16974769,122,680.3,460.8,3593,left
58,2,continuous,23,29,trial,16972326.0,16975009.0,2683.0,73,R,16974817,16974997,182,788.9,906.9,3589,likertHorizontal
58,2,continuous,23,29,trial,16972326.0,16975009.0,2683.0,73,R,16975045,16975181,138,1217.1,861.2,3609,NA
58,2,continuous,23,29,postResponse,16972326.0,16975009.0,2683.0,73,R,16975235,16975343,110,941.5,422.8,3789,NA
58,2,continuous,24,90,fixationCross,16975993.0,16982042.0,6049.0,74,R,16975443,16975797,356,933.8,439.7,4010,NA
58,2,continuous,24,90,trial,16975993.0,16982042.0,6049.0,74,R,16975821,16976117,298,929.2,527.6,4177,NA
58,2,continuous,24,90,trial,16975993.0,16982042.0,6049.0,74,R,16976159,16976319,162,517.5,502.9,4183,left
58,2,continuous,24,90,trial,16975993.0,16982042.0,6049.0,74,R,16976343,16976543,202,390.5,512.1,3821,left
58,2,continuous,24,90,trial,16975993.0,16982042.0,6049.0,74,R,16976557,16976715,160,350.1,517.6,3620,left
58,2,continuous,24,90,trial,16975993.0,16982042.0,6049.0,74,R,16976781,16976967,188,1392.5,509.3,3423,right
58,2,continuous,24,90,trial,16975993.0,16982042.0,6049.0,74,R,16976979,16977341,364,1379.2,469.1,3392,right
58,2,continuous,24,90,trial,16975993.0,16982042.0,6049.0,74,R,16977353,16977887,536,1411.6,473.9,3333,right
58,2,continuous,24,90,trial,16975993.0,16982042.0,6049.0,74,R,16977899,16978513,616,1363.9,468.6,3391,right
58,2,continuous,24,90,trial,16975993.0,16982042.0,6049.0,74,R,16978545,16978723,180,1305.8,628.3,3503,right
58,2,continuous,24,90,trial,16975993.0,16982042.0,6049.0,74,R,16978791,16978989,200,468.0,499.0,3618,left
58,2,continuous,24,90,trial,16975993.0,16982042.0,6049.0,74,R,16979011,16979233,224,362.1,498.4,3578,left
58,2,continuous,24,90,trial,16975993.0,16982042.0,6049.0,74,R,16979247,16979661,416,325.2,515.7,3599,left
58,2,continuous,24,90,trial,16975993.0,16982042.0,6049.0,74,R,16979683,16979941,260,419.4,481.2,3557,left
58,2,continuous,24,90,trial,16975993.0,16982042.0,6049.0,74,R,16979957,16980173,218,367.2,504.7,3543,left
58,2,continuous,24,90,trial,16975993.0,16982042.0,6049.0,74,R,16980239,16980419,182,1390.8,501.1,3538,right
58,2,continuous,24,90,trial,16975993.0,16982042.0,6049.0,74,R,16980433,16980841,410,1378.4,467.6,3475,right
58,2,continuous,24,90,trial,16975993.0,16982042.0,6049.0,74,R,16980857,16981359,504,1425.3,482.2,3424,right
58,2,continuous,24,90,trial,16975993.0,16982042.0,6049.0,74,R,16981379,16981791,414,1385.4,545.9,3496,right
58,2,continuous,24,90,trial,16975993.0,16982042.0,6049.0,74,R,16981807,16982043,238,1385.0,494.9,3516,right
58,2,continuous,24,90,trial,16975993.0,16982042.0,6049.0,74,R,16982053,16982343,292,1359.3,482.2,3496,right
58,2,continuous,25,73,fixationCross,16982927.0,16987193.0,4266.0,75,R,16982451,16982771,322,1055.1,512.8,3745,NA
58,2,continuous,25,73,trial,16982927.0,16987193.0,4266.0,75,R,16982795,16983085,292,925.4,526.6,4031,NA
58,2,continuous,25,73,trial,16982927.0,16987193.0,4266.0,75,R,16983133,16983527,396,425.5,463.6,3735,left
58,2,continuous,25,73,trial,16982927.0,16987193.0,4266.0,75,R,16983541,16983665,126,402.4,483.8,3377,left
58,2,continuous,25,73,trial,16982927.0,16987193.0,4266.0,75,R,16983731,16984083,354,1366.2,433.8,3225,right
58,2,continuous,25,73,trial,16982927.0,16987193.0,4266.0,75,R,16984101,16984175,76,1434.2,454.7,3244,right
58,2,continuous,25,73,trial,16982927.0,16987193.0,4266.0,75,R,16984241,16984569,330,426.0,460.5,3434,left
58,2,continuous,25,73,trial,16982927.0,16987193.0,4266.0,75,R,16984593,16984813,222,517.0,521.4,3386,left
58,2,continuous,25,73,trial,16982927.0,16987193.0,4266.0,75,R,16984841,16985033,194,358.1,445.5,3315,left
58,2,continuous,25,73,trial,16982927.0,16987193.0,4266.0,75,R,16985231,16985577,348,1390.6,396.2,3264,right
58,2,continuous,25,73,trial,16982927.0,16987193.0,4266.0,75,R,16985601,16985925,326,1492.7,479.4,3327,right
58,2,continuous,25,73,trial,16982927.0,16987193.0,4266.0,75,R,16985955,16986089,136,1281.5,415.6,3363,right
58,2,continuous,25,73,trial,16982927.0,16987193.0,4266.0,75,R,16986113,16986257,146,1280.4,337.7,3377,NA
58,2,continuous,25,73,trial,16982927.0,16987193.0,4266.0,75,R,16986317,16986833,518,1208.7,908.4,3530,NA
58,2,continuous,25,73,trial,16982927.0,16987193.0,4266.0,75,R,16986861,16987213,354,1126.7,799.8,3761,likertHorizontal
58,2,continuous,25,73,trial,16982927.0,16987193.0,4266.0,75,R,16987265,16987477,214,820.3,441.9,3995,NA
58,2,continuous,26,42,fixationCross,17008910.0,17011777.0,2867.0,76,R,17008107,17008273,168,159.4,93.5,3950,NA
58,2,continuous,26,42,fixationCross,17008910.0,17011777.0,2867.0,76,R,17008325,17008427,104,731.9,241.9,3627,NA
58,2,continuous,26,42,fixationCross,17008910.0,17011777.0,2867.0,76,R,17008455,17008595,142,864.8,417.4,3570,NA
58,2,continuous,26,42,trial,17008910.0,17011777.0,2867.0,76,R,17008621,17009093,474,929.3,514.0,4001,NA
58,2,continuous,26,42,trial,17008910.0,17011777.0,2867.0,76,R,17009139,17009325,188,1357.8,430.5,4090,right
58,2,continuous,26,42,trial,17008910.0,17011777.0,2867.0,76,R,17009385,17009765,382,467.4,492.0,3742,left
58,2,continuous,26,42,trial,17008910.0,17011777.0,2867.0,76,R,17009785,17009851,68,460.4,415.7,3561,left
58,2,continuous,26,42,trial,17008910.0,17011777.0,2867.0,76,R,17009905,17010049,146,843.5,933.1,3462,likertHorizontal
58,2,continuous,26,42,trial,17008910.0,17011777.0,2867.0,76,R,17010111,17010205,96,1342.0,598.6,3389,right
58,2,continuous,26,42,trial,17008910.0,17011777.0,2867.0,76,R,17010243,17010449,208,1492.0,405.0,3449,right
58,2,continuous,26,42,trial,17008910.0,17011777.0,2867.0,76,R,17010463,17010657,196,1534.0,402.4,3571,right
58,2,continuous,26,42,trial,17008910.0,17011777.0,2867.0,76,R,17010727,17011017,292,835.6,899.3,3607,likertHorizontal
58,2,continuous,26,42,trial,17008910.0,17011777.0,2867.0,76,R,17011073,17011165,94,1276.5,642.3,3599,right
58,2,continuous,26,42,trial,17008910.0,17011777.0,2867.0,76,R,17011227,17011539,314,836.4,969.6,3904,likertHorizontal
58,2,continuous,26,42,postResponse,17008910.0,17011777.0,2867.0,76,R,17011565,17012115,552,995.0,932.0,3965,likertHorizontal
58,2,continuous,27,39,fixationCross,17012693.0,17016460.0,3767.0,77,R,17012215,17012383,170,985.5,702.9,4164,NA
