participantNo,block,task,blockTrial,response,trialStage,trialStartTime,trialFinishTime,rt,trial,eye,fixStart,fixEnd,fixLength,fixPosX,fixPosY,dilation,aoi
65,1,continuous,1,1,fixationCross,12584434.0,12587567.0,3133.0,1,L,12583917,12584081,166,1015.3,625.8,3216,NA
65,1,continuous,1,1,trial,12584434.0,12587567.0,3133.0,1,L,12584105,12584717,614,940.1,534.8,3136,NA
65,1,continuous,1,1,trial,12584434.0,12587567.0,3133.0,1,L,12584759,12584829,72,814.1,758.9,3249,likertHorizontal
65,1,continuous,1,1,trial,12584434.0,12587567.0,3133.0,1,L,12584855,12584959,106,871.0,934.8,3258,likertHorizontal
65,1,continuous,1,1,trial,12584434.0,12587567.0,3133.0,1,L,12584977,12585119,144,949.0,967.3,3291,likertHorizontal
65,1,continuous,1,1,trial,12584434.0,12587567.0,3133.0,1,L,12585167,12585331,166,531.1,1009.0,3299,NA
65,1,continuous,1,1,trial,12584434.0,12587567.0,3133.0,1,L,12585381,12585583,204,991.7,972.9,3252,likertHorizontal
65,1,continuous,1,1,trial,12584434.0,12587567.0,3133.0,1,L,12585593,12585839,248,973.1,979.9,3168,likertHorizontal
65,1,continuous,1,1,trial,12584434.0,12587567.0,3133.0,1,L,12585863,12585899,38,857.2,920.1,3260,likertHorizontal
65,1,continuous,1,1,trial,12584434.0,12587567.0,3133.0,1,L,12585953,12586155,204,525.1,596.3,3292,left
65,1,continuous,1,1,trial,12584434.0,12587567.0,3133.0,1,L,12586229,12586505,278,1453.6,539.1,3159,right
65,1,continuous,1,1,trial,12584434.0,12587567.0,3133.0,1,L,12586517,12586687,172,1483.4,527.7,3112,right
65,1,continuous,1,1,trial,12584434.0,12587567.0,3133.0,1,L,12586709,12586891,184,1332.4,493.7,3217,right
65,1,continuous,1,1,trial,12584434.0,12587567.0,3133.0,1,L,12586957,12587155,200,519.8,568.8,3242,left
65,1,continuous,1,1,trial,12584434.0,12587567.0,3133.0,1,L,12587173,12587333,162,460.6,621.8,3188,left
65,1,continuous,1,1,trial,12584434.0,12587567.0,3133.0,1,L,12587383,12587525,144,558.2,952.6,3145,NA
65,1,continuous,1,1,trial,12584434.0,12587567.0,3133.0,1,L,12587545,12587839,296,502.2,992.5,3204,NA
65,1,continuous,2,1,fixationCross,12588751.0,12591584.0,2833.0,2,L,12588037,12588225,190,685.3,362.8,3144,left
65,1,continuous,2,1,fixationCross,12588751.0,12591584.0,2833.0,2,L,12588251,12588459,210,838.4,401.3,3259,NA
65,1,continuous,2,1,trial,12588751.0,12591584.0,2833.0,2,L,12588485,12588913,430,948.4,542.4,3444,NA
65,1,continuous,2,1,trial,12588751.0,12591584.0,2833.0,2,L,12588959,12589161,204,567.7,601.0,3413,left
65,1,continuous,2,1,trial,12588751.0,12591584.0,2833.0,2,L,12589177,12589307,132,503.9,610.0,3199,left
65,1,continuous,2,1,trial,12588751.0,12591584.0,2833.0,2,L,12589369,12589639,272,1373.2,589.0,3132,right
65,1,continuous,2,1,trial,12588751.0,12591584.0,2833.0,2,L,12589649,12589855,208,1386.8,568.6,3099,right
65,1,continuous,2,1,trial,12588751.0,12591584.0,2833.0,2,L,12589921,12590123,204,499.0,606.8,3066,left
65,1,continuous,2,1,trial,12588751.0,12591584.0,2833.0,2,L,12590141,12590487,348,496.7,677.4,3134,left
65,1,continuous,2,1,trial,12588751.0,12591584.0,2833.0,2,L,12590537,12590687,152,741.8,927.4,3315,likertHorizontal
65,1,continuous,2,1,trial,12588751.0,12591584.0,2833.0,2,L,12590711,12591035,326,832.4,975.3,3280,likertHorizontal
65,1,continuous,2,1,trial,12588751.0,12591584.0,2833.0,2,L,12591057,12591479,424,637.6,987.7,3390,NA
65,1,continuous,2,1,trial,12588751.0,12591584.0,2833.0,2,L,12591499,12591637,140,515.5,1000.8,3385,NA
65,1,continuous,2,1,postResponse,12588751.0,12591584.0,2833.0,2,L,12591705,12591929,226,1385.6,574.5,3405,right
65,1,continuous,3,83,fixationCross,12592650.0,12594684.0,2034.0,3,L,12592089,12592383,296,1060.9,557.5,3440,NA
65,1,continuous,3,83,trial,12592650.0,12594684.0,2034.0,3,L,12592403,12592843,442,972.3,591.8,3545,NA
65,1,continuous,3,83,trial,12592650.0,12594684.0,2034.0,3,L,12592887,12593029,144,609.2,601.3,3379,left
65,1,continuous,3,83,trial,12592650.0,12594684.0,2034.0,3,L,12593053,12593221,170,527.4,528.7,3191,left
65,1,continuous,3,83,trial,12592650.0,12594684.0,2034.0,3,L,12593283,12593587,306,1398.2,566.0,3016,right
65,1,continuous,3,83,trial,12592650.0,12594684.0,2034.0,3,L,12593599,12593751,154,1407.4,525.7,3059,right
65,1,continuous,3,83,trial,12592650.0,12594684.0,2034.0,3,L,12593767,12593983,218,1335.7,500.0,3188,right
65,1,continuous,3,83,trial,12592650.0,12594684.0,2034.0,3,L,12594033,12594297,266,1197.1,891.1,3316,NA
65,1,continuous,3,83,trial,12592650.0,12594684.0,2034.0,3,L,12594315,12594769,456,1267.3,957.4,3421,NA
65,1,continuous,3,83,trial,12592650.0,12594684.0,2034.0,3,L,12594795,12594935,142,1429.7,1011.8,3471,NA
65,1,continuous,4,14,fixationCross,12595567.0,12598350.0,2783.0,4,L,12595095,12595479,386,1020.8,469.1,3480,NA
65,1,continuous,4,14,trial,12595567.0,12598350.0,2783.0,4,L,12595501,12595685,186,945.6,538.9,3641,NA
65,1,continuous,4,14,trial,12595567.0,12598350.0,2783.0,4,L,12595733,12595801,70,1301.4,986.1,3793,NA
65,1,continuous,4,14,trial,12595567.0,12598350.0,2783.0,4,L,12595821,12596063,244,1437.8,1007.3,3738,NA
65,1,continuous,4,14,trial,12595567.0,12598350.0,2783.0,4,L,12596129,12596227,100,610.8,1008.7,3593,NA
65,1,continuous,4,14,trial,12595567.0,12598350.0,2783.0,4,L,12596245,12596397,154,530.0,1040.8,3629,NA
65,1,continuous,4,14,trial,12595567.0,12598350.0,2783.0,4,L,12596449,12596739,292,462.2,587.8,3483,left
65,1,continuous,4,14,trial,12595567.0,12598350.0,2783.0,4,L,12596809,12597019,212,1362.4,552.7,3271,right
65,1,continuous,4,14,trial,12595567.0,12598350.0,2783.0,4,L,12597039,12597299,262,1338.1,505.0,3207,right
65,1,continuous,4,14,trial,12595567.0,12598350.0,2783.0,4,L,12597325,12597551,228,1503.5,463.7,3379,right
65,1,continuous,4,14,trial,12595567.0,12598350.0,2783.0,4,L,12597629,12597823,196,497.8,645.8,3445,left
65,1,continuous,4,14,trial,12595567.0,12598350.0,2783.0,4,L,12597879,12598117,240,635.2,960.6,3370,NA
65,1,continuous,4,14,trial,12595567.0,12598350.0,2783.0,4,L,12598127,12598385,260,653.3,977.4,3292,NA
65,1,continuous,4,14,trial,12595567.0,12598350.0,2783.0,4,L,12598437,12598641,206,555.7,525.6,3338,left
65,1,continuous,5,90,fixationCross,12599500.0,12601350.0,1850.0,5,L,12598809,12599203,396,849.5,473.2,3360,NA
65,1,continuous,5,90,fixationCross,12599500.0,12601350.0,1850.0,5,L,12599225,12599465,242,947.0,531.4,3602,NA
65,1,continuous,5,90,trial,12599500.0,12601350.0,1850.0,5,L,12599485,12599661,178,1052.7,557.7,3659,NA
65,1,continuous,5,90,trial,12599500.0,12601350.0,1850.0,5,L,12599699,12599861,164,1368.0,477.9,3642,right
65,1,continuous,5,90,trial,12599500.0,12601350.0,1850.0,5,L,12599885,12600125,242,1409.8,407.1,3478,right
65,1,continuous,5,90,trial,12599500.0,12601350.0,1850.0,5,L,12600195,12600539,346,493.6,537.2,3240,left
65,1,continuous,5,90,trial,12599500.0,12601350.0,1850.0,5,L,12600599,12600849,252,1249.9,951.5,3250,NA
65,1,continuous,5,90,trial,12599500.0,12601350.0,1850.0,5,L,12600873,12601231,360,1380.8,965.6,3294,NA
65,1,continuous,5,90,trial,12599500.0,12601350.0,1850.0,5,L,12601241,12601383,144,1347.5,970.0,3376,NA
65,1,continuous,5,90,trial,12599500.0,12601350.0,1850.0,5,L,12601457,12601635,180,730.7,614.1,3336,left
65,1,continuous,6,12,fixationCross,12602267.0,12604384.0,2117.0,6,L,12601789,12601895,108,1197.7,422.5,3250,right
65,1,continuous,6,12,fixationCross,12602267.0,12604384.0,2117.0,6,L,12601941,12602177,238,893.9,488.7,3314,NA
65,1,continuous,6,12,trial,12602267.0,12604384.0,2117.0,6,L,12602201,12602427,228,971.1,542.0,3429,NA
65,1,continuous,6,12,trial,12602267.0,12604384.0,2117.0,6,L,12602475,12602607,134,562.7,536.2,3426,left
65,1,continuous,6,12,trial,12602267.0,12604384.0,2117.0,6,L,12602631,12602807,178,435.0,477.5,3219,left
65,1,continuous,6,12,trial,12602267.0,12604384.0,2117.0,6,L,12602873,12603155,284,1422.0,593.1,3048,right
65,1,continuous,6,12,trial,12602267.0,12604384.0,2117.0,6,L,12603173,12603313,142,1474.9,612.1,3062,right
65,1,continuous,6,12,trial,12602267.0,12604384.0,2117.0,6,L,12603389,12603709,322,487.0,595.0,3148,left
65,1,continuous,6,12,trial,12602267.0,12604384.0,2117.0,6,L,12603755,12603933,180,662.5,913.6,3161,NA
65,1,continuous,6,12,trial,12602267.0,12604384.0,2117.0,6,L,12603947,12604169,224,662.8,972.8,3169,NA
65,1,continuous,6,12,trial,12602267.0,12604384.0,2117.0,6,L,12604217,12604355,140,429.0,495.4,3147,left
65,1,continuous,6,12,trial,12602267.0,12604384.0,2117.0,6,L,12604369,12604671,304,418.3,474.3,3047,left
65,1,continuous,7,1,fixationCross,12605584.0,12607434.0,1850.0,7,L,12604891,12605171,282,1216.3,488.2,3108,right
65,1,continuous,7,1,fixationCross,12605584.0,12607434.0,1850.0,7,L,12605197,12605491,296,1060.2,533.4,3333,NA
65,1,continuous,7,1,trial,12605584.0,12607434.0,1850.0,7,L,12605515,12605749,236,919.3,529.9,3343,NA
65,1,continuous,7,1,trial,12605584.0,12607434.0,1850.0,7,L,12605811,12605971,162,1346.3,539.8,3282,right
65,1,continuous,7,1,trial,12605584.0,12607434.0,1850.0,7,L,12605983,12606135,154,1393.4,548.1,3137,right
65,1,continuous,7,1,trial,12605584.0,12607434.0,1850.0,7,L,12606201,12606581,382,494.3,524.6,3022,left
65,1,continuous,7,1,trial,12605584.0,12607434.0,1850.0,7,L,12606645,12606791,148,643.0,904.4,3045,NA
65,1,continuous,7,1,trial,12605584.0,12607434.0,1850.0,7,L,12606823,12606963,142,840.6,949.1,3107,likertHorizontal
65,1,continuous,7,1,trial,12605584.0,12607434.0,1850.0,7,L,12606997,12607387,392,564.4,972.3,3218,NA
65,1,continuous,7,1,trial,12605584.0,12607434.0,1850.0,7,L,12607403,12607651,250,495.2,978.2,3210,NA
65,1,continuous,7,1,postResponse,12605584.0,12607434.0,1850.0,7,L,12607723,12607769,48,724.7,421.1,3121,left
65,1,continuous,8,80,fixationCross,12608317.0,12610484.0,2167.0,8,L,12607843,12607993,152,724.3,420.8,3065,left
65,1,continuous,8,80,fixationCross,12608317.0,12610484.0,2167.0,8,L,12608031,12608249,220,1002.1,461.2,3163,NA
65,1,continuous,8,80,trial,12608317.0,12610484.0,2167.0,8,L,12608269,12608501,234,948.9,532.7,3315,NA
65,1,continuous,8,80,trial,12608317.0,12610484.0,2167.0,8,L,12608539,12608743,206,625.3,575.5,3407,left
65,1,continuous,8,80,trial,12608317.0,12610484.0,2167.0,8,L,12608771,12608915,146,459.2,507.1,3195,left
65,1,continuous,8,80,trial,12608317.0,12610484.0,2167.0,8,L,12608977,12609231,256,1306.4,605.4,3049,right
65,1,continuous,8,80,trial,12608317.0,12610484.0,2167.0,8,L,12609255,12609457,204,1435.0,593.2,3042,right
65,1,continuous,8,80,trial,12608317.0,12610484.0,2167.0,8,L,12609527,12609811,286,572.9,557.1,3148,left
65,1,continuous,8,80,trial,12608317.0,12610484.0,2167.0,8,L,12609833,12610027,196,633.6,571.3,3087,left
65,1,continuous,8,80,trial,12608317.0,12610484.0,2167.0,8,L,12610091,12610339,250,1236.1,992.3,3102,NA
65,1,continuous,8,80,trial,12608317.0,12610484.0,2167.0,8,L,12610357,12610725,370,1274.6,969.5,3120,NA
65,1,continuous,8,80,postResponse,12608317.0,12610484.0,2167.0,8,L,12610787,12610819,34,1072.5,506.0,3177,NA
65,1,continuous,9,10,fixationCross,12611633.0,12613518.0,1885.0,9,L,12610921,12611155,236,1060.8,503.8,3220,NA
65,1,continuous,9,10,fixationCross,12611633.0,12613518.0,1885.0,9,L,12611191,12611421,232,856.4,523.8,3309,NA
65,1,continuous,9,10,trial,12611633.0,12613518.0,1885.0,9,L,12611435,12611775,342,916.3,533.8,3349,NA
65,1,continuous,9,10,trial,12611633.0,12613518.0,1885.0,9,L,12611831,12612007,178,521.5,521.2,3297,left
65,1,continuous,9,10,trial,12611633.0,12613518.0,1885.0,9,L,12612019,12612167,150,479.0,523.8,3154,left
65,1,continuous,9,10,trial,12611633.0,12613518.0,1885.0,9,L,12612229,12612415,188,1322.7,512.4,2975,right
65,1,continuous,9,10,trial,12611633.0,12613518.0,1885.0,9,L,12612437,12612859,424,1331.9,431.4,2907,right
65,1,continuous,9,10,trial,12611633.0,12613518.0,1885.0,9,L,12612923,12613207,286,561.7,448.4,2920,left
65,1,continuous,9,10,trial,12611633.0,12613518.0,1885.0,9,L,12613229,12613577,350,469.9,510.9,2990,left
65,1,continuous,9,10,postResponse,12611633.0,12613518.0,1885.0,9,L,12613599,12613851,254,548.5,436.5,2994,left
65,1,continuous,10,23,fixationCross,12614651.0,12617368.0,2717.0,10,L,12614047,12614343,298,954.1,420.6,3100,NA
65,1,continuous,10,23,trial,12614651.0,12617368.0,2717.0,10,L,12614369,12614665,298,974.8,551.2,3264,NA
65,1,continuous,10,23,trial,12614651.0,12617368.0,2717.0,10,L,12614681,12614819,140,1012.2,507.8,3239,NA
65,1,continuous,10,23,trial,12614651.0,12617368.0,2717.0,10,L,12614859,12615007,150,1309.4,497.2,3139,right
65,1,continuous,10,23,trial,12614651.0,12617368.0,2717.0,10,L,12615031,12615225,196,1439.7,495.7,3003,right
65,1,continuous,10,23,trial,12614651.0,12617368.0,2717.0,10,L,12615295,12615563,270,472.5,516.3,2953,left
65,1,continuous,10,23,trial,12614651.0,12617368.0,2717.0,10,L,12615577,12616117,542,474.7,490.5,2899,left
65,1,continuous,10,23,trial,12614651.0,12617368.0,2717.0,10,L,12616181,12616527,348,1259.0,953.8,3057,NA
65,1,continuous,10,23,trial,12614651.0,12617368.0,2717.0,10,L,12616589,12616779,192,1410.2,503.3,3082,right
65,1,continuous,10,23,trial,12614651.0,12617368.0,2717.0,10,L,12616833,12617005,174,1088.8,955.7,3148,likertHorizontal
65,1,continuous,10,23,trial,12614651.0,12617368.0,2717.0,10,L,12617041,12617327,288,782.0,969.6,3249,likertHorizontal
65,1,continuous,10,23,trial,12614651.0,12617368.0,2717.0,10,L,12617363,12617577,216,668.3,922.0,3382,NA
65,1,continuous,11,16,fixationCross,12618433.0,12620967.0,2534.0,11,L,12617773,12618127,356,786.1,481.6,3384,NA
65,1,continuous,11,16,trial,12618433.0,12620967.0,2534.0,11,L,12618153,12618455,304,948.2,532.7,3331,NA
65,1,continuous,11,16,trial,12618433.0,12620967.0,2534.0,11,L,12618479,12618647,170,880.4,469.6,3240,NA
65,1,continuous,11,16,trial,12618433.0,12620967.0,2534.0,11,L,12618697,12619221,526,489.6,523.1,3050,left
65,1,continuous,11,16,trial,12618433.0,12620967.0,2534.0,11,L,12619289,12619577,290,1342.1,464.1,2892,right
65,1,continuous,11,16,trial,12618433.0,12620967.0,2534.0,11,L,12619595,12619791,198,1378.3,485.6,2925,right
65,1,continuous,11,16,trial,12618433.0,12620967.0,2534.0,11,L,12619811,12619873,64,1261.8,497.5,2964,right
65,1,continuous,11,16,trial,12618433.0,12620967.0,2534.0,11,L,12619939,12620223,286,488.3,549.5,2986,left
65,1,continuous,11,16,trial,12618433.0,12620967.0,2534.0,11,L,12620255,12620499,246,482.8,642.9,2984,left
65,1,continuous,11,16,trial,12618433.0,12620967.0,2534.0,11,L,12620541,12620751,212,685.7,968.9,3103,NA
65,1,continuous,11,16,trial,12618433.0,12620967.0,2534.0,11,L,12620773,12620911,140,590.9,992.1,3111,NA
65,1,continuous,11,16,trial,12618433.0,12620967.0,2534.0,11,L,12620921,12621167,248,624.8,990.4,3125,NA
65,1,continuous,11,16,trial,12618433.0,12620967.0,2534.0,11,L,12621201,12621223,24,703.8,981.5,3094,NA
65,1,continuous,11,16,postResponse,12618433.0,12620967.0,2534.0,11,L,12621263,12621301,40,681.2,826.0,3092,NA
65,1,continuous,12,1,fixationCross,12622051.0,12623634.0,1583.0,12,L,12621375,12621401,28,693.7,832.7,3103,NA
65,1,continuous,12,1,fixationCross,12622051.0,12623634.0,1583.0,12,L,12621567,12621757,192,854.2,514.3,3289,NA
65,1,continuous,12,1,fixationCross,12622051.0,12623634.0,1583.0,12,L,12621779,12621993,216,962.6,538.7,3442,NA
65,1,continuous,12,1,trial,12622051.0,12623634.0,1583.0,12,L,12622013,12622191,180,877.9,512.8,3317,NA
65,1,continuous,12,1,trial,12622051.0,12623634.0,1583.0,12,L,12622239,12622453,216,545.1,535.2,3173,left
65,1,continuous,12,1,trial,12622051.0,12623634.0,1583.0,12,L,12622523,12623139,618,1452.2,546.4,2985,right
65,1,continuous,12,1,trial,12622051.0,12623634.0,1583.0,12,L,12623203,12623403,202,649.3,753.0,3144,NA
65,1,continuous,12,1,trial,12622051.0,12623634.0,1583.0,12,L,12623439,12623619,182,554.9,990.1,3149,NA
65,1,continuous,12,1,trial,12622051.0,12623634.0,1583.0,12,L,12623635,12623881,248,495.1,988.8,3144,NA
65,1,continuous,12,1,postResponse,12622051.0,12623634.0,1583.0,12,L,12623949,12623979,32,737.4,547.3,3097,NA
65,1,continuous,13,100,fixationCross,12624551.0,12626684.0,2133.0,13,L,12624079,12624099,22,745.9,539.1,3060,NA
65,1,continuous,13,100,fixationCross,12624551.0,12626684.0,2133.0,13,L,12624139,12624439,302,1017.6,507.5,3138,NA
65,1,continuous,13,100,trial,12624551.0,12626684.0,2133.0,13,L,12624453,12624735,284,962.3,537.0,3338,NA
65,1,continuous,13,100,trial,12624551.0,12626684.0,2133.0,13,L,12624785,12624957,174,570.6,542.9,3317,left
65,1,continuous,13,100,trial,12624551.0,12626684.0,2133.0,13,L,12624979,12625117,140,469.2,540.8,3201,left
65,1,continuous,13,100,trial,12624551.0,12626684.0,2133.0,13,L,12625183,12625497,316,1366.6,522.2,3170,right
65,1,continuous,13,100,trial,12624551.0,12626684.0,2133.0,13,L,12625515,12625619,106,1417.1,553.7,3199,right
65,1,continuous,13,100,trial,12624551.0,12626684.0,2133.0,13,L,12625689,12626001,314,477.1,537.2,3242,left
65,1,continuous,13,100,trial,12624551.0,12626684.0,2133.0,13,L,12626013,12626189,178,449.2,569.7,3231,left
65,1,continuous,13,100,trial,12624551.0,12626684.0,2133.0,13,L,12626265,12626447,184,1213.1,969.0,3301,NA
65,1,continuous,13,100,trial,12624551.0,12626684.0,2133.0,13,L,12626475,12626677,204,1425.5,965.4,3262,NA
65,1,continuous,13,100,postResponse,12624551.0,12626684.0,2133.0,13,L,12626727,12627019,294,1416.1,497.7,3200,right
65,1,continuous,14,95,fixationCross,12627751.0,12630151.0,2400.0,14,L,12627093,12627217,126,1411.9,491.6,3110,right
65,1,continuous,14,95,fixationCross,12627751.0,12630151.0,2400.0,14,L,12627249,12627445,198,1146.1,488.2,3182,NA
65,1,continuous,14,95,trial,12627751.0,12630151.0,2400.0,14,L,12627475,12627825,352,959.7,538.4,3260,NA
65,1,continuous,14,95,trial,12627751.0,12630151.0,2400.0,14,L,12627863,12627957,96,749.1,542.0,3286,NA
65,1,continuous,14,95,trial,12627751.0,12630151.0,2400.0,14,L,12627981,12628149,170,610.4,586.8,3227,left
65,1,continuous,14,95,trial,12627751.0,12630151.0,2400.0,14,L,12628177,12628281,106,477.5,488.1,3037,left
65,1,continuous,14,95,trial,12627751.0,12630151.0,2400.0,14,L,12628347,12628527,182,1396.5,526.9,2988,right
65,1,continuous,14,95,trial,12627751.0,12630151.0,2400.0,14,L,12628555,12628903,350,1601.9,505.5,2898,right
65,1,continuous,14,95,trial,12627751.0,12630151.0,2400.0,14,L,12628915,12629203,290,1560.7,486.1,2892,right
65,1,continuous,14,95,trial,12627751.0,12630151.0,2400.0,14,L,12629211,12629305,96,1565.1,469.2,2863,right
65,1,continuous,14,95,trial,12627751.0,12630151.0,2400.0,14,L,12629379,12629613,236,483.5,555.4,2849,left
65,1,continuous,14,95,trial,12627751.0,12630151.0,2400.0,14,L,12629629,12629765,138,472.0,513.7,2868,left
65,1,continuous,14,95,trial,12627751.0,12630151.0,2400.0,14,L,12629821,12629957,138,1111.1,913.6,3035,likertHorizontal
65,1,continuous,14,95,trial,12627751.0,12630151.0,2400.0,14,L,12629993,12630377,386,1414.8,972.4,3148,NA
65,1,continuous,15,100,fixationCross,12631034.0,12634451.0,3417.0,15,L,12630595,12630741,148,821.5,565.1,3226,NA
65,1,continuous,15,100,fixationCross,12631034.0,12634451.0,3417.0,15,L,12630765,12630935,172,954.4,503.2,3337,NA
65,1,continuous,15,100,trial,12631034.0,12634451.0,3417.0,15,L,12630947,12631191,246,935.5,530.4,3297,NA
65,1,continuous,15,100,trial,12631034.0,12634451.0,3417.0,15,L,12631235,12631363,130,649.7,518.1,3227,left
65,1,continuous,15,100,trial,12631034.0,12634451.0,3417.0,15,L,12631383,12631573,192,528.8,491.3,3120,left
65,1,continuous,15,100,trial,12631034.0,12634451.0,3417.0,15,L,12631593,12632071,480,509.6,421.9,2929,left
65,1,continuous,15,100,trial,12631034.0,12634451.0,3417.0,15,L,12632137,12632375,240,1398.3,505.6,2928,right
65,1,continuous,15,100,trial,12631034.0,12634451.0,3417.0,15,L,12632397,12632553,158,1515.3,526.0,2989,right
65,1,continuous,15,100,trial,12631034.0,12634451.0,3417.0,15,L,12632577,12632815,240,1574.2,480.2,3048,right
65,1,continuous,15,100,trial,12631034.0,12634451.0,3417.0,15,L,12632839,12632967,130,1436.6,516.9,3061,right
65,1,continuous,15,100,trial,12631034.0,12634451.0,3417.0,15,L,12633041,12633261,222,483.6,467.7,3072,left
65,1,continuous,15,100,trial,12631034.0,12634451.0,3417.0,15,L,12633279,12633497,220,506.0,408.0,3039,left
65,1,continuous,15,100,trial,12631034.0,12634451.0,3417.0,15,L,12633567,12633731,166,1465.9,444.5,2967,right
65,1,continuous,15,100,trial,12631034.0,12634451.0,3417.0,15,L,12633757,12634395,640,1586.4,456.3,3174,right
65,1,continuous,15,100,trial,12631034.0,12634451.0,3417.0,15,L,12634417,12634671,256,1461.6,503.4,3268,right
65,1,continuous,16,100,fixationCross,12637268.0,12639317.0,2049.0,16,L,12634871,12635131,262,721.7,454.1,3263,left
65,1,continuous,16,100,fixationCross,12637268.0,12639317.0,2049.0,16,L,12635157,12635553,398,872.0,473.3,3270,NA
65,1,continuous,16,100,fixationCross,12637268.0,12639317.0,2049.0,16,L,12635573,12635887,316,776.2,496.8,3212,NA
65,1,continuous,16,100,fixationCross,12637268.0,12639317.0,2049.0,16,L,12635903,12636115,214,719.9,488.0,3197,left
65,1,continuous,16,100,fixationCross,12637268.0,12639317.0,2049.0,16,L,12636133,12636587,456,635.4,473.9,3159,left
65,1,continuous,16,100,fixationCross,12637268.0,12639317.0,2049.0,16,L,12636615,12636857,244,845.6,493.3,3168,NA
65,1,continuous,16,100,fixationCross,12637268.0,12639317.0,2049.0,16,L,12636879,12636969,92,726.3,485.7,3127,left
65,1,continuous,16,100,fixationCross,12637268.0,12639317.0,2049.0,16,L,12637001,12637161,162,928.8,527.6,3203,NA
65,1,continuous,16,100,trial,12637268.0,12639317.0,2049.0,16,L,12637171,12637417,248,948.1,548.3,3282,NA
65,1,continuous,16,100,trial,12637268.0,12639317.0,2049.0,16,L,12637471,12637735,266,465.1,555.4,3215,left
65,1,continuous,16,100,trial,12637268.0,12639317.0,2049.0,16,L,12637803,12637961,160,1386.0,610.6,2981,right
65,1,continuous,16,100,trial,12637268.0,12639317.0,2049.0,16,L,12637983,12638319,338,1476.8,640.5,2954,right
65,1,continuous,16,100,trial,12637268.0,12639317.0,2049.0,16,L,12638395,12638677,284,446.4,590.1,3014,left
65,1,continuous,16,100,trial,12637268.0,12639317.0,2049.0,16,L,12638693,12638857,166,487.1,564.8,2922,left
65,1,continuous,16,100,trial,12637268.0,12639317.0,2049.0,16,L,12638921,12639135,216,1291.1,976.9,2894,NA
65,1,continuous,16,100,trial,12637268.0,12639317.0,2049.0,16,L,12639159,12639501,344,1433.5,985.8,2989,NA
65,1,continuous,17,97,fixationCross,12640467.0,12642684.0,2217.0,17,L,12639751,12639845,96,921.0,576.1,3118,NA
65,1,continuous,17,97,fixationCross,12640467.0,12642684.0,2217.0,17,L,12640005,12640149,146,761.1,439.4,3247,NA
65,1,continuous,17,97,trial,12640467.0,12642684.0,2217.0,17,L,12640175,12640621,448,897.9,488.8,3266,NA
65,1,continuous,17,97,trial,12640467.0,12642684.0,2217.0,17,L,12640663,12640859,198,576.2,503.1,3114,left
65,1,continuous,17,97,trial,12640467.0,12642684.0,2217.0,17,L,12640877,12640943,68,516.7,546.2,3000,left
65,1,continuous,17,97,trial,12640467.0,12642684.0,2217.0,17,L,12641009,12641233,226,1491.4,545.0,2966,right
65,1,continuous,17,97,trial,12640467.0,12642684.0,2217.0,17,L,12641255,12641429,176,1439.9,464.4,2922,right
65,1,continuous,17,97,trial,12640467.0,12642684.0,2217.0,17,L,12641439,12641899,462,1437.2,434.8,2907,right
65,1,continuous,17,97,trial,12640467.0,12642684.0,2217.0,17,L,12641973,12642253,282,513.6,523.7,2860,left
65,1,continuous,17,97,postResponse,12640467.0,12642684.0,2217.0,17,L,12642319,12643001,684,1296.1,641.2,3009,right
65,1,continuous,18,18,trial,12643601.0,12645584.0,1983.0,18,L,12643249,12643741,494,930.4,497.8,3266,NA
65,1,continuous,18,18,trial,12643601.0,12645584.0,1983.0,18,L,12643787,12643981,196,571.9,505.1,3138,left
65,1,continuous,18,18,trial,12643601.0,12645584.0,1983.0,18,L,12643997,12644183,188,572.1,474.2,3016,left
65,1,continuous,18,18,trial,12643601.0,12645584.0,1983.0,18,L,12644249,12644493,246,1409.1,554.5,2878,right
65,1,continuous,18,18,trial,12643601.0,12645584.0,1983.0,18,L,12644509,12644841,334,1451.2,541.1,2995,right
65,1,continuous,18,18,trial,12643601.0,12645584.0,1983.0,18,L,12644867,12644925,60,1296.1,614.6,3180,right
65,1,continuous,18,18,trial,12643601.0,12645584.0,1983.0,18,L,12644991,12645421,432,565.3,513.2,3096,left
65,1,continuous,18,18,trial,12643601.0,12645584.0,1983.0,18,L,12645467,12645597,132,711.1,926.3,2972,NA
65,1,continuous,18,18,trial,12643601.0,12645584.0,1983.0,18,L,12645609,12645859,252,670.6,962.5,2975,NA
65,1,continuous,19,12,fixationCross,12646701.0,12648451.0,1750.0,19,L,12646017,12646387,372,769.5,416.7,3100,NA
65,1,continuous,19,12,fixationCross,12646701.0,12648451.0,1750.0,19,L,12646419,12646643,226,925.5,523.7,3187,NA
65,1,continuous,19,12,trial,12646701.0,12648451.0,1750.0,19,L,12646663,12646845,184,838.8,524.2,3136,NA
65,1,continuous,19,12,trial,12646701.0,12648451.0,1750.0,19,L,12646889,12647269,382,462.7,582.9,3073,left
65,1,continuous,19,12,trial,12646701.0,12648451.0,1750.0,19,L,12647333,12647591,260,1360.0,540.1,2808,right
65,1,continuous,19,12,trial,12646701.0,12648451.0,1750.0,19,L,12647605,12647837,234,1401.4,531.8,2840,right
65,1,continuous,19,12,trial,12646701.0,12648451.0,1750.0,19,L,12647899,12648105,208,872.3,915.5,3012,likertHorizontal
65,1,continuous,19,12,trial,12646701.0,12648451.0,1750.0,19,L,12648135,12648411,278,656.2,986.8,3095,NA
65,1,continuous,19,12,trial,12646701.0,12648451.0,1750.0,19,L,12648425,12648695,272,602.2,991.4,3065,NA
65,1,continuous,20,100,fixationCross,12649501.0,12651334.0,1833.0,20,L,12649013,12649065,54,805.1,532.7,3035,NA
65,1,continuous,20,100,trial,12649501.0,12651334.0,1833.0,20,L,12649237,12649639,404,926.1,508.0,3314,NA
65,1,continuous,20,100,trial,12649501.0,12651334.0,1833.0,20,L,12649685,12649915,232,533.5,527.2,3070,left
65,1,continuous,20,100,trial,12649501.0,12651334.0,1833.0,20,L,12649933,12650039,108,463.6,550.6,2942,left
65,1,continuous,20,100,trial,12649501.0,12651334.0,1833.0,20,L,12650109,12650449,342,1459.0,556.6,2870,right
65,1,continuous,20,100,trial,12649501.0,12651334.0,1833.0,20,L,12650467,12650637,172,1371.9,567.5,2963,right
65,1,continuous,20,100,trial,12649501.0,12651334.0,1833.0,20,L,12650663,12651581,920,1522.2,593.5,3165,right
65,1,continuous,20,100,postResponse,12649501.0,12651334.0,1833.0,20,L,12651635,12651667,34,1018.7,489.9,3149,NA
65,1,continuous,21,1,fixationCross,12652684.0,12655084.0,2400.0,21,L,12651769,12652043,276,1001.4,484.4,3214,NA
65,1,continuous,21,1,trial,12652684.0,12655084.0,2400.0,21,L,12652067,12652685,620,876.6,466.9,3295,NA
65,1,continuous,21,1,trial,12652684.0,12655084.0,2400.0,21,L,12652703,12652829,128,807.0,487.7,3296,NA
65,1,continuous,21,1,trial,12652684.0,12655084.0,2400.0,21,L,12652865,12653075,212,606.5,521.2,3262,left
65,1,continuous,21,1,trial,12652684.0,12655084.0,2400.0,21,L,12653101,12653321,222,430.7,522.6,3070,left
65,1,continuous,21,1,trial,12652684.0,12655084.0,2400.0,21,L,12653337,12653573,238,497.9,516.4,2974,left
65,1,continuous,21,1,trial,12652684.0,12655084.0,2400.0,21,L,12653649,12654253,606,1444.8,511.0,2853,right
65,1,continuous,21,1,trial,12652684.0,12655084.0,2400.0,21,L,12654325,12654701,378,498.4,527.9,2974,left
65,1,continuous,21,1,trial,12652684.0,12655084.0,2400.0,21,L,12654743,12654999,258,659.6,761.0,2887,NA
65,1,continuous,21,1,postResponse,12652684.0,12655084.0,2400.0,21,L,12655033,12655415,384,515.0,540.4,2877,left
65,1,continuous,22,1,fixationCross,12656301.0,12658401.0,2100.0,22,L,12655595,12655771,178,1277.0,469.1,2962,right
65,1,continuous,22,1,fixationCross,12656301.0,12658401.0,2100.0,22,L,12655815,12655967,154,1030.7,458.2,3087,NA
65,1,continuous,22,1,trial,12656301.0,12658401.0,2100.0,22,L,12655989,12656543,556,945.0,520.5,3298,NA
65,1,continuous,22,1,trial,12656301.0,12658401.0,2100.0,22,L,12656589,12656807,220,1349.7,524.2,3170,right
65,1,continuous,22,1,trial,12656301.0,12658401.0,2100.0,22,L,12656823,12656919,98,1426.4,536.7,3041,right
65,1,continuous,22,1,trial,12656301.0,12658401.0,2100.0,22,L,12656987,12657375,390,511.3,555.7,2987,left
65,1,continuous,22,1,trial,12656301.0,12658401.0,2100.0,22,L,12657449,12657737,290,1479.6,566.8,2901,right
65,1,continuous,22,1,trial,12656301.0,12658401.0,2100.0,22,L,12657749,12658039,292,1429.9,581.4,2966,right
65,1,continuous,22,1,trial,12656301.0,12658401.0,2100.0,22,L,12658087,12658265,180,1072.2,743.1,3066,likertHorizontal
65,1,continuous,22,1,postResponse,12656301.0,12658401.0,2100.0,22,L,12658311,12658733,424,1396.3,534.2,2979,right
65,1,continuous,23,88,fixationCross,12659518.0,12661801.0,2283.0,23,L,12658833,12658985,154,1388.2,526.6,2987,right
65,1,continuous,23,88,fixationCross,12659518.0,12661801.0,2283.0,23,L,12659029,12659207,180,1096.8,506.6,3130,NA
65,1,continuous,23,88,fixationCross,12659518.0,12661801.0,2283.0,23,L,12659231,12659443,214,949.3,536.2,3232,NA
65,1,continuous,23,88,trial,12659518.0,12661801.0,2283.0,23,L,12659467,12659659,194,828.9,533.2,3277,NA
65,1,continuous,23,88,trial,12659518.0,12661801.0,2283.0,23,L,12659701,12659927,228,483.1,527.4,3173,left
65,1,continuous,23,88,trial,12659518.0,12661801.0,2283.0,23,L,12659999,12660401,404,1448.9,556.8,3042,right
65,1,continuous,23,88,trial,12659518.0,12661801.0,2283.0,23,L,12660421,12660731,312,1388.6,509.8,3016,right
65,1,continuous,23,88,trial,12659518.0,12661801.0,2283.0,23,L,12660799,12660931,134,574.4,538.6,2979,left
65,1,continuous,23,88,trial,12659518.0,12661801.0,2283.0,23,L,12660947,12661099,154,497.2,553.5,2953,left
65,1,continuous,23,88,trial,12659518.0,12661801.0,2283.0,23,L,12661119,12661241,124,496.8,629.7,2934,left
65,1,continuous,23,88,trial,12659518.0,12661801.0,2283.0,23,L,12661257,12661697,442,487.1,692.0,3036,left
65,1,continuous,23,88,trial,12659518.0,12661801.0,2283.0,23,L,12661761,12662067,308,1342.5,891.5,3269,NA
65,1,continuous,24,1,fixationCross,12662668.0,12664585.0,1917.0,24,L,12662275,12662549,276,1049.1,509.0,3261,NA
65,1,continuous,24,1,trial,12662668.0,12664585.0,1917.0,24,L,12662573,12662817,246,944.9,546.6,3266,NA
65,1,continuous,24,1,trial,12662668.0,12664585.0,1917.0,24,L,12662861,12663081,222,597.2,550.1,3074,left
65,1,continuous,24,1,trial,12662668.0,12664585.0,1917.0,24,L,12663097,12663329,234,577.4,507.1,2919,left
65,1,continuous,24,1,trial,12662668.0,12664585.0,1917.0,24,L,12663389,12663595,208,1370.7,580.7,2823,right
65,1,continuous,24,1,trial,12662668.0,12664585.0,1917.0,24,L,12663615,12663707,94,1465.3,604.5,2839,right
65,1,continuous,24,1,trial,12662668.0,12664585.0,1917.0,24,L,12663773,12663951,180,608.6,536.9,2926,left
65,1,continuous,24,1,trial,12662668.0,12664585.0,1917.0,24,L,12663971,12664277,308,515.7,549.0,3037,left
65,1,continuous,24,1,trial,12662668.0,12664585.0,1917.0,24,L,12664295,12664451,158,574.7,521.3,3068,left
65,1,continuous,24,1,trial,12662668.0,12664585.0,1917.0,24,L,12664495,12664629,136,539.8,947.8,3128,NA
65,1,continuous,24,1,trial,12662668.0,12664585.0,1917.0,24,L,12664647,12664809,164,487.0,978.9,3187,NA
65,1,continuous,25,100,fixationCross,12665668.0,12668551.0,2883.0,25,L,12665043,12665359,318,807.0,466.8,3210,NA
65,1,continuous,25,100,trial,12665668.0,12668551.0,2883.0,25,L,12665381,12665711,332,908.2,507.4,3245,NA
65,1,continuous,25,100,trial,12665668.0,12668551.0,2883.0,25,L,12665733,12665829,98,805.0,518.9,3177,NA
65,1,continuous,25,100,trial,12665668.0,12668551.0,2883.0,25,L,12665867,12666195,330,575.4,567.1,3112,left
65,1,continuous,25,100,trial,12665668.0,12668551.0,2883.0,25,L,12666205,12666251,48,537.4,572.2,2991,left
65,1,continuous,25,100,trial,12665668.0,12668551.0,2883.0,25,L,12666315,12666599,286,1369.9,575.0,2900,right
65,1,continuous,25,100,trial,12665668.0,12668551.0,2883.0,25,L,12666627,12666999,374,1514.9,526.8,2880,right
65,1,continuous,25,100,trial,12665668.0,12668551.0,2883.0,25,L,12667033,12667175,144,1281.9,601.3,3002,right
65,1,continuous,25,100,trial,12665668.0,12668551.0,2883.0,25,L,12667237,12667643,408,525.3,598.8,3022,left
65,1,continuous,25,100,trial,12665668.0,12668551.0,2883.0,25,L,12667653,12667733,82,549.6,591.1,2997,left
65,1,continuous,25,100,trial,12665668.0,12668551.0,2883.0,25,L,12667793,12668049,258,1325.3,599.1,2974,right
65,1,continuous,25,100,trial,12665668.0,12668551.0,2883.0,25,L,12668079,12668839,762,1504.0,545.3,2974,right
65,1,continuous,26,6,fixationCross,12690685.0,12692268.0,1583.0,26,L,12690061,12690387,328,1107.3,403.1,2981,NA
65,1,continuous,26,6,trial,12690685.0,12692268.0,1583.0,26,L,12690417,12690909,494,939.5,552.9,3374,NA
65,1,continuous,26,6,trial,12690685.0,12692268.0,1583.0,26,L,12690953,12691145,194,569.5,563.5,3378,left
65,1,continuous,26,6,trial,12690685.0,12692268.0,1583.0,26,L,12691159,12691267,110,590.2,542.6,3245,left
65,1,continuous,26,6,trial,12690685.0,12692268.0,1583.0,26,L,12691325,12691573,250,1355.8,561.6,3159,right
65,1,continuous,26,6,trial,12690685.0,12692268.0,1583.0,26,L,12691587,12691675,90,1303.1,574.1,3111,right
65,1,continuous,26,6,trial,12690685.0,12692268.0,1583.0,26,L,12691737,12691915,180,540.4,510.4,3186,left
65,1,continuous,26,6,trial,12690685.0,12692268.0,1583.0,26,L,12691931,12692323,394,595.7,511.1,3247,left
65,1,continuous,26,6,trial,12690685.0,12692268.0,1583.0,26,L,12692381,12692539,160,517.8,984.3,3220,NA
65,1,continuous,27,100,fixationCross,12693352.0,12695169.0,1817.0,27,L,12692763,12693055,294,941.0,425.9,3317,NA
65,1,continuous,27,100,trial,12693352.0,12695169.0,1817.0,27,L,12693075,12693507,434,928.5,508.8,3549,NA
65,1,continuous,27,100,trial,12693352.0,12695169.0,1817.0,27,L,12693551,12693837,288,576.5,518.1,3464,left
65,1,continuous,27,100,trial,12693352.0,12695169.0,1817.0,27,L,12693851,12693877,28,613.5,497.6,3349,left
65,1,continuous,27,100,trial,12693352.0,12695169.0,1817.0,27,L,12693939,12694235,298,1380.7,523.3,3356,right
65,1,continuous,27,100,trial,12693352.0,12695169.0,1817.0,27,L,12694247,12694679,434,1398.4,508.8,3352,right
65,1,continuous,27,100,trial,12693352.0,12695169.0,1817.0,27,L,12694749,12695379,632,600.3,516.3,3302,left
65,1,continuous,28,100,fixationCross,12696085.0,12698618.0,2533.0,28,L,12695603,12695775,174,773.1,492.8,3200,NA
65,1,continuous,28,100,fixationCross,12696085.0,12698618.0,2533.0,28,L,12695803,12695947,146,991.2,515.3,3310,NA
65,1,continuous,28,100,trial,12696085.0,12698618.0,2533.0,28,L,12695965,12696223,260,934.3,534.4,3358,NA
65,1,continuous,28,100,trial,12696085.0,12698618.0,2533.0,28,L,12696271,12696461,192,586.1,565.2,3313,left
65,1,continuous,28,100,trial,12696085.0,12698618.0,2533.0,28,L,12696535,12696773,240,1414.2,535.6,3105,right
65,1,continuous,28,100,trial,12696085.0,12698618.0,2533.0,28,L,12696785,12696953,170,1393.7,573.8,3021,right
65,1,continuous,28,100,trial,12696085.0,12698618.0,2533.0,28,L,12696975,12697017,44,1473.7,601.2,3099,right
65,1,continuous,28,100,trial,12696085.0,12698618.0,2533.0,28,L,12697089,12697367,280,505.6,594.5,3251,left
65,1,continuous,28,100,trial,12696085.0,12698618.0,2533.0,28,L,12697379,12697489,112,504.0,635.4,3261,left
65,1,continuous,28,100,trial,12696085.0,12698618.0,2533.0,28,L,12697541,12697691,152,1119.2,920.2,3238,likertHorizontal
65,1,continuous,28,100,trial,12696085.0,12698618.0,2533.0,28,L,12697739,12697943,206,1462.7,547.9,3133,right
65,1,continuous,28,100,trial,12696085.0,12698618.0,2533.0,28,L,12697959,12698247,290,1422.0,595.5,3255,right
65,1,continuous,28,100,trial,12696085.0,12698618.0,2533.0,28,L,12698291,12698637,348,1394.9,951.7,3543,NA
65,1,continuous,28,100,trial,12696085.0,12698618.0,2533.0,28,L,12698649,12698817,170,1428.5,961.6,3540,NA
65,1,continuous,29,1,fixationCross,12700085.0,12701702.0,1617.0,29,L,12699027,12699275,250,1004.7,503.9,3427,NA
65,1,continuous,29,1,fixationCross,12700085.0,12701702.0,1617.0,29,L,12699301,12699899,600,846.0,502.9,3446,NA
65,1,continuous,29,1,trial,12700085.0,12701702.0,1617.0,29,L,12699919,12700237,320,929.8,541.2,3464,NA
65,1,continuous,29,1,trial,12700085.0,12701702.0,1617.0,29,L,12700283,12700499,218,569.6,534.9,3402,left
65,1,continuous,29,1,trial,12700085.0,12701702.0,1617.0,29,L,12700521,12700907,388,452.0,541.6,3155,left
65,1,continuous,29,1,trial,12700085.0,12701702.0,1617.0,29,L,12700973,12701319,348,1405.7,557.9,3051,right
65,1,continuous,29,1,trial,12700085.0,12701702.0,1617.0,29,L,12701337,12701677,342,1316.3,591.0,3236,right
65,1,continuous,29,1,trial,12700085.0,12701702.0,1617.0,29,L,12701709,12701935,228,1492.7,566.1,3311,right
65,1,continuous,30,100,fixationCross,12702685.0,12704351.0,1666.0,30,L,12702173,12702377,206,747.5,541.0,3272,NA
65,1,continuous,30,100,fixationCross,12702685.0,12704351.0,1666.0,30,L,12702415,12702593,180,977.5,489.0,3382,NA
65,1,continuous,30,100,trial,12702685.0,12704351.0,1666.0,30,L,12702617,12702821,206,859.5,491.8,3347,NA
65,1,continuous,30,100,trial,12702685.0,12704351.0,1666.0,30,L,12702861,12703005,146,555.3,519.0,3379,left
65,1,continuous,30,100,trial,12702685.0,12704351.0,1666.0,30,L,12703029,12703269,242,461.1,466.8,3218,left
65,1,continuous,30,100,trial,12702685.0,12704351.0,1666.0,30,L,12703335,12703545,212,1389.6,501.1,3048,right
65,1,continuous,30,100,trial,12702685.0,12704351.0,1666.0,30,L,12703565,12703745,182,1463.5,485.8,3010,right
65,1,continuous,30,100,trial,12702685.0,12704351.0,1666.0,30,L,12703769,12703949,182,1413.9,609.5,3121,right
65,1,continuous,30,100,trial,12702685.0,12704351.0,1666.0,30,L,12703993,12704215,224,1346.3,869.0,3365,NA
65,1,continuous,30,100,trial,12702685.0,12704351.0,1666.0,30,L,12704239,12704627,390,1433.1,950.8,3526,NA
65,1,continuous,31,1,fixationCross,12706402.0,12707868.0,1466.0,31,L,12704759,12704851,94,1056.4,584.8,3524,NA
65,1,continuous,31,1,fixationCross,12706402.0,12707868.0,1466.0,31,L,12704899,12705327,430,809.8,522.3,3562,NA
65,1,continuous,31,1,fixationCross,12706402.0,12707868.0,1466.0,31,L,12705339,12705885,548,759.5,535.0,3611,NA
65,1,continuous,31,1,fixationCross,12706402.0,12707868.0,1466.0,31,L,12705899,12706091,194,721.6,521.3,3508,left
65,1,continuous,31,1,trial,12706402.0,12707868.0,1466.0,31,L,12706119,12706555,438,925.0,548.8,3481,NA
65,1,continuous,31,1,trial,12706402.0,12707868.0,1466.0,31,L,12706597,12706769,174,612.1,547.2,3541,left
65,1,continuous,31,1,trial,12706402.0,12707868.0,1466.0,31,L,12706791,12706909,120,494.0,542.8,3331,left
65,1,continuous,31,1,trial,12706402.0,12707868.0,1466.0,31,L,12706969,12707183,216,1336.8,569.2,3134,right
65,1,continuous,31,1,trial,12706402.0,12707868.0,1466.0,31,L,12707201,12707537,338,1405.2,546.4,3101,right
65,1,continuous,31,1,trial,12706402.0,12707868.0,1466.0,31,L,12707603,12707767,166,771.7,956.0,3338,likertHorizontal
65,1,continuous,31,1,trial,12706402.0,12707868.0,1466.0,31,L,12707799,12708147,350,509.3,986.5,3332,NA
65,1,continuous,32,100,fixationCross,12708918.0,12710252.0,1334.0,32,L,12708275,12708413,140,829.3,459.6,3280,NA
65,1,continuous,32,100,fixationCross,12708918.0,12710252.0,1334.0,32,L,12708459,12708627,170,1171.8,485.1,3335,NA
65,1,continuous,32,100,trial,12708918.0,12710252.0,1334.0,32,L,12708657,12709055,400,969.6,526.8,3555,NA
65,1,continuous,32,100,trial,12708918.0,12710252.0,1334.0,32,L,12709095,12709243,150,1316.3,532.9,3641,right
65,1,continuous,32,100,trial,12708918.0,12710252.0,1334.0,32,L,12709259,12709385,128,1351.2,560.2,3551,right
65,1,continuous,32,100,trial,12708918.0,12710252.0,1334.0,32,L,12709455,12709775,322,447.7,524.4,3416,left
65,1,continuous,32,100,trial,12708918.0,12710252.0,1334.0,32,L,12709791,12709943,154,388.9,522.1,3277,left
65,1,continuous,32,100,trial,12708918.0,12710252.0,1334.0,32,L,12710009,12710189,182,1171.7,941.3,3263,likertHorizontal
65,1,continuous,32,100,trial,12708918.0,12710252.0,1334.0,32,L,12710221,12710471,252,1443.6,956.0,3283,NA
65,1,continuous,33,1,fixationCross,12712835.0,12715285.0,2450.0,33,L,12710767,12711167,402,859.7,449.7,3487,NA
65,1,continuous,33,1,fixationCross,12712835.0,12715285.0,2450.0,33,L,12711193,12711931,740,747.0,522.8,3347,NA
65,1,continuous,33,1,fixationCross,12712835.0,12715285.0,2450.0,33,L,12711953,12712221,270,857.0,536.6,3403,NA
65,1,continuous,33,1,fixationCross,12712835.0,12715285.0,2450.0,33,L,12712243,12712685,444,735.0,522.3,3452,left
65,1,continuous,33,1,trial,12712835.0,12715285.0,2450.0,33,L,12712711,12712893,184,879.8,532.5,3465,NA
65,1,continuous,33,1,trial,12712835.0,12715285.0,2450.0,33,L,12712907,12713009,104,932.1,543.9,3442,NA
65,1,continuous,33,1,trial,12712835.0,12715285.0,2450.0,33,L,12713059,12713221,164,465.2,526.3,3392,left
65,1,continuous,33,1,trial,12712835.0,12715285.0,2450.0,33,L,12713239,12713361,124,387.3,505.8,3279,left
65,1,continuous,33,1,trial,12712835.0,12715285.0,2450.0,33,L,12713429,12713773,346,1414.1,537.2,3050,right
65,1,continuous,33,1,trial,12712835.0,12715285.0,2450.0,33,L,12713797,12713989,194,1309.4,586.4,3089,right
65,1,continuous,33,1,trial,12712835.0,12715285.0,2450.0,33,L,12714019,12714241,224,1442.6,466.0,3189,right
65,1,continuous,33,1,trial,12712835.0,12715285.0,2450.0,33,L,12714267,12714487,222,1257.5,583.0,3215,right
65,1,continuous,33,1,trial,12712835.0,12715285.0,2450.0,33,L,12714561,12714749,190,318.4,557.2,3217,left
65,1,continuous,33,1,trial,12712835.0,12715285.0,2450.0,33,L,12714767,12714919,154,390.6,525.2,3212,left
65,1,continuous,33,1,trial,12712835.0,12715285.0,2450.0,33,L,12714965,12715139,176,534.1,818.0,3095,NA
65,1,continuous,33,1,trial,12712835.0,12715285.0,2450.0,33,L,12715163,12715333,172,510.7,953.3,3110,NA
65,1,continuous,33,1,trial,12712835.0,12715285.0,2450.0,33,L,12715347,12715491,146,473.9,933.2,3186,NA
65,1,continuous,34,94,fixationCross,12716635.0,12718202.0,1567.0,34,L,12715717,12716329,614,863.6,432.2,3262,NA
65,1,continuous,34,94,trial,12716635.0,12718202.0,1567.0,34,L,12716355,12716663,310,945.8,516.0,3299,NA
65,1,continuous,34,94,trial,12716635.0,12718202.0,1567.0,34,L,12716681,12716783,104,864.9,510.3,3314,NA
65,1,continuous,34,94,trial,12716635.0,12718202.0,1567.0,34,L,12716821,12717031,212,564.1,525.3,3301,left
65,1,continuous,34,94,trial,12716635.0,12718202.0,1567.0,34,L,12717049,12717235,188,509.8,494.5,3183,left
65,1,continuous,34,94,trial,12716635.0,12718202.0,1567.0,34,L,12717297,12717629,334,1332.4,581.2,3080,right
65,1,continuous,34,94,trial,12716635.0,12718202.0,1567.0,34,L,12717665,12717971,308,1513.8,426.5,3106,right
65,1,continuous,34,94,trial,12716635.0,12718202.0,1567.0,34,L,12718029,12718247,220,1389.2,1006.8,3281,NA
65,1,continuous,34,94,trial,12716635.0,12718202.0,1567.0,34,L,12718259,12718437,180,1425.0,976.8,3347,NA
65,1,continuous,35,98,fixationCross,12719202.0,12720585.0,1383.0,35,L,12718609,12718905,298,841.5,489.6,3353,NA
65,1,continuous,35,98,trial,12719202.0,12720585.0,1383.0,35,L,12718933,12719389,458,986.7,467.7,3442,NA
65,1,continuous,35,98,trial,12719202.0,12720585.0,1383.0,35,L,12719439,12719685,248,581.8,558.4,3404,left
65,1,continuous,35,98,trial,12719202.0,12720585.0,1383.0,35,L,12719775,12719929,156,1440.4,492.6,3218,right
65,1,continuous,35,98,trial,12719202.0,12720585.0,1383.0,35,L,12719955,12720129,176,1563.1,458.3,3174,right
65,1,continuous,35,98,trial,12719202.0,12720585.0,1383.0,35,L,12720205,12720605,402,451.8,501.6,3332,left
65,1,continuous,35,98,postResponse,12719202.0,12720585.0,1383.0,35,L,12720617,12720917,302,465.6,485.4,3394,left
65,1,continuous,36,1,fixationCross,12721635.0,12723586.0,1951.0,36,L,12720993,12721313,322,684.3,486.5,3474,left
65,1,continuous,36,1,trial,12721635.0,12723586.0,1951.0,36,L,12721339,12721777,440,878.6,525.4,3612,NA
65,1,continuous,36,1,trial,12721635.0,12723586.0,1951.0,36,L,12721825,12722185,362,526.3,556.2,3552,left
65,1,continuous,36,1,trial,12721635.0,12723586.0,1951.0,36,L,12722253,12722457,206,1419.5,560.3,3273,right
65,1,continuous,36,1,trial,12721635.0,12723586.0,1951.0,36,L,12722473,12722899,428,1443.2,500.1,3165,right
65,1,continuous,36,1,trial,12721635.0,12723586.0,1951.0,36,L,12722971,12723187,218,541.3,538.1,3146,left
65,1,continuous,36,1,trial,12721635.0,12723586.0,1951.0,36,L,12723195,12723849,656,522.4,565.3,3161,left
65,1,continuous,37,1,fixationCross,12724452.0,12726535.0,2083.0,37,L,12723993,12724287,296,900.3,544.2,3176,NA
65,1,continuous,37,1,trial,12724452.0,12726535.0,2083.0,37,L,12724305,12724615,312,971.3,542.8,3382,NA
65,1,continuous,37,1,trial,12724452.0,12726535.0,2083.0,37,L,12724661,12724857,198,602.8,569.4,3393,left
65,1,continuous,37,1,trial,12724452.0,12726535.0,2083.0,37,L,12724877,12724929,54,521.9,539.7,3248,left
65,1,continuous,37,1,trial,12724452.0,12726535.0,2083.0,37,L,12724993,12725243,252,1310.0,527.4,3085,right
65,1,continuous,37,1,trial,12724452.0,12726535.0,2083.0,37,L,12725271,12725509,240,1498.7,514.1,3011,right
65,1,continuous,37,1,trial,12724452.0,12726535.0,2083.0,37,L,12725521,12725677,158,1449.2,537.4,3106,right
65,1,continuous,37,1,trial,12724452.0,12726535.0,2083.0,37,L,12725701,12725893,194,1602.9,545.0,3080,right
65,1,continuous,37,1,trial,12724452.0,12726535.0,2083.0,37,L,12725935,12726021,88,1249.6,486.9,3102,right
65,1,continuous,37,1,trial,12724452.0,12726535.0,2083.0,37,L,12726077,12726225,150,720.5,540.3,3171,left
65,1,continuous,37,1,trial,12724452.0,12726535.0,2083.0,37,L,12726247,12726445,200,625.5,553.8,3224,left
65,1,continuous,37,1,trial,12724452.0,12726535.0,2083.0,37,L,12726465,12726819,356,523.4,538.3,3111,left
65,1,continuous,38,100,fixationCross,12727585.0,12729218.0,1633.0,38,L,12727087,12727305,220,1066.2,473.9,3149,NA
65,1,continuous,38,100,trial,12727585.0,12729218.0,1633.0,38,L,12727327,12727727,402,972.2,511.2,3405,NA
65,1,continuous,38,100,trial,12727585.0,12729218.0,1633.0,38,L,12727777,12727917,142,551.0,524.8,3424,left
65,1,continuous,38,100,trial,12727585.0,12729218.0,1633.0,38,L,12727933,12728101,170,487.7,535.6,3224,left
65,1,continuous,38,100,trial,12727585.0,12729218.0,1633.0,38,L,12728167,12728505,340,1416.3,534.3,3034,right
65,1,continuous,38,100,trial,12727585.0,12729218.0,1633.0,38,L,12728525,12728739,216,1312.8,532.8,3094,right
65,1,continuous,38,100,trial,12727585.0,12729218.0,1633.0,38,L,12728763,12729065,304,1464.5,479.0,3206,right
65,1,continuous,38,100,trial,12727585.0,12729218.0,1633.0,38,L,12729123,12729481,360,1426.6,932.2,3296,NA
65,1,continuous,39,1,trial,12730135.0,12733019.0,2884.0,39,L,12729651,12730275,626,960.7,498.2,3393,NA
65,1,continuous,39,1,trial,12730135.0,12733019.0,2884.0,39,L,12730323,12730475,154,604.3,510.7,3388,left
65,1,continuous,39,1,trial,12730135.0,12733019.0,2884.0,39,L,12730493,12730687,196,515.0,514.5,3257,left
65,1,continuous,39,1,trial,12730135.0,12733019.0,2884.0,39,L,12730755,12731023,270,1396.9,497.2,3033,right
65,1,continuous,39,1,trial,12730135.0,12733019.0,2884.0,39,L,12731035,12731211,178,1440.1,495.6,3039,right
65,1,continuous,39,1,trial,12730135.0,12733019.0,2884.0,39,L,12731281,12731737,458,526.6,508.8,3127,left
65,1,continuous,39,1,trial,12730135.0,12733019.0,2884.0,39,L,12731749,12731849,102,501.1,498.8,3040,left
65,1,continuous,39,1,trial,12730135.0,12733019.0,2884.0,39,L,12731917,12732259,344,1371.6,504.9,3119,right
65,1,continuous,39,1,trial,12730135.0,12733019.0,2884.0,39,L,12732327,12732553,228,485.4,521.5,3178,left
65,1,continuous,39,1,trial,12730135.0,12733019.0,2884.0,39,L,12732603,12732759,158,614.3,975.3,3281,NA
65,1,continuous,39,1,trial,12730135.0,12733019.0,2884.0,39,L,12732783,12732869,88,512.4,935.3,3273,NA
65,1,continuous,39,1,trial,12730135.0,12733019.0,2884.0,39,L,12732911,12733279,370,465.4,554.3,3147,left
65,1,continuous,39,1,postResponse,12730135.0,12733019.0,2884.0,39,L,12733311,12733353,44,715.1,494.9,3074,left
65,1,continuous,40,100,fixationCross,12733952.0,12735685.0,1733.0,40,L,12733427,12733633,208,729.9,489.3,3106,left
65,1,continuous,40,100,fixationCross,12733952.0,12735685.0,1733.0,40,L,12733669,12733893,226,1008.2,497.2,3250,NA
65,1,continuous,40,100,trial,12733952.0,12735685.0,1733.0,40,L,12733911,12734091,182,927.2,518.2,3338,NA
65,1,continuous,40,100,trial,12733952.0,12735685.0,1733.0,40,L,12734145,12734281,138,493.2,523.0,3408,left
65,1,continuous,40,100,trial,12733952.0,12735685.0,1733.0,40,L,12734299,12734437,140,562.7,518.1,3332,left
65,1,continuous,40,100,trial,12733952.0,12735685.0,1733.0,40,L,12734447,12734525,80,588.3,490.9,3233,left
65,1,continuous,40,100,trial,12733952.0,12735685.0,1733.0,40,L,12734583,12734927,346,1318.6,516.5,3051,right
65,1,continuous,40,100,trial,12733952.0,12735685.0,1733.0,40,L,12734953,12735211,260,1478.2,474.7,2969,right
65,1,continuous,40,100,trial,12733952.0,12735685.0,1733.0,40,L,12735283,12735459,178,543.8,478.2,3033,left
65,1,continuous,40,100,trial,12733952.0,12735685.0,1733.0,40,L,12735473,12735593,122,582.6,452.7,3020,left
65,1,continuous,40,100,trial,12733952.0,12735685.0,1733.0,40,L,12735657,12735951,296,1327.3,701.4,3110,right
65,1,continuous,41,100,fixationCross,12736685.0,12738286.0,1601.0,41,L,12736095,12736387,294,1115.3,458.9,3217,NA
65,1,continuous,41,100,trial,12736685.0,12738286.0,1601.0,41,L,12736419,12736817,400,910.7,499.0,3353,NA
65,1,continuous,41,100,trial,12736685.0,12738286.0,1601.0,41,L,12736859,12737085,228,593.6,502.8,3298,left
65,1,continuous,41,100,trial,12736685.0,12738286.0,1601.0,41,L,12737111,12737213,104,491.0,568.3,3150,left
65,1,continuous,41,100,trial,12736685.0,12738286.0,1601.0,41,L,12737277,12737417,142,1379.9,478.3,3004,right
65,1,continuous,41,100,trial,12736685.0,12738286.0,1601.0,41,L,12737439,12737741,304,1456.2,419.9,2932,right
65,1,continuous,41,100,trial,12736685.0,12738286.0,1601.0,41,L,12737791,12737991,202,1325.2,849.9,3189,NA
65,1,continuous,41,100,trial,12736685.0,12738286.0,1601.0,41,L,12738041,12738259,220,1422.0,433.9,3291,right
65,1,continuous,41,100,postResponse,12736685.0,12738286.0,1601.0,41,L,12738281,12738619,340,1468.1,383.9,3186,right
65,1,continuous,42,1,fixationCross,12739319.0,12740702.0,1383.0,42,L,12738695,12738721,28,1457.7,391.2,3120,right
65,1,continuous,42,1,fixationCross,12739319.0,12740702.0,1383.0,42,L,12738887,12739009,124,1137.8,472.0,3295,NA
65,1,continuous,42,1,trial,12739319.0,12740702.0,1383.0,42,L,12739037,12739389,354,938.1,530.2,3451,NA
65,1,continuous,42,1,trial,12739319.0,12740702.0,1383.0,42,L,12739413,12739497,86,833.5,520.7,3430,NA
65,1,continuous,42,1,trial,12739319.0,12740702.0,1383.0,42,L,12739541,12739787,248,486.4,530.3,3296,left
65,1,continuous,42,1,trial,12739319.0,12740702.0,1383.0,42,L,12739849,12740099,252,1332.8,525.0,3129,right
65,1,continuous,42,1,trial,12739319.0,12740702.0,1383.0,42,L,12740121,12740583,464,1361.6,414.0,3081,right
65,1,continuous,42,1,trial,12739319.0,12740702.0,1383.0,42,L,12740655,12740773,120,543.0,495.6,3199,left
65,1,continuous,42,1,postResponse,12739319.0,12740702.0,1383.0,42,L,12740791,12741035,246,467.2,521.3,3207,left
65,1,continuous,43,1,trial,12741619.0,12743535.0,1916.0,43,L,12741137,12741761,626,924.2,466.7,3366,NA
65,1,continuous,43,1,trial,12741619.0,12743535.0,1916.0,43,L,12741809,12741937,130,525.9,500.9,3506,left
65,1,continuous,43,1,trial,12741619.0,12743535.0,1916.0,43,L,12741963,12742143,182,398.0,555.5,3346,left
65,1,continuous,43,1,trial,12741619.0,12743535.0,1916.0,43,L,12742213,12742489,278,1425.4,550.0,3189,right
65,1,continuous,43,1,trial,12741619.0,12743535.0,1916.0,43,L,12742503,12742757,256,1415.4,513.6,3088,right
65,1,continuous,43,1,trial,12741619.0,12743535.0,1916.0,43,L,12742829,12742951,124,441.4,570.5,3061,left
65,1,continuous,43,1,trial,12741619.0,12743535.0,1916.0,43,L,12742967,12743319,354,382.7,580.3,3131,left
65,1,continuous,43,1,trial,12741619.0,12743535.0,1916.0,43,L,12743365,12743525,162,529.1,949.1,3165,NA
65,1,continuous,43,1,trial,12741619.0,12743535.0,1916.0,43,L,12743539,12743807,270,496.6,969.7,3137,NA
65,1,continuous,44,100,fixationCross,12744702.0,12746303.0,1601.0,44,L,12743945,12744219,276,567.2,441.8,3120,left
65,1,continuous,44,100,fixationCross,12744702.0,12746303.0,1601.0,44,L,12744423,12744647,226,969.6,522.2,3328,NA
65,1,continuous,44,100,trial,12744702.0,12746303.0,1601.0,44,L,12744679,12744849,172,779.0,471.0,3379,NA
65,1,continuous,44,100,trial,12744702.0,12746303.0,1601.0,44,L,12744879,12745097,220,573.3,490.6,3312,left
65,1,continuous,44,100,trial,12744702.0,12746303.0,1601.0,44,L,12745165,12745301,138,1437.9,513.5,3028,right
65,1,continuous,44,100,postResponse,12744702.0,12746303.0,1601.0,44,L,12745335,12746635,1302,1596.4,460.4,2967,right
65,1,continuous,45,1,fixationCross,12748335.0,12750268.0,1933.0,45,L,12746735,12746817,84,1580.5,479.8,3096,right
65,1,continuous,45,1,fixationCross,12748335.0,12750268.0,1933.0,45,L,12746895,12747375,482,866.6,466.3,3283,NA
65,1,continuous,45,1,fixationCross,12748335.0,12750268.0,1933.0,45,L,12747393,12748045,654,809.2,519.5,3334,NA
65,1,continuous,45,1,fixationCross,12748335.0,12750268.0,1933.0,45,L,12748067,12748225,160,917.8,514.8,3255,NA
65,1,continuous,45,1,trial,12748335.0,12750268.0,1933.0,45,L,12748237,12748503,268,954.4,532.0,3304,NA
65,1,continuous,45,1,trial,12748335.0,12750268.0,1933.0,45,L,12748551,12748753,204,541.9,509.2,3387,left
65,1,continuous,45,1,trial,12748335.0,12750268.0,1933.0,45,L,12748775,12748923,150,427.0,489.8,3217,left
65,1,continuous,45,1,trial,12748335.0,12750268.0,1933.0,45,L,12748941,12749053,114,377.1,475.6,3066,left
65,1,continuous,45,1,trial,12748335.0,12750268.0,1933.0,45,L,12749125,12749483,360,1391.5,489.1,2984,right
65,1,continuous,45,1,trial,12748335.0,12750268.0,1933.0,45,L,12749503,12749703,202,1461.5,510.8,3168,right
65,1,continuous,45,1,trial,12748335.0,12750268.0,1933.0,45,L,12749771,12750029,260,543.8,574.1,3301,left
65,1,continuous,45,1,trial,12748335.0,12750268.0,1933.0,45,L,12750047,12750147,102,452.1,575.8,3219,left
65,1,continuous,45,1,trial,12748335.0,12750268.0,1933.0,45,L,12750195,12750539,346,462.8,967.5,3166,NA
65,1,continuous,46,1,fixationCross,12751436.0,12753352.0,1916.0,46,L,12750711,12750817,108,943.8,517.0,3204,NA
65,1,continuous,46,1,fixationCross,12751436.0,12753352.0,1916.0,46,L,12751009,12751149,142,861.7,476.0,3324,NA
65,1,continuous,46,1,trial,12751436.0,12753352.0,1916.0,46,L,12751171,12751563,394,928.0,526.3,3372,NA
65,1,continuous,46,1,trial,12751436.0,12753352.0,1916.0,46,L,12751613,12751781,170,529.4,512.0,3170,left
65,1,continuous,46,1,trial,12751436.0,12753352.0,1916.0,46,L,12751801,12752293,494,474.0,468.5,2864,left
65,1,continuous,46,1,trial,12751436.0,12753352.0,1916.0,46,L,12752361,12752661,302,1363.8,524.6,2751,right
65,1,continuous,46,1,trial,12751436.0,12753352.0,1916.0,46,L,12752675,12752787,114,1422.8,539.9,2860,right
65,1,continuous,46,1,trial,12751436.0,12753352.0,1916.0,46,L,12752845,12753049,206,751.9,941.0,2989,likertHorizontal
65,1,continuous,46,1,trial,12751436.0,12753352.0,1916.0,46,L,12753075,12753269,196,521.0,982.7,3001,NA
65,1,continuous,46,1,trial,12751436.0,12753352.0,1916.0,46,L,12753279,12753585,308,483.1,986.1,3017,NA
65,1,continuous,47,100,fixationCross,12754436.0,12757168.0,2732.0,47,L,12753785,12754135,352,1054.6,477.5,3069,NA
65,1,continuous,47,100,trial,12754436.0,12757168.0,2732.0,47,L,12754157,12754581,426,963.9,529.3,3296,NA
65,1,continuous,47,100,trial,12754436.0,12757168.0,2732.0,47,L,12754631,12754897,268,513.4,547.0,3178,left
65,1,continuous,47,100,trial,12754436.0,12757168.0,2732.0,47,L,12754907,12754933,28,480.3,537.3,3030,left
65,1,continuous,47,100,trial,12754436.0,12757168.0,2732.0,47,L,12755003,12755243,242,1378.8,526.0,2867,right
65,1,continuous,47,100,trial,12754436.0,12757168.0,2732.0,47,L,12755263,12755601,340,1481.4,530.1,2847,right
65,1,continuous,47,100,trial,12754436.0,12757168.0,2732.0,47,L,12755621,12755887,268,1382.4,563.9,2953,right
65,1,continuous,47,100,trial,12754436.0,12757168.0,2732.0,47,L,12755901,12755967,68,1441.4,552.8,2990,right
65,1,continuous,47,100,trial,12754436.0,12757168.0,2732.0,47,L,12756039,12756357,320,468.8,571.1,3002,left
65,1,continuous,47,100,trial,12754436.0,12757168.0,2732.0,47,L,12756413,12756731,320,623.0,892.8,2961,NA
65,1,continuous,47,100,trial,12754436.0,12757168.0,2732.0,47,L,12756743,12756769,28,604.9,930.4,2985,NA
65,1,continuous,47,100,trial,12754436.0,12757168.0,2732.0,47,L,12756827,12757051,226,1319.3,947.1,3071,NA
65,1,continuous,47,100,trial,12754436.0,12757168.0,2732.0,47,L,12757073,12757187,116,1441.5,960.2,3187,NA
65,1,continuous,47,100,postResponse,12754436.0,12757168.0,2732.0,47,L,12757237,12757499,264,1428.0,551.2,3270,right
65,1,continuous,48,100,fixationCross,12758269.0,12760035.0,1766.0,48,L,12757607,12757945,340,1158.6,491.8,3285,NA
65,1,continuous,48,100,trial,12758269.0,12760035.0,1766.0,48,L,12757973,12758411,440,949.0,531.7,3398,NA
65,1,continuous,48,100,trial,12758269.0,12760035.0,1766.0,48,L,12758463,12758637,176,529.1,521.7,3299,left
65,1,continuous,48,100,trial,12758269.0,12760035.0,1766.0,48,L,12758659,12758983,326,498.0,433.7,3052,left
65,1,continuous,48,100,trial,12758269.0,12760035.0,1766.0,48,L,12759047,12759293,248,1353.5,542.8,2883,right
65,1,continuous,48,100,trial,12758269.0,12760035.0,1766.0,48,L,12759307,12759575,270,1290.3,551.7,2995,right
65,1,continuous,48,100,trial,12758269.0,12760035.0,1766.0,48,L,12759599,12759965,368,1343.6,696.3,3230,right
65,1,continuous,48,100,postResponse,12758269.0,12760035.0,1766.0,48,L,12759991,12760369,380,1331.7,563.7,3179,right
65,1,continuous,49,1,fixationCross,12762619.0,12764136.0,1517.0,49,L,12760443,12760687,246,1309.0,563.3,3182,right
65,1,continuous,49,1,fixationCross,12762619.0,12764136.0,1517.0,49,L,12760749,12761111,364,825.1,475.7,3339,NA
65,1,continuous,49,1,fixationCross,12762619.0,12764136.0,1517.0,49,L,12761137,12761409,274,684.2,475.7,3326,left
65,1,continuous,49,1,fixationCross,12762619.0,12764136.0,1517.0,49,L,12761433,12761723,292,568.0,478.8,3268,left
65,1,continuous,49,1,fixationCross,12762619.0,12764136.0,1517.0,49,L,12761733,12761983,252,546.2,474.9,3239,left
65,1,continuous,49,1,fixationCross,12762619.0,12764136.0,1517.0,49,L,12762023,12762373,352,836.3,481.0,3194,NA
65,1,continuous,49,1,trial,12762619.0,12764136.0,1517.0,49,L,12762387,12762759,374,899.3,480.7,3289,NA
65,1,continuous,49,1,trial,12762619.0,12764136.0,1517.0,49,L,12762809,12762995,188,517.5,502.9,3312,left
65,1,continuous,49,1,trial,12762619.0,12764136.0,1517.0,49,L,12763009,12763255,248,556.8,495.2,3113,left
65,1,continuous,49,1,trial,12762619.0,12764136.0,1517.0,49,L,12763275,12763297,24,633.2,477.2,2991,left
65,1,continuous,49,1,trial,12762619.0,12764136.0,1517.0,49,L,12763357,12763783,428,1378.1,535.0,2946,right
65,1,continuous,49,1,trial,12762619.0,12764136.0,1517.0,49,L,12763847,12764091,246,582.0,538.0,3088,left
65,1,continuous,49,1,postResponse,12762619.0,12764136.0,1517.0,49,L,12764111,12764469,360,583.2,491.5,2991,left
65,1,continuous,50,100,fixationCross,12765219.0,12768119.0,2900.0,50,L,12764543,12764649,108,582.4,486.4,2955,left
65,1,continuous,50,100,fixationCross,12765219.0,12768119.0,2900.0,50,L,12764673,12764905,234,739.0,472.8,3060,NA
65,1,continuous,50,100,trial,12765219.0,12768119.0,2900.0,50,L,12764935,12765373,440,937.4,512.4,3178,NA
65,1,continuous,50,100,trial,12765219.0,12768119.0,2900.0,50,L,12765415,12765585,172,579.0,519.6,3290,left
65,1,continuous,50,100,trial,12765219.0,12768119.0,2900.0,50,L,12765605,12765791,188,497.6,527.6,3127,left
65,1,continuous,50,100,trial,12765219.0,12768119.0,2900.0,50,L,12765811,12765889,80,555.1,577.8,3056,left
65,1,continuous,50,100,trial,12765219.0,12768119.0,2900.0,50,L,12765953,12766249,298,1373.4,565.9,3113,right
65,1,continuous,50,100,trial,12765219.0,12768119.0,2900.0,50,L,12766271,12766707,438,1483.5,592.0,3069,right
65,1,continuous,50,100,trial,12765219.0,12768119.0,2900.0,50,L,12766777,12767333,558,584.4,653.3,3097,left
65,1,continuous,50,100,trial,12765219.0,12768119.0,2900.0,50,L,12767375,12767555,182,496.3,925.7,3210,NA
65,1,continuous,50,100,trial,12765219.0,12768119.0,2900.0,50,L,12767565,12767669,106,479.4,955.1,3222,NA
65,1,continuous,50,100,trial,12765219.0,12768119.0,2900.0,50,L,12767731,12768037,308,1265.1,925.0,3322,NA
65,1,continuous,50,100,postResponse,12765219.0,12768119.0,2900.0,50,L,12768075,12768453,380,1354.8,585.0,3281,right
65,2,binary,1,1,fixationCross,12825836.0,12828003.0,2167.0,51,L,12825333,12825739,408,960.9,490.2,3053,NA
65,2,binary,1,1,trial,12825836.0,12828003.0,2167.0,51,L,12825751,12825895,146,950.8,530.5,3146,NA
65,2,binary,1,1,trial,12825836.0,12828003.0,2167.0,51,L,12826021,12826075,56,936.8,540.0,3289,NA
65,2,binary,1,1,trial,12825836.0,12828003.0,2167.0,51,L,12826115,12826265,152,630.8,559.6,3346,left
65,2,binary,1,1,trial,12825836.0,12828003.0,2167.0,51,L,12826283,12826457,176,545.5,559.5,3271,left
65,2,binary,1,1,trial,12825836.0,12828003.0,2167.0,51,L,12826521,12826857,338,1384.9,574.2,2917,right
65,2,binary,1,1,trial,12825836.0,12828003.0,2167.0,51,L,12826911,12827041,132,882.5,944.8,2930,likertHorizontal
65,2,binary,1,1,trial,12825836.0,12828003.0,2167.0,51,L,12827055,12827215,162,928.9,967.7,3037,likertHorizontal
65,2,binary,1,1,trial,12825836.0,12828003.0,2167.0,51,L,12827261,12827385,126,505.7,954.9,3129,NA
65,2,binary,1,1,trial,12825836.0,12828003.0,2167.0,51,L,12827403,12827829,428,467.4,1032.8,3213,NA
65,2,binary,1,1,trial,12825836.0,12828003.0,2167.0,51,L,12827889,12828283,396,539.4,582.9,3059,left
65,2,binary,2,1,fixationCross,12829036.0,12830303.0,1267.0,52,L,12828527,12828747,222,1112.3,391.5,3037,NA
65,2,binary,2,1,trial,12829036.0,12830303.0,1267.0,52,L,12828781,12829201,422,946.4,549.7,3262,NA
65,2,binary,2,1,trial,12829036.0,12830303.0,1267.0,52,L,12829257,12829499,244,508.7,540.4,3127,left
65,2,binary,2,1,trial,12829036.0,12830303.0,1267.0,52,L,12829567,12830183,618,1466.8,515.8,2874,right
65,2,binary,2,1,postResponse,12829036.0,12830303.0,1267.0,52,L,12830201,12830637,438,1491.1,485.5,2934,right
65,2,binary,3,2,fixationCross,12831187.0,12833170.0,1983.0,53,L,12830871,12831073,204,1050.0,504.5,3118,NA
65,2,binary,3,2,trial,12831187.0,12833170.0,1983.0,53,L,12831093,12831333,242,966.3,518.2,3230,NA
65,2,binary,3,2,trial,12831187.0,12833170.0,1983.0,53,L,12831383,12831593,212,588.7,532.2,3037,left
65,2,binary,3,2,trial,12831187.0,12833170.0,1983.0,53,L,12831655,12831921,268,1351.9,533.1,2900,right
65,2,binary,3,2,trial,12831187.0,12833170.0,1983.0,53,L,12831943,12832145,204,1453.5,568.4,2870,right
65,2,binary,3,2,trial,12831187.0,12833170.0,1983.0,53,L,12832155,12832343,190,1422.2,561.5,3036,right
65,2,binary,3,2,trial,12831187.0,12833170.0,1983.0,53,L,12832363,12832431,70,1334.5,547.7,3111,right
65,2,binary,3,2,trial,12831187.0,12833170.0,1983.0,53,L,12832497,12832733,238,550.1,535.7,3018,left
65,2,binary,3,2,trial,12831187.0,12833170.0,1983.0,53,L,12832747,12833379,634,509.6,581.3,2846,left
65,2,binary,3,2,postResponse,12831187.0,12833170.0,1983.0,53,L,12833415,12833503,90,761.2,522.3,2760,NA
65,2,binary,4,1,fixationCross,12835353.0,12836787.0,1434.0,54,L,12833603,12833679,78,764.9,522.7,2790,NA
65,2,binary,4,1,fixationCross,12835353.0,12836787.0,1434.0,54,L,12833697,12834425,730,837.4,528.3,3030,NA
65,2,binary,4,1,fixationCross,12835353.0,12836787.0,1434.0,54,L,12834441,12834917,478,788.8,533.7,3063,NA
65,2,binary,4,1,fixationCross,12835353.0,12836787.0,1434.0,54,L,12834929,12835095,168,854.8,523.1,3044,NA
65,2,binary,4,1,fixationCross,12835353.0,12836787.0,1434.0,54,L,12835111,12835237,128,925.6,531.5,3038,NA
65,2,binary,4,1,trial,12835353.0,12836787.0,1434.0,54,L,12835247,12835501,256,953.5,546.9,3053,NA
65,2,binary,4,1,trial,12835353.0,12836787.0,1434.0,54,L,12835547,12835751,206,573.5,515.8,3053,left
65,2,binary,4,1,trial,12835353.0,12836787.0,1434.0,54,L,12835763,12835837,76,554.4,488.4,2981,left
65,2,binary,4,1,trial,12835353.0,12836787.0,1434.0,54,L,12835903,12836665,764,1452.4,557.9,2856,right
65,2,binary,4,1,postResponse,12835353.0,12836787.0,1434.0,54,L,12836743,12837119,378,523.4,521.3,2864,left
65,2,binary,5,1,fixationCross,12837820.0,12840136.0,2316.0,55,L,12837333,12837503,172,734.9,523.9,2879,left
65,2,binary,5,1,fixationCross,12837820.0,12840136.0,2316.0,55,L,12837535,12837809,276,928.0,556.7,3005,NA
65,2,binary,5,1,trial,12837820.0,12840136.0,2316.0,55,L,12837833,12837977,146,788.5,518.7,2954,NA
65,2,binary,5,1,trial,12837820.0,12840136.0,2316.0,55,L,12838007,12838247,242,580.8,532.5,2921,left
65,2,binary,5,1,trial,12837820.0,12840136.0,2316.0,55,L,12838309,12838505,198,1425.7,540.6,2801,right
65,2,binary,5,1,trial,12837820.0,12840136.0,2316.0,55,L,12838521,12838605,86,1502.8,549.3,2775,right
65,2,binary,5,1,trial,12837820.0,12840136.0,2316.0,55,L,12838673,12838955,284,544.7,579.5,2787,left
65,2,binary,5,1,trial,12837820.0,12840136.0,2316.0,55,L,12838979,12839359,382,387.2,581.7,2780,left
65,2,binary,5,1,trial,12837820.0,12840136.0,2316.0,55,L,12839387,12839637,252,571.2,486.2,2811,left
65,2,binary,5,1,trial,12837820.0,12840136.0,2316.0,55,L,12839697,12840027,332,542.7,1004.0,2896,NA
65,2,binary,5,1,trial,12837820.0,12840136.0,2316.0,55,L,12840037,12840059,24,514.7,999.2,2930,NA
65,2,binary,5,1,postResponse,12837820.0,12840136.0,2316.0,55,L,12840135,12840471,338,1473.5,539.6,2916,right
65,2,binary,6,2,fixationCross,12841203.0,12842720.0,1517.0,56,L,12840749,12840895,148,704.6,521.2,3049,left
65,2,binary,6,2,trial,12841203.0,12842720.0,1517.0,56,L,12840919,12841203,286,915.6,533.8,3259,NA
65,2,binary,6,2,trial,12841203.0,12842720.0,1517.0,56,L,12841225,12841371,148,824.4,514.7,3242,NA
65,2,binary,6,2,trial,12841203.0,12842720.0,1517.0,56,L,12841401,12841561,162,640.0,523.1,3167,left
65,2,binary,6,2,trial,12841203.0,12842720.0,1517.0,56,L,12841627,12841931,306,1443.8,558.4,2840,right
65,2,binary,6,2,trial,12841203.0,12842720.0,1517.0,56,L,12841939,12842109,172,1451.6,565.3,2796,right
65,2,binary,6,2,trial,12841203.0,12842720.0,1517.0,56,L,12842183,12843019,838,516.1,548.6,2827,left
65,2,binary,7,1,fixationCross,12843620.0,12845237.0,1617.0,57,L,12843153,12843317,166,761.1,513.1,2740,NA
65,2,binary,7,1,trial,12843620.0,12845237.0,1617.0,57,L,12843343,12843655,314,908.2,550.6,2958,NA
65,2,binary,7,1,trial,12843620.0,12845237.0,1617.0,57,L,12843677,12843773,98,787.5,540.3,3115,NA
65,2,binary,7,1,trial,12843620.0,12845237.0,1617.0,57,L,12843805,12844073,270,550.6,558.3,3032,left
65,2,binary,7,1,trial,12843620.0,12845237.0,1617.0,57,L,12844093,12844379,288,506.5,629.4,2915,left
65,2,binary,7,1,trial,12843620.0,12845237.0,1617.0,57,L,12844453,12845029,578,1417.1,616.2,2989,right
65,2,binary,7,1,trial,12843620.0,12845237.0,1617.0,57,L,12845047,12845219,174,1491.6,631.5,3073,right
65,2,binary,7,1,postResponse,12843620.0,12845237.0,1617.0,57,L,12845293,12845571,280,470.1,580.7,3028,left
65,2,binary,8,2,fixationCross,12847336.0,12849454.0,2118.0,58,L,12845793,12846103,312,715.7,495.8,3000,left
65,2,binary,8,2,fixationCross,12847336.0,12849454.0,2118.0,58,L,12846123,12847035,914,810.2,525.0,3080,NA
65,2,binary,8,2,fixationCross,12847336.0,12849454.0,2118.0,58,L,12847049,12847135,88,875.4,526.4,3075,NA
65,2,binary,8,2,trial,12847336.0,12849454.0,2118.0,58,L,12847149,12847467,320,948.5,540.6,3070,NA
65,2,binary,8,2,trial,12847336.0,12849454.0,2118.0,58,L,12847515,12847771,258,593.6,533.4,3088,left
65,2,binary,8,2,trial,12847336.0,12849454.0,2118.0,58,L,12847841,12848123,284,1435.2,544.0,2924,right
65,2,binary,8,2,trial,12847336.0,12849454.0,2118.0,58,L,12848149,12848445,298,1593.1,439.0,2791,right
65,2,binary,8,2,trial,12847336.0,12849454.0,2118.0,58,L,12848471,12848621,152,1511.8,516.3,2724,right
65,2,binary,8,2,trial,12847336.0,12849454.0,2118.0,58,L,12848699,12848981,284,469.2,548.0,2762,left
65,2,binary,8,2,postResponse,12847336.0,12849454.0,2118.0,58,L,12848999,12849787,790,568.5,564.0,2843,left
65,2,binary,9,1,fixationCross,12850653.0,12853770.0,3117.0,59,L,12849861,12850025,166,559.3,568.6,2877,left
65,2,binary,9,1,fixationCross,12850653.0,12853770.0,3117.0,59,L,12850149,12850309,162,600.2,519.7,2961,left
65,2,binary,9,1,fixationCross,12850653.0,12853770.0,3117.0,59,L,12850343,12850495,154,860.6,524.9,3145,NA
65,2,binary,9,1,trial,12850653.0,12853770.0,3117.0,59,L,12850515,12850731,218,941.7,530.4,3260,NA
65,2,binary,9,1,trial,12850653.0,12853770.0,3117.0,59,L,12850763,12850899,138,693.3,515.5,3271,left
65,2,binary,9,1,trial,12850653.0,12853770.0,3117.0,59,L,12850925,12851135,212,501.4,546.0,3169,left
65,2,binary,9,1,trial,12850653.0,12853770.0,3117.0,59,L,12851147,12851277,132,552.6,549.5,2920,left
65,2,binary,9,1,trial,12850653.0,12853770.0,3117.0,59,L,12851365,12851583,220,1324.4,513.0,2772,right
65,2,binary,9,1,trial,12850653.0,12853770.0,3117.0,59,L,12851607,12851867,262,1446.1,503.4,2783,right
65,2,binary,9,1,trial,12850653.0,12853770.0,3117.0,59,L,12851885,12852071,188,1518.3,492.4,2879,right
65,2,binary,9,1,trial,12850653.0,12853770.0,3117.0,59,L,12852089,12852291,204,1473.7,528.3,2906,right
65,2,binary,9,1,trial,12850653.0,12853770.0,3117.0,59,L,12852363,12852693,332,539.4,560.0,2934,left
65,2,binary,9,1,trial,12850653.0,12853770.0,3117.0,59,L,12852741,12852939,200,858.9,914.2,2832,likertHorizontal
65,2,binary,9,1,trial,12850653.0,12853770.0,3117.0,59,L,12852975,12853095,122,549.9,942.7,2831,NA
65,2,binary,9,1,trial,12850653.0,12853770.0,3117.0,59,L,12853139,12853345,208,519.0,558.2,2938,left
65,2,binary,9,1,trial,12850653.0,12853770.0,3117.0,59,L,12853359,12853555,198,576.4,564.7,2887,left
65,2,binary,9,1,postResponse,12850653.0,12853770.0,3117.0,59,L,12853629,12854103,476,1518.0,531.4,2764,right
65,2,binary,10,2,trial,12854637.0,12856420.0,1783.0,60,L,12854249,12854777,530,933.0,492.6,3073,NA
65,2,binary,10,2,trial,12854637.0,12856420.0,1783.0,60,L,12854825,12855095,272,524.9,561.1,3117,left
65,2,binary,10,2,trial,12854637.0,12856420.0,1783.0,60,L,12855107,12855257,152,550.1,546.0,3025,left
65,2,binary,10,2,trial,12854637.0,12856420.0,1783.0,60,L,12855329,12855511,184,1511.2,551.5,2912,right
65,2,binary,10,2,trial,12854637.0,12856420.0,1783.0,60,L,12855535,12856105,572,1654.5,537.8,2871,right
65,2,binary,10,2,trial,12854637.0,12856420.0,1783.0,60,L,12856149,12856347,200,1395.9,452.3,2947,right
65,2,binary,10,2,postResponse,12854637.0,12856420.0,1783.0,60,L,12856365,12856755,392,1321.2,417.0,2960,right
65,2,binary,11,1,fixationCross,12857520.0,12859970.0,2450.0,61,L,12856829,12856881,54,1318.7,421.5,2968,right
65,2,binary,11,1,fixationCross,12857520.0,12859970.0,2450.0,61,L,12856939,12857217,280,835.8,579.2,3058,NA
65,2,binary,11,1,fixationCross,12857520.0,12859970.0,2450.0,61,L,12857241,12857419,180,947.7,547.2,3153,NA
65,2,binary,11,1,trial,12857520.0,12859970.0,2450.0,61,L,12857447,12857679,234,718.2,509.6,3112,left
65,2,binary,11,1,trial,12857520.0,12859970.0,2450.0,61,L,12857703,12858131,430,567.6,519.8,2973,left
65,2,binary,11,1,trial,12857520.0,12859970.0,2450.0,61,L,12858199,12858389,192,1436.3,593.9,2835,right
65,2,binary,11,1,trial,12857520.0,12859970.0,2450.0,61,L,12858399,12858667,270,1464.1,597.9,2893,right
65,2,binary,11,1,trial,12857520.0,12859970.0,2450.0,61,L,12858677,12858845,170,1489.2,605.1,3039,right
65,2,binary,11,1,trial,12857520.0,12859970.0,2450.0,61,L,12858925,12859171,248,459.2,554.3,3074,left
65,2,binary,11,1,trial,12857520.0,12859970.0,2450.0,61,L,12859193,12860191,1000,588.0,551.0,2943,left
65,2,binary,12,1,fixationCross,12861070.0,12862570.0,1500.0,62,L,12860403,12860759,358,760.5,495.7,3071,NA
65,2,binary,12,1,fixationCross,12861070.0,12862570.0,1500.0,62,L,12860787,12861037,252,931.5,531.8,3132,NA
65,2,binary,12,1,trial,12861070.0,12862570.0,1500.0,62,L,12861061,12861225,166,805.3,488.8,3069,NA
65,2,binary,12,1,trial,12861070.0,12862570.0,1500.0,62,L,12861263,12861573,312,545.5,526.7,3018,left
65,2,binary,12,1,trial,12861070.0,12862570.0,1500.0,62,L,12861641,12862033,394,1446.7,554.4,2864,right
65,2,binary,12,1,trial,12861070.0,12862570.0,1500.0,62,L,12862099,12862475,378,675.8,909.1,2963,NA
65,2,binary,12,1,postResponse,12861070.0,12862570.0,1500.0,62,L,12862547,12862907,362,1459.2,555.0,2994,right
65,2,binary,13,2,fixationCross,12864437.0,12866271.0,1834.0,63,L,12863193,12863519,328,655.1,557.5,3071,left
65,2,binary,13,2,fixationCross,12864437.0,12866271.0,1834.0,63,L,12863539,12863809,272,586.0,542.0,3041,left
65,2,binary,13,2,fixationCross,12864437.0,12866271.0,1834.0,63,L,12863827,12864087,262,516.8,537.4,2910,left
65,2,binary,13,2,fixationCross,12864437.0,12866271.0,1834.0,63,L,12864145,12864315,172,910.6,519.4,2880,NA
65,2,binary,13,2,trial,12864437.0,12866271.0,1834.0,63,L,12864327,12864561,236,946.8,530.7,2901,NA
65,2,binary,13,2,trial,12864437.0,12866271.0,1834.0,63,L,12864609,12864815,208,573.9,528.3,3034,left
65,2,binary,13,2,trial,12864437.0,12866271.0,1834.0,63,L,12864831,12865187,358,520.4,572.7,2869,left
65,2,binary,13,2,trial,12864437.0,12866271.0,1834.0,63,L,12865255,12865497,244,1414.0,566.0,2806,right
65,2,binary,13,2,trial,12864437.0,12866271.0,1834.0,63,L,12865519,12866167,650,1470.9,664.5,2936,right
65,2,binary,13,2,trial,12864437.0,12866271.0,1834.0,63,L,12866183,12866487,306,1397.3,662.0,2972,right
65,2,binary,13,2,postResponse,12864437.0,12866271.0,1834.0,63,L,12866561,12866603,44,914.7,487.5,2945,NA
65,2,binary,14,1,trial,12867137.0,12868836.0,1699.0,64,L,12866677,12867269,594,885.1,477.6,3062,NA
65,2,binary,14,1,trial,12867137.0,12868836.0,1699.0,64,L,12867315,12867585,272,611.1,538.5,3034,left
65,2,binary,14,1,trial,12867137.0,12868836.0,1699.0,64,L,12867597,12867733,138,623.7,523.4,3010,left
65,2,binary,14,1,trial,12867137.0,12868836.0,1699.0,64,L,12867801,12868013,214,1553.5,553.9,2939,right
65,2,binary,14,1,trial,12867137.0,12868836.0,1699.0,64,L,12868033,12869029,998,1554.6,498.4,2964,right
65,2,binary,14,1,postResponse,12867137.0,12868836.0,1699.0,64,L,12869093,12869171,80,937.3,523.6,3018,NA
65,2,binary,15,1,trial,12869720.0,12871287.0,1567.0,65,L,12869245,12869861,618,933.2,519.8,3109,NA
65,2,binary,15,1,trial,12869720.0,12871287.0,1567.0,65,L,12869913,12870345,434,535.4,535.6,2953,left
65,2,binary,15,1,trial,12869720.0,12871287.0,1567.0,65,L,12870411,12870803,394,1472.5,523.4,2831,right
65,2,binary,15,1,trial,12869720.0,12871287.0,1567.0,65,L,12870817,12870963,148,1482.4,481.2,2899,right
65,2,binary,15,1,trial,12869720.0,12871287.0,1567.0,65,L,12871031,12871181,152,540.6,937.5,2937,NA
65,2,binary,15,1,trial,12869720.0,12871287.0,1567.0,65,L,12871195,12871297,104,495.4,975.2,2970,NA
65,2,binary,15,1,postResponse,12869720.0,12871287.0,1567.0,65,L,12871371,12871621,252,1436.7,523.6,3011,right
65,2,binary,16,1,fixationCross,12872203.0,12874437.0,2234.0,66,L,12871721,12871745,26,1434.2,521.4,2985,right
65,2,binary,16,1,fixationCross,12872203.0,12874437.0,2234.0,66,L,12871797,12872065,270,1026.0,481.9,3063,NA
65,2,binary,16,1,trial,12872203.0,12874437.0,2234.0,66,L,12872083,12872373,292,956.5,533.3,3133,NA
65,2,binary,16,1,trial,12872203.0,12874437.0,2234.0,66,L,12872421,12872595,176,519.5,548.1,3130,left
65,2,binary,16,1,trial,12872203.0,12874437.0,2234.0,66,L,12872613,12872753,142,519.4,495.7,3019,left
65,2,binary,16,1,trial,12872203.0,12874437.0,2234.0,66,L,12872821,12873041,222,1406.4,564.5,2867,right
65,2,binary,16,1,trial,12872203.0,12874437.0,2234.0,66,L,12873063,12873575,514,1440.9,621.4,2960,right
65,2,binary,16,1,trial,12872203.0,12874437.0,2234.0,66,L,12873647,12874235,590,524.7,559.6,2955,left
65,2,binary,16,1,trial,12872203.0,12874437.0,2234.0,66,L,12874257,12874651,396,504.7,471.6,2852,left
65,2,binary,17,1,fixationCross,12875387.0,12878004.0,2617.0,67,L,12874895,12874921,28,1036.3,502.8,2892,NA
65,2,binary,17,1,fixationCross,12875387.0,12878004.0,2617.0,67,L,12875115,12875283,170,961.8,460.7,3101,NA
65,2,binary,17,1,trial,12875387.0,12878004.0,2617.0,67,L,12875303,12875525,224,985.0,534.0,3219,NA
65,2,binary,17,1,trial,12875387.0,12878004.0,2617.0,67,L,12875575,12875857,284,585.1,526.3,3050,left
65,2,binary,17,1,trial,12875387.0,12878004.0,2617.0,67,L,12875917,12876157,242,1369.5,571.3,2910,right
65,2,binary,17,1,trial,12875387.0,12878004.0,2617.0,67,L,12876171,12876573,404,1323.3,569.4,2955,right
65,2,binary,17,1,trial,12875387.0,12878004.0,2617.0,67,L,12876593,12876911,320,1412.3,557.2,3071,right
65,2,binary,17,1,trial,12875387.0,12878004.0,2617.0,67,L,12876927,12877129,204,1325.3,571.7,3201,right
65,2,binary,17,1,trial,12875387.0,12878004.0,2617.0,67,L,12877203,12877575,374,565.3,520.3,3076,left
65,2,binary,17,1,trial,12875387.0,12878004.0,2617.0,67,L,12877591,12877839,250,522.4,513.6,2983,left
65,2,binary,17,1,postResponse,12875387.0,12878004.0,2617.0,67,L,12877851,12878337,488,567.8,516.8,2900,left
65,2,binary,18,1,fixationCross,12878904.0,12880770.0,1866.0,68,L,12878551,12878801,252,932.1,531.0,3046,NA
65,2,binary,18,1,trial,12878904.0,12880770.0,1866.0,68,L,12878815,12879047,234,978.4,545.3,3209,NA
65,2,binary,18,1,trial,12878904.0,12880770.0,1866.0,68,L,12879097,12879239,144,544.0,529.0,3145,left
65,2,binary,18,1,trial,12878904.0,12880770.0,1866.0,68,L,12879263,12879579,318,464.4,460.5,2978,left
65,2,binary,18,1,trial,12878904.0,12880770.0,1866.0,68,L,12879647,12879859,214,1441.7,471.6,2766,right
65,2,binary,18,1,trial,12878904.0,12880770.0,1866.0,68,L,12879871,12880205,336,1438.5,435.1,2804,right
65,2,binary,18,1,trial,12878904.0,12880770.0,1866.0,68,L,12880273,12880691,420,564.5,527.8,2822,left
65,2,binary,18,1,postResponse,12878904.0,12880770.0,1866.0,68,L,12880711,12881103,394,569.7,457.4,2872,left
65,2,binary,19,2,fixationCross,12881737.0,12885370.0,3633.0,69,L,12881203,12881417,216,794.7,499.1,2990,NA
65,2,binary,19,2,trial,12881737.0,12885370.0,3633.0,69,L,12881443,12881765,324,969.6,533.3,3190,NA
65,2,binary,19,2,trial,12881737.0,12885370.0,3633.0,69,L,12881789,12881895,108,820.9,528.7,3275,NA
65,2,binary,19,2,trial,12881737.0,12885370.0,3633.0,69,L,12881927,12882149,224,600.3,542.5,3197,left
65,2,binary,19,2,trial,12881737.0,12885370.0,3633.0,69,L,12882169,12882409,242,538.4,493.0,2973,left
65,2,binary,19,2,trial,12881737.0,12885370.0,3633.0,69,L,12882433,12882809,378,442.3,571.6,2862,left
65,2,binary,19,2,trial,12881737.0,12885370.0,3633.0,69,L,12882887,12883037,152,1368.2,523.9,2968,right
65,2,binary,19,2,trial,12881737.0,12885370.0,3633.0,69,L,12883055,12883305,252,1416.4,539.5,2982,right
65,2,binary,19,2,trial,12881737.0,12885370.0,3633.0,69,L,12883331,12883585,256,1452.5,427.3,3100,right
65,2,binary,19,2,trial,12881737.0,12885370.0,3633.0,69,L,12883607,12883831,226,1367.0,427.2,3106,right
65,2,binary,19,2,trial,12881737.0,12885370.0,3633.0,69,L,12883859,12883995,138,1462.0,537.0,3076,right
65,2,binary,19,2,trial,12881737.0,12885370.0,3633.0,69,L,12884007,12884137,132,1485.9,532.2,3096,right
65,2,binary,19,2,trial,12881737.0,12885370.0,3633.0,69,L,12884165,12884579,416,1383.8,438.9,3125,right
65,2,binary,19,2,trial,12881737.0,12885370.0,3633.0,69,L,12884599,12884771,174,1461.1,421.9,3062,right
65,2,binary,19,2,trial,12881737.0,12885370.0,3633.0,69,L,12884795,12884855,62,1445.8,522.3,3047,right
65,2,binary,19,2,trial,12881737.0,12885370.0,3633.0,69,L,12884925,12885361,438,515.5,552.5,3081,left
65,2,binary,19,2,trial,12881737.0,12885370.0,3633.0,69,L,12885383,12885563,182,432.8,584.8,3047,left
65,2,binary,20,1,fixationCross,12886720.0,12889603.0,2883.0,70,L,12885803,12886431,630,932.2,431.7,3128,NA
65,2,binary,20,1,fixationCross,12886720.0,12889603.0,2883.0,70,L,12886457,12886699,244,969.3,584.6,3216,NA
65,2,binary,20,1,trial,12886720.0,12889603.0,2883.0,70,L,12886721,12886861,142,882.1,527.9,3239,NA
65,2,binary,20,1,trial,12886720.0,12889603.0,2883.0,70,L,12886909,12887161,254,554.7,549.0,3176,left
65,2,binary,20,1,trial,12886720.0,12889603.0,2883.0,70,L,12887227,12887467,242,1391.6,584.3,3013,right
65,2,binary,20,1,trial,12886720.0,12889603.0,2883.0,70,L,12887495,12887891,398,1577.2,523.3,2938,right
65,2,binary,20,1,trial,12886720.0,12889603.0,2883.0,70,L,12887969,12888095,128,589.6,557.7,3065,left
65,2,binary,20,1,trial,12886720.0,12889603.0,2883.0,70,L,12888151,12888359,210,1248.5,588.0,3122,right
65,2,binary,20,1,trial,12886720.0,12889603.0,2883.0,70,L,12888381,12888457,78,1335.4,530.8,3088,right
65,2,binary,20,1,trial,12886720.0,12889603.0,2883.0,70,L,12888521,12889165,646,565.6,645.6,3056,left
65,2,binary,20,1,trial,12886720.0,12889603.0,2883.0,70,L,12889197,12889405,210,545.1,488.6,2963,left
65,2,binary,20,1,trial,12886720.0,12889603.0,2883.0,70,L,12889447,12889773,328,513.4,727.6,2961,left
65,2,binary,21,1,fixationCross,12890571.0,12892104.0,1533.0,71,L,12890037,12890379,344,1008.7,523.7,3087,NA
65,2,binary,21,1,trial,12890571.0,12892104.0,1533.0,71,L,12890403,12890701,300,871.7,517.8,3145,NA
65,2,binary,21,1,trial,12890571.0,12892104.0,1533.0,71,L,12890741,12890931,192,593.8,552.3,3079,left
65,2,binary,21,1,trial,12890571.0,12892104.0,1533.0,71,L,12890947,12890989,44,538.8,537.8,2981,left
65,2,binary,21,1,trial,12890571.0,12892104.0,1533.0,71,L,12891051,12891219,170,1388.7,547.4,2923,right
65,2,binary,21,1,trial,12890571.0,12892104.0,1533.0,71,L,12891241,12891551,312,1470.4,549.1,2816,right
65,2,binary,21,1,trial,12890571.0,12892104.0,1533.0,71,L,12891561,12891691,132,1490.4,545.8,2776,right
65,2,binary,21,1,trial,12890571.0,12892104.0,1533.0,71,L,12891761,12892035,276,575.7,547.0,2813,left
65,2,binary,21,1,trial,12890571.0,12892104.0,1533.0,71,L,12892055,12892383,330,613.5,478.2,2858,left
65,2,binary,22,2,fixationCross,12892970.0,12896671.0,3701.0,72,L,12892597,12892815,220,915.2,534.9,3000,NA
65,2,binary,22,2,trial,12892970.0,12896671.0,3701.0,72,L,12892831,12893119,290,983.1,534.3,3161,NA
65,2,binary,22,2,trial,12892970.0,12896671.0,3701.0,72,L,12893167,12893303,138,653.2,483.7,3189,left
65,2,binary,22,2,trial,12892970.0,12896671.0,3701.0,72,L,12893319,12893507,190,689.0,447.8,3087,left
65,2,binary,22,2,trial,12892970.0,12896671.0,3701.0,72,L,12893561,12893745,186,1359.0,491.0,2898,right
65,2,binary,22,2,trial,12892970.0,12896671.0,3701.0,72,L,12893761,12894129,370,1363.4,450.5,2926,right
65,2,binary,22,2,trial,12892970.0,12896671.0,3701.0,72,L,12894189,12894449,262,691.6,441.5,3030,left
65,2,binary,22,2,trial,12892970.0,12896671.0,3701.0,72,L,12894477,12894579,104,515.4,490.9,3003,left
65,2,binary,22,2,trial,12892970.0,12896671.0,3701.0,72,L,12894609,12894781,174,299.3,522.4,2930,left
65,2,binary,22,2,trial,12892970.0,12896671.0,3701.0,72,L,12894825,12895365,542,684.1,431.8,2907,left
65,2,binary,22,2,trial,12892970.0,12896671.0,3701.0,72,L,12895431,12896213,784,1370.3,440.5,3027,right
65,2,binary,22,2,trial,12892970.0,12896671.0,3701.0,72,L,12896237,12896663,428,1402.7,545.4,3141,right
65,2,binary,22,2,trial,12892970.0,12896671.0,3701.0,72,L,12896687,12896975,290,1365.7,447.0,3186,right
65,2,binary,23,1,fixationCross,12897571.0,12899520.0,1949.0,73,L,12897077,12897429,354,974.8,438.0,3161,NA
65,2,binary,23,1,trial,12897571.0,12899520.0,1949.0,73,L,12897453,12897699,248,941.6,521.0,3321,NA
65,2,binary,23,1,trial,12897571.0,12899520.0,1949.0,73,L,12897751,12897957,208,522.6,571.4,3295,left
65,2,binary,23,1,trial,12897571.0,12899520.0,1949.0,73,L,12898025,12898345,322,1426.7,537.2,2985,right
65,2,binary,23,1,trial,12897571.0,12899520.0,1949.0,73,L,12898361,12898901,542,1500.2,561.7,2945,right
65,2,binary,23,1,trial,12897571.0,12899520.0,1949.0,73,L,12898975,12899377,404,525.5,621.1,3083,left
65,2,binary,23,1,postResponse,12897571.0,12899520.0,1949.0,73,L,12899395,12899853,460,513.5,575.1,2966,left
65,2,binary,24,2,trial,12900437.0,12902121.0,1684.0,74,L,12899963,12900481,520,938.5,513.9,2999,NA
65,2,binary,24,2,trial,12900437.0,12902121.0,1684.0,74,L,12900505,12900607,104,800.1,501.8,3084,NA
65,2,binary,24,2,trial,12900437.0,12902121.0,1684.0,74,L,12900641,12900773,134,542.9,527.3,3096,left
65,2,binary,24,2,trial,12900437.0,12902121.0,1684.0,74,L,12900793,12900979,188,443.3,518.1,3012,left
65,2,binary,24,2,trial,12900437.0,12902121.0,1684.0,74,L,12901047,12901291,246,1375.9,523.7,2889,right
65,2,binary,24,2,trial,12900437.0,12902121.0,1684.0,74,L,12901315,12901631,318,1494.6,561.6,2861,right
65,2,binary,24,2,postResponse,12900437.0,12902121.0,1684.0,74,L,12901659,12902455,798,1532.9,426.7,2912,right
65,2,binary,25,1,fixationCross,12903020.0,12904454.0,1434.0,75,L,12902529,12902563,36,1528.3,426.9,2887,right
65,2,binary,25,1,fixationCross,12903020.0,12904454.0,1434.0,75,L,12902613,12902657,46,1206.1,452.8,2982,right
65,2,binary,25,1,trial,12903020.0,12904454.0,1434.0,75,L,12902747,12903051,306,938.3,509.7,3114,NA
65,2,binary,25,1,trial,12903020.0,12904454.0,1434.0,75,L,12903073,12903185,114,816.1,498.9,3243,NA
65,2,binary,25,1,trial,12903020.0,12904454.0,1434.0,75,L,12903215,12903419,206,603.7,523.8,3117,left
65,2,binary,25,1,trial,12903020.0,12904454.0,1434.0,75,L,12903493,12903751,260,1501.3,511.6,2980,right
65,2,binary,25,1,postResponse,12903020.0,12904454.0,1434.0,75,L,12903769,12904787,1020,1415.1,548.8,3145,right
65,2,binary,26,1,fixationCross,12928071.0,12930088.0,2017.0,76,L,12927609,12927643,36,992.4,566.5,3263,NA
65,2,binary,26,1,trial,12928071.0,12930088.0,2017.0,76,L,12927745,12928391,648,974.3,543.3,3270,NA
65,2,binary,26,1,trial,12928071.0,12930088.0,2017.0,76,L,12928441,12928461,22,861.9,930.5,3278,likertHorizontal
65,2,binary,26,1,trial,12928071.0,12930088.0,2017.0,76,L,12928501,12928629,130,564.1,945.1,3150,NA
65,2,binary,26,1,trial,12928071.0,12930088.0,2017.0,76,L,12928681,12928825,146,525.5,569.6,3044,left
65,2,binary,26,1,trial,12928071.0,12930088.0,2017.0,76,L,12928897,12929331,436,1472.1,577.6,2832,right
65,2,binary,26,1,trial,12928071.0,12930088.0,2017.0,76,L,12929411,12930121,712,586.4,663.1,2986,left
65,2,binary,26,1,trial,12928071.0,12930088.0,2017.0,76,L,12930133,12930339,208,579.8,644.7,2815,left
65,2,binary,27,1,fixationCross,12931138.0,12935688.0,4550.0,77,L,12930505,12930839,336,801.1,517.5,2901,NA
65,2,binary,27,1,trial,12931138.0,12935688.0,4550.0,77,L,12930863,12931147,286,947.2,545.1,3078,NA
65,2,binary,27,1,trial,12931138.0,12935688.0,4550.0,77,L,12931171,12931297,128,806.7,525.8,3057,NA
65,2,binary,27,1,trial,12931138.0,12935688.0,4550.0,77,L,12931329,12931505,178,596.1,525.0,3006,left
65,2,binary,27,1,trial,12931138.0,12935688.0,4550.0,77,L,12931525,12931679,156,540.8,485.0,2866,left
65,2,binary,27,1,trial,12931138.0,12935688.0,4550.0,77,L,12931743,12931957,216,1385.7,553.4,2718,right
65,2,binary,27,1,trial,12931138.0,12935688.0,4550.0,77,L,12931981,12932149,170,1548.4,551.3,2736,right
65,2,binary,27,1,trial,12931138.0,12935688.0,4550.0,77,L,12932185,12932603,420,1351.8,471.6,2920,right
65,2,binary,27,1,trial,12931138.0,12935688.0,4550.0,77,L,12932647,12932943,298,1563.2,678.1,2988,right
65,2,binary,27,1,trial,12931138.0,12935688.0,4550.0,77,L,12932953,12933473,522,1541.5,705.5,3030,right
65,2,binary,27,1,trial,12931138.0,12935688.0,4550.0,77,L,12933541,12933697,158,635.7,942.6,3047,NA
65,2,binary,27,1,trial,12931138.0,12935688.0,4550.0,77,L,12933749,12933995,248,518.9,510.4,3008,left
65,2,binary,27,1,trial,12931138.0,12935688.0,4550.0,77,L,12934067,12934293,228,1361.4,862.6,3046,NA
65,2,binary,27,1,trial,12931138.0,12935688.0,4550.0,77,L,12934317,12934501,186,1446.3,938.8,3065,NA
65,2,binary,27,1,trial,12931138.0,12935688.0,4550.0,77,L,12934555,12934683,130,1451.5,582.9,3195,right
65,2,binary,27,1,trial,12931138.0,12935688.0,4550.0,77,L,12934751,12935019,270,553.6,501.1,3137,left
65,2,binary,27,1,trial,12931138.0,12935688.0,4550.0,77,L,12935039,12935749,712,515.7,464.3,2873,left
65,2,binary,27,1,trial,12931138.0,12935688.0,4550.0,77,L,12935767,12935999,234,593.5,458.5,2983,left
65,2,binary,28,2,fixationCross,12936755.0,12937971.0,1216.0,78,L,12936225,12936543,320,930.5,438.3,3194,NA
65,2,binary,28,2,fixationCross,12936755.0,12937971.0,1216.0,78,L,12936565,12936725,162,960.3,533.4,3387,NA
65,2,binary,28,2,trial,12936755.0,12937971.0,1216.0,78,L,12936751,12936893,144,807.7,512.8,3320,NA
65,2,binary,28,2,trial,12936755.0,12937971.0,1216.0,78,L,12936923,12937139,218,585.0,522.2,3199,left
65,2,binary,28,2,trial,12936755.0,12937971.0,1216.0,78,L,12937201,12937437,238,1387.6,555.6,2944,right
65,2,binary,28,2,trial,12936755.0,12937971.0,1216.0,78,L,12937459,12937973,516,1373.9,495.5,2946,right
65,2,binary,28,2,trial,12936755.0,12937971.0,1216.0,78,L,12937983,12938227,246,1370.0,480.4,3013,right
65,2,binary,29,2,fixationCross,12939038.0,12941888.0,2850.0,79,L,12938379,12938743,366,837.3,479.0,3064,NA
65,2,binary,29,2,fixationCross,12939038.0,12941888.0,2850.0,79,L,12938763,12939001,240,918.4,526.4,3241,NA
65,2,binary,29,2,trial,12939038.0,12941888.0,2850.0,79,L,12939021,12939175,156,832.3,520.4,3230,NA
65,2,binary,29,2,trial,12939038.0,12941888.0,2850.0,79,L,12939205,12939371,168,618.2,542.6,3180,left
65,2,binary,29,2,trial,12939038.0,12941888.0,2850.0,79,L,12939385,12939539,156,576.1,503.6,3061,left
65,2,binary,29,2,trial,12939038.0,12941888.0,2850.0,79,L,12939605,12939917,314,1466.7,543.3,2899,right
65,2,binary,29,2,trial,12939038.0,12941888.0,2850.0,79,L,12939933,12940249,318,1533.5,543.2,2968,right
65,2,binary,29,2,trial,12939038.0,12941888.0,2850.0,79,L,12940275,12940385,112,1417.3,470.6,2993,right
65,2,binary,29,2,trial,12939038.0,12941888.0,2850.0,79,L,12940455,12940685,232,568.9,516.8,2963,left
65,2,binary,29,2,trial,12939038.0,12941888.0,2850.0,79,L,12940701,12941091,392,552.4,474.3,2891,left
65,2,binary,29,2,trial,12939038.0,12941888.0,2850.0,79,L,12941163,12941365,204,1408.8,456.6,2848,right
65,2,binary,29,2,trial,12939038.0,12941888.0,2850.0,79,L,12941391,12941639,250,1300.0,424.9,2932,right
65,2,binary,29,2,trial,12939038.0,12941888.0,2850.0,79,L,12941675,12942069,396,1535.3,435.5,2983,right
65,2,binary,29,2,postResponse,12939038.0,12941888.0,2850.0,79,L,12942127,12942223,98,972.6,475.6,3058,NA
65,2,binary,30,2,fixationCross,12944470.0,12947137.0,2667.0,80,L,12942323,12942509,188,966.6,475.5,3122,NA
65,2,binary,30,2,fixationCross,12944470.0,12947137.0,2667.0,80,L,12942535,12942869,336,805.8,532.0,3260,NA
65,2,binary,30,2,fixationCross,12944470.0,12947137.0,2667.0,80,L,12942887,12944021,1136,732.8,545.1,3166,left
65,2,binary,30,2,fixationCross,12944470.0,12947137.0,2667.0,80,L,12944041,12944231,192,825.3,518.7,3083,NA
65,2,binary,30,2,trial,12944470.0,12947137.0,2667.0,80,L,12944251,12944633,384,950.7,541.9,3092,NA
65,2,binary,30,2,trial,12944470.0,12947137.0,2667.0,80,L,12944681,12944871,192,539.3,559.9,3008,left
65,2,binary,30,2,trial,12944470.0,12947137.0,2667.0,80,L,12944939,12945201,264,1432.7,571.0,2837,right
65,2,binary,30,2,trial,12944470.0,12947137.0,2667.0,80,L,12945223,12945415,194,1503.3,593.8,2779,right
65,2,binary,30,2,trial,12944470.0,12947137.0,2667.0,80,L,12945439,12945727,290,1398.3,658.7,2888,right
65,2,binary,30,2,trial,12944470.0,12947137.0,2667.0,80,L,12945803,12946507,706,573.9,570.6,2833,left
65,2,binary,30,2,trial,12944470.0,12947137.0,2667.0,80,L,12946517,12946563,48,548.8,589.0,2809,left
65,2,binary,30,2,trial,12944470.0,12947137.0,2667.0,80,L,12946633,12946803,172,1311.3,874.6,2946,NA
65,2,binary,30,2,trial,12944470.0,12947137.0,2667.0,80,L,12946827,12947059,234,1434.0,971.0,3015,NA
65,2,binary,30,2,trial,12944470.0,12947137.0,2667.0,80,L,12947111,12947403,294,1414.1,512.2,3157,right
65,2,binary,31,1,fixationCross,12948121.0,12949955.0,1834.0,81,L,12947547,12947801,256,1100.2,490.5,3100,NA
65,2,binary,31,1,trial,12948121.0,12949955.0,1834.0,81,L,12947839,12948157,320,877.9,499.1,3226,NA
65,2,binary,31,1,trial,12948121.0,12949955.0,1834.0,81,L,12948177,12948277,102,780.8,519.9,3185,NA
65,2,binary,31,1,trial,12948121.0,12949955.0,1834.0,81,L,12948307,12948509,204,566.5,558.1,3074,left
65,2,binary,31,1,trial,12948121.0,12949955.0,1834.0,81,L,12948573,12948877,306,1462.5,543.4,2876,right
65,2,binary,31,1,trial,12948121.0,12949955.0,1834.0,81,L,12948953,12949701,750,476.0,578.1,2864,left
65,2,binary,31,1,trial,12948121.0,12949955.0,1834.0,81,L,12949749,12950019,272,495.9,977.4,3114,NA
65,2,binary,31,1,trial,12948121.0,12949955.0,1834.0,81,L,12950095,12950251,158,1333.1,644.5,3124,right
65,2,binary,32,1,fixationCross,12951121.0,12953088.0,1967.0,82,L,12950387,12950815,430,871.2,437.3,3221,NA
65,2,binary,32,1,trial,12951121.0,12953088.0,1967.0,82,L,12950837,12951261,426,948.9,519.1,3399,NA
65,2,binary,32,1,trial,12951121.0,12953088.0,1967.0,82,L,12951311,12951459,150,555.0,488.0,3365,left
65,2,binary,32,1,trial,12951121.0,12953088.0,1967.0,82,L,12951477,12951629,154,459.5,458.4,3188,left
65,2,binary,32,1,trial,12951121.0,12953088.0,1967.0,82,L,12951661,12951741,82,623.4,486.1,3025,left
65,2,binary,32,1,trial,12951121.0,12953088.0,1967.0,82,L,12951801,12952057,258,1369.1,504.7,2945,right
65,2,binary,32,1,trial,12951121.0,12953088.0,1967.0,82,L,12952077,12952393,318,1442.8,548.1,3075,right
65,2,binary,32,1,trial,12951121.0,12953088.0,1967.0,82,L,12952463,12952815,354,525.0,505.4,3156,left
65,2,binary,32,1,trial,12951121.0,12953088.0,1967.0,82,L,12952825,12953289,466,508.8,504.7,2941,left
65,2,binary,32,1,postResponse,12951121.0,12953088.0,1967.0,82,L,12953333,12953429,98,882.0,496.1,2946,NA
65,2,binary,33,2,fixationCross,12954005.0,12956688.0,2683.0,83,L,12953531,12953895,366,902.1,495.0,3176,NA
65,2,binary,33,2,trial,12954005.0,12956688.0,2683.0,83,L,12953913,12954161,250,966.4,520.2,3440,NA
65,2,binary,33,2,trial,12954005.0,12956688.0,2683.0,83,L,12954185,12954295,112,840.6,512.4,3494,NA
65,2,binary,33,2,trial,12954005.0,12956688.0,2683.0,83,L,12954349,12954541,194,1446.3,530.9,3468,right
65,2,binary,33,2,trial,12954005.0,12956688.0,2683.0,83,L,12954605,12954837,234,621.3,552.0,3331,left
65,2,binary,33,2,trial,12954005.0,12956688.0,2683.0,83,L,12954849,12955743,896,583.8,567.9,3110,left
65,2,binary,33,2,trial,12954005.0,12956688.0,2683.0,83,L,12955815,12955995,182,1427.8,518.7,3127,right
65,2,binary,33,2,trial,12954005.0,12956688.0,2683.0,83,L,12956069,12956219,152,472.4,993.9,3146,NA
65,2,binary,33,2,trial,12954005.0,12956688.0,2683.0,83,L,12956267,12956603,338,946.6,950.0,3236,likertHorizontal
65,2,binary,33,2,postResponse,12954005.0,12956688.0,2683.0,83,L,12956663,12957023,362,1423.6,534.5,3436,right
65,2,binary,34,1,fixationCross,12957554.0,12958672.0,1118.0,84,L,12957233,12957485,254,908.2,523.9,3477,NA
65,2,binary,34,1,trial,12957554.0,12958672.0,1118.0,84,L,12957501,12957695,196,951.1,534.6,3530,NA
65,2,binary,34,1,trial,12957554.0,12958672.0,1118.0,84,L,12957743,12957891,150,562.0,534.2,3377,left
65,2,binary,34,1,trial,12957554.0,12958672.0,1118.0,84,L,12957915,12958097,184,450.3,516.5,3232,left
65,2,binary,34,1,trial,12957554.0,12958672.0,1118.0,84,L,12958109,12958641,534,409.9,509.9,3028,left
65,2,binary,34,1,trial,12957554.0,12958672.0,1118.0,84,L,12958721,12958915,196,1440.7,549.9,3084,right
65,2,binary,34,1,postResponse,12957554.0,12958672.0,1118.0,84,L,12958967,12959003,38,984.9,529.5,3090,NA
65,2,binary,35,2,fixationCross,12959555.0,12962271.0,2716.0,85,L,12959077,12959439,364,983.0,529.9,3237,NA
65,2,binary,35,2,trial,12959555.0,12962271.0,2716.0,85,L,12959449,12959683,236,962.4,552.9,3423,NA
65,2,binary,35,2,trial,12959555.0,12962271.0,2716.0,85,L,12959733,12959905,174,573.2,549.1,3385,left
65,2,binary,35,2,trial,12959555.0,12962271.0,2716.0,85,L,12959969,12960243,276,1416.5,571.0,3129,right
65,2,binary,35,2,trial,12959555.0,12962271.0,2716.0,85,L,12960305,12960523,220,561.8,526.4,3145,left
65,2,binary,35,2,trial,12959555.0,12962271.0,2716.0,85,L,12960537,12960945,410,515.6,527.6,3203,left
65,2,binary,35,2,trial,12959555.0,12962271.0,2716.0,85,L,12961013,12961247,236,1392.2,553.2,3128,right
65,2,binary,35,2,trial,12959555.0,12962271.0,2716.0,85,L,12961267,12961427,162,1459.5,585.9,3094,right
65,2,binary,35,2,trial,12959555.0,12962271.0,2716.0,85,L,12961499,12961605,108,562.5,899.0,3247,NA
65,2,binary,35,2,trial,12959555.0,12962271.0,2716.0,85,L,12961627,12961701,76,500.7,977.4,3318,NA
65,2,binary,35,2,trial,12959555.0,12962271.0,2716.0,85,L,12961747,12961911,166,518.1,534.8,3312,left
65,2,binary,35,2,postResponse,12959555.0,12962271.0,2716.0,85,L,12961975,12962605,632,1414.8,562.0,3318,right
65,2,binary,36,2,fixationCross,12963405.0,12964671.0,1266.0,86,L,12962681,12962917,238,1407.1,563.6,3408,right
65,2,binary,36,2,fixationCross,12963405.0,12964671.0,1266.0,86,L,12962955,12963129,176,1088.9,497.2,3551,NA
65,2,binary,36,2,trial,12963405.0,12964671.0,1266.0,86,L,12963149,12963569,422,979.0,518.3,3626,NA
65,2,binary,36,2,trial,12963405.0,12964671.0,1266.0,86,L,12963617,12963843,228,533.4,536.7,3574,left
65,2,binary,36,2,trial,12963405.0,12964671.0,1266.0,86,L,12963915,12964173,260,1481.4,552.5,3343,right
65,2,binary,36,2,trial,12963405.0,12964671.0,1266.0,86,L,12964257,12964441,186,1099.2,895.3,3330,likertHorizontal
65,2,binary,36,2,trial,12963405.0,12964671.0,1266.0,86,L,12964489,12964855,368,1443.1,640.5,3466,right
65,2,binary,36,2,trial,12963405.0,12964671.0,1266.0,86,L,12964917,12964939,24,896.2,504.7,3452,NA
65,2,binary,37,1,fixationCross,12965755.0,12967455.0,1700.0,87,L,12965079,12965443,366,802.8,439.4,3489,NA
65,2,binary,37,1,trial,12965755.0,12967455.0,1700.0,87,L,12965469,12965893,426,914.2,523.2,3546,NA
65,2,binary,37,1,trial,12965755.0,12967455.0,1700.0,87,L,12965939,12966103,166,548.3,519.4,3499,left
65,2,binary,37,1,trial,12965755.0,12967455.0,1700.0,87,L,12966167,12966297,132,1359.6,505.0,3334,right
65,2,binary,37,1,trial,12965755.0,12967455.0,1700.0,87,L,12966317,12966481,166,1436.0,497.2,3172,right
65,2,binary,37,1,trial,12965755.0,12967455.0,1700.0,87,L,12966491,12966633,144,1415.8,488.2,3083,right
65,2,binary,37,1,trial,12965755.0,12967455.0,1700.0,87,L,12966699,12966941,244,548.3,530.8,2986,left
65,2,binary,37,1,trial,12965755.0,12967455.0,1700.0,87,L,12966953,12967715,764,505.9,541.9,3015,left
65,2,binary,38,1,fixationCross,12969505.0,12971472.0,1967.0,88,L,12967873,12968089,218,750.9,518.6,3064,NA
65,2,binary,38,1,fixationCross,12969505.0,12971472.0,1967.0,88,L,12968105,12968353,250,848.6,530.1,3284,NA
65,2,binary,38,1,fixationCross,12969505.0,12971472.0,1967.0,88,L,12968377,12968943,568,693.6,526.1,3314,left
65,2,binary,38,1,fixationCross,12969505.0,12971472.0,1967.0,88,L,12968971,12969211,242,844.5,527.1,3244,NA
65,2,binary,38,1,fixationCross,12969505.0,12971472.0,1967.0,88,L,12969229,12969447,220,927.9,537.4,3272,NA
65,2,binary,38,1,trial,12969505.0,12971472.0,1967.0,88,L,12969473,12969653,182,754.8,522.0,3357,NA
65,2,binary,38,1,trial,12969505.0,12971472.0,1967.0,88,L,12969683,12969855,174,553.9,541.4,3405,left
65,2,binary,38,1,trial,12969505.0,12971472.0,1967.0,88,L,12969917,12970219,304,1369.6,556.0,3159,right
65,2,binary,38,1,trial,12969505.0,12971472.0,1967.0,88,L,12970229,12970385,158,1395.4,527.6,3077,right
65,2,binary,38,1,trial,12969505.0,12971472.0,1967.0,88,L,12970455,12970651,198,480.5,578.8,3070,left
65,2,binary,38,1,trial,12969505.0,12971472.0,1967.0,88,L,12970671,12971087,418,555.1,605.2,3068,left
65,2,binary,38,1,trial,12969505.0,12971472.0,1967.0,88,L,12971115,12971457,344,493.4,494.1,3075,left
65,2,binary,38,1,trial,12969505.0,12971472.0,1967.0,88,L,12971475,12971763,290,560.7,475.7,3063,left
65,2,binary,39,1,fixationCross,12973221.0,12975238.0,2017.0,89,L,12972007,12972913,908,802.0,461.0,3241,NA
65,2,binary,39,1,fixationCross,12973221.0,12975238.0,2017.0,89,L,12972933,12973137,206,889.3,512.2,3289,NA
65,2,binary,39,1,trial,12973221.0,12975238.0,2017.0,89,L,12973159,12973373,216,792.9,495.2,3299,NA
65,2,binary,39,1,trial,12973221.0,12975238.0,2017.0,89,L,12973405,12973705,302,574.7,515.4,3344,left
65,2,binary,39,1,trial,12973221.0,12975238.0,2017.0,89,L,12973781,12973983,204,1496.7,502.5,3105,right
65,2,binary,39,1,trial,12973221.0,12975238.0,2017.0,89,L,12973995,12974183,190,1513.2,470.6,3064,right
65,2,binary,39,1,trial,12973221.0,12975238.0,2017.0,89,L,12974227,12974511,286,1322.2,666.5,3180,right
65,2,binary,39,1,trial,12973221.0,12975238.0,2017.0,89,L,12974555,12974761,208,1416.8,918.7,3350,NA
65,2,binary,39,1,trial,12973221.0,12975238.0,2017.0,89,L,12974831,12974917,88,600.3,925.9,3438,NA
65,2,binary,39,1,trial,12973221.0,12975238.0,2017.0,89,L,12974959,12975479,522,534.2,563.2,3335,left
65,2,binary,40,1,fixationCross,12976371.0,12979005.0,2634.0,90,L,12975715,12975925,212,864.0,522.0,3211,NA
65,2,binary,40,1,fixationCross,12976371.0,12979005.0,2634.0,90,L,12975955,12976175,222,1085.0,517.0,3401,NA
65,2,binary,40,1,trial,12976371.0,12979005.0,2634.0,90,L,12976199,12976515,318,959.6,518.2,3446,NA
