participantNo,block,task,blockTrial,response,trialStage,trialStartTime,trialFinishTime,rt,trial,eye,fixStart,fixEnd,fixLength,fixPosX,fixPosY,dilation,aoi
44,1,binary,1,2,fixationCross,9310691.0,9313757.0,3066.0,1,R,9310132,9310518,388,931.7,457.5,5104,NA
44,1,binary,1,2,trial,9310691.0,9313757.0,3066.0,1,R,9310546,9310704,160,985.1,524.8,5104,NA
44,1,binary,1,2,trial,9310691.0,9313757.0,3066.0,1,R,9310844,9310926,84,978.8,481.5,5158,NA
44,1,binary,1,2,trial,9310691.0,9313757.0,3066.0,1,R,9310982,9311168,188,481.5,490.3,5219,left
44,1,binary,1,2,trial,9310691.0,9313757.0,3066.0,1,R,9311188,9311430,244,442.0,464.1,5218,left
44,1,binary,1,2,trial,9310691.0,9313757.0,3066.0,1,R,9311468,9311588,122,478.8,881.0,5108,NA
44,1,binary,1,2,trial,9310691.0,9313757.0,3066.0,1,R,9311664,9311846,184,1433.0,466.8,4825,right
44,1,binary,1,2,trial,9310691.0,9313757.0,3066.0,1,R,9311888,9312088,202,1467.7,962.6,4862,NA
44,1,binary,1,2,trial,9310691.0,9313757.0,3066.0,1,R,9312140,9312288,150,1001.4,927.4,5197,likertHorizontal
44,1,binary,1,2,trial,9310691.0,9313757.0,3066.0,1,R,9312360,9312598,240,1418.6,419.5,5124,right
44,1,binary,1,2,trial,9310691.0,9313757.0,3066.0,1,R,9312648,9312870,224,1000.1,916.9,5456,likertHorizontal
44,1,binary,1,2,trial,9310691.0,9313757.0,3066.0,1,R,9312922,9313166,246,1445.0,954.1,5380,NA
44,1,binary,1,2,trial,9310691.0,9313757.0,3066.0,1,R,9313234,9313446,214,1425.1,435.8,5459,right
44,1,binary,1,2,trial,9310691.0,9313757.0,3066.0,1,R,9313468,9314052,586,1364.3,429.6,5259,right
44,1,binary,2,1,fixationCross,9315175.0,9317141.0,1966.0,2,R,9314220,9314450,232,737.2,402.0,5179,NA
44,1,binary,2,1,fixationCross,9315175.0,9317141.0,1966.0,2,R,9314468,9314872,406,681.6,398.3,5189,left
44,1,binary,2,1,trial,9315175.0,9317141.0,1966.0,2,R,9314906,9315524,620,965.3,540.8,5161,NA
44,1,binary,2,1,trial,9315175.0,9317141.0,1966.0,2,R,9315566,9315746,182,579.6,418.5,4962,left
44,1,binary,2,1,trial,9315175.0,9317141.0,1966.0,2,R,9315768,9315892,126,479.6,425.9,4897,left
44,1,binary,2,1,trial,9315175.0,9317141.0,1966.0,2,R,9315968,9316180,214,1516.5,418.7,4763,right
44,1,binary,2,1,trial,9315175.0,9317141.0,1966.0,2,R,9316194,9316346,154,1513.1,392.4,4742,right
44,1,binary,2,1,trial,9315175.0,9317141.0,1966.0,2,R,9316422,9316790,370,491.0,436.3,4784,left
44,1,binary,2,1,trial,9315175.0,9317141.0,1966.0,2,R,9316834,9317012,180,486.4,559.6,4698,left
44,1,binary,2,1,trial,9315175.0,9317141.0,1966.0,2,R,9317048,9317200,154,466.9,949.0,4707,NA
44,1,binary,2,1,postResponse,9315175.0,9317141.0,1966.0,2,R,9317264,9317488,226,531.8,431.8,4585,left
44,1,binary,3,1,fixationCross,9318258.0,9319791.0,1533.0,3,R,9317580,9317906,328,564.7,395.6,4746,left
44,1,binary,3,1,fixationCross,9318258.0,9319791.0,1533.0,3,R,9317938,9318218,282,954.7,446.4,4798,NA
44,1,binary,3,1,trial,9318258.0,9319791.0,1533.0,3,R,9318242,9318484,244,975.7,416.5,4849,NA
44,1,binary,3,1,trial,9318258.0,9319791.0,1533.0,3,R,9318522,9318756,236,1361.4,455.3,4752,right
44,1,binary,3,1,trial,9318258.0,9319791.0,1533.0,3,R,9318768,9318924,158,1381.0,444.0,4582,right
44,1,binary,3,1,trial,9318258.0,9319791.0,1533.0,3,R,9318982,9319232,252,571.6,405.5,4543,left
44,1,binary,3,1,trial,9318258.0,9319791.0,1533.0,3,R,9319252,9319766,516,600.2,423.6,4497,left
44,1,binary,3,1,postResponse,9318258.0,9319791.0,1533.0,3,R,9319780,9320134,356,606.9,397.4,4507,left
44,1,binary,4,1,fixationCross,9320874.0,9323075.0,2201.0,4,R,9320222,9320384,164,876.3,387.0,4504,NA
44,1,binary,4,1,fixationCross,9320874.0,9323075.0,2201.0,4,R,9320408,9320566,160,931.1,437.0,4478,NA
44,1,binary,4,1,trial,9320874.0,9323075.0,2201.0,4,R,9320590,9321384,796,962.8,529.5,4598,NA
44,1,binary,4,1,trial,9320874.0,9323075.0,2201.0,4,R,9321400,9321660,262,1004.2,521.0,4364,NA
44,1,binary,4,1,trial,9320874.0,9323075.0,2201.0,4,R,9321706,9322068,364,1448.6,405.0,4319,right
44,1,binary,4,1,trial,9320874.0,9323075.0,2201.0,4,R,9322134,9322388,256,468.6,471.0,4523,left
44,1,binary,4,1,trial,9320874.0,9323075.0,2201.0,4,R,9322430,9323042,614,416.8,564.7,4425,left
44,1,binary,4,1,postResponse,9320874.0,9323075.0,2201.0,4,R,9323070,9323448,380,494.8,476.5,4624,left
44,1,binary,5,1,fixationCross,9324025.0,9326842.0,2817.0,5,R,9323700,9323936,238,934.4,456.9,4589,NA
44,1,binary,5,1,trial,9324025.0,9326842.0,2817.0,5,R,9323960,9324660,702,968.5,512.2,4601,NA
44,1,binary,5,1,trial,9324025.0,9326842.0,2817.0,5,R,9324684,9325092,410,867.9,513.8,4269,NA
44,1,binary,5,1,trial,9324025.0,9326842.0,2817.0,5,R,9325116,9325268,154,962.7,510.1,4506,NA
44,1,binary,5,1,trial,9324025.0,9326842.0,2817.0,5,R,9325308,9325488,182,1329.2,523.4,4509,right
44,1,binary,5,1,trial,9324025.0,9326842.0,2817.0,5,R,9325546,9325896,352,490.5,491.1,4665,left
44,1,binary,5,1,trial,9324025.0,9326842.0,2817.0,5,R,9325910,9326012,104,440.7,500.1,4614,left
44,1,binary,5,1,trial,9324025.0,9326842.0,2817.0,5,R,9326072,9326292,222,1324.5,537.3,4402,right
44,1,binary,5,1,trial,9324025.0,9326842.0,2817.0,5,R,9326310,9326402,94,1366.3,568.0,4315,right
44,1,binary,5,1,trial,9324025.0,9326842.0,2817.0,5,R,9326466,9326780,316,568.4,578.5,4471,left
44,1,binary,5,1,trial,9324025.0,9326842.0,2817.0,5,R,9326806,9327060,256,546.2,524.7,4581,left
44,1,binary,5,1,postResponse,9324025.0,9326842.0,2817.0,5,R,9327112,9327180,70,1050.8,449.5,4556,NA
44,1,binary,6,2,fixationCross,9327741.0,9329908.0,2167.0,6,R,9327254,9327316,64,1052.2,451.4,4518,NA
44,1,binary,6,2,fixationCross,9327741.0,9329908.0,2167.0,6,R,9327340,9327612,274,959.1,452.6,4582,NA
44,1,binary,6,2,trial,9327741.0,9329908.0,2167.0,6,R,9327632,9327798,168,968.0,503.9,4598,NA
44,1,binary,6,2,trial,9327741.0,9329908.0,2167.0,6,R,9327808,9328338,532,964.3,526.3,4575,NA
44,1,binary,6,2,trial,9327741.0,9329908.0,2167.0,6,R,9328382,9328856,476,555.7,542.6,4694,left
44,1,binary,6,2,trial,9327741.0,9329908.0,2167.0,6,R,9328918,9329130,214,1453.7,513.7,4514,right
44,1,binary,6,2,trial,9327741.0,9329908.0,2167.0,6,R,9329142,9329270,130,1480.6,540.4,4413,right
44,1,binary,6,2,trial,9327741.0,9329908.0,2167.0,6,R,9329310,9330114,806,1034.5,539.5,4574,NA
44,1,binary,7,1,fixationCross,9330791.0,9332958.0,2167.0,7,R,9330318,9330538,222,965.7,470.4,4819,NA
44,1,binary,7,1,fixationCross,9330791.0,9332958.0,2167.0,7,R,9330560,9330692,134,905.7,494.8,4955,NA
44,1,binary,7,1,trial,9330791.0,9332958.0,2167.0,7,R,9330714,9331152,440,956.7,556.8,4674,NA
44,1,binary,7,1,trial,9330791.0,9332958.0,2167.0,7,R,9331192,9331378,188,592.7,533.4,4308,left
44,1,binary,7,1,trial,9330791.0,9332958.0,2167.0,7,R,9331392,9331726,336,573.5,560.2,4333,left
44,1,binary,7,1,trial,9330791.0,9332958.0,2167.0,7,R,9331786,9332100,316,1430.4,606.8,4206,right
44,1,binary,7,1,trial,9330791.0,9332958.0,2167.0,7,R,9332160,9332356,198,598.0,534.5,4342,left
44,1,binary,7,1,trial,9330791.0,9332958.0,2167.0,7,R,9332378,9332872,496,574.3,549.2,4451,left
44,1,binary,7,1,postResponse,9330791.0,9332958.0,2167.0,7,R,9332932,9333296,366,1438.5,604.1,4331,right
44,1,binary,8,2,fixationCross,9334025.0,9335774.0,1749.0,8,R,9333396,9333668,274,984.5,465.9,4507,NA
44,1,binary,8,2,fixationCross,9334025.0,9335774.0,1749.0,8,R,9333834,9333948,116,948.0,539.9,4647,NA
44,1,binary,8,2,trial,9334025.0,9335774.0,1749.0,8,R,9333966,9334194,230,953.2,511.6,4752,NA
44,1,binary,8,2,trial,9334025.0,9335774.0,1749.0,8,R,9334232,9334590,360,1375.2,485.6,4385,right
44,1,binary,8,2,trial,9334025.0,9335774.0,1749.0,8,R,9334650,9334974,326,520.5,464.8,4304,left
44,1,binary,8,2,trial,9334025.0,9335774.0,1749.0,8,R,9335016,9335132,118,534.6,584.6,4420,left
44,1,binary,8,2,trial,9334025.0,9335774.0,1749.0,8,R,9335198,9335346,150,1492.0,510.9,4289,right
44,1,binary,8,2,trial,9334025.0,9335774.0,1749.0,8,R,9335370,9335666,298,1539.8,573.9,4388,right
44,1,binary,8,2,postResponse,9334025.0,9335774.0,1749.0,8,R,9335696,9336108,414,1379.3,465.2,4523,right
44,1,binary,9,2,fixationCross,9336808.0,9338508.0,1700.0,9,R,9336208,9336308,102,936.8,441.6,4641,NA
44,1,binary,9,2,fixationCross,9336808.0,9338508.0,1700.0,9,R,9336334,9336494,162,876.8,441.7,4681,NA
44,1,binary,9,2,trial,9336808.0,9338508.0,1700.0,9,R,9336522,9337072,552,967.8,513.1,4661,NA
44,1,binary,9,2,trial,9336808.0,9338508.0,1700.0,9,R,9337116,9337286,172,582.9,478.0,4391,left
44,1,binary,9,2,trial,9336808.0,9338508.0,1700.0,9,R,9337306,9337444,140,496.4,482.0,4351,left
44,1,binary,9,2,trial,9336808.0,9338508.0,1700.0,9,R,9337508,9337786,280,1445.7,512.3,4235,right
44,1,binary,9,2,trial,9336808.0,9338508.0,1700.0,9,R,9337802,9338256,456,1455.4,555.8,4290,right
44,1,binary,9,2,postResponse,9336808.0,9338508.0,1700.0,9,R,9338272,9338850,580,1413.7,598.9,4423,right
44,1,binary,10,2,fixationCross,9339408.0,9341441.0,2033.0,10,R,9338924,9339142,220,890.8,480.4,4498,NA
44,1,binary,10,2,trial,9339408.0,9341441.0,2033.0,10,R,9339164,9339632,470,959.6,529.3,4517,NA
44,1,binary,10,2,trial,9339408.0,9341441.0,2033.0,10,R,9339674,9339892,220,615.0,433.2,4298,left
44,1,binary,10,2,trial,9339408.0,9341441.0,2033.0,10,R,9339904,9340058,156,592.9,417.5,4241,left
44,1,binary,10,2,trial,9339408.0,9341441.0,2033.0,10,R,9340096,9340190,96,388.6,542.5,4235,left
44,1,binary,10,2,trial,9339408.0,9341441.0,2033.0,10,R,9340260,9340652,394,1463.5,502.6,4121,right
44,1,binary,10,2,trial,9339408.0,9341441.0,2033.0,10,R,9340676,9341086,412,1487.9,576.0,4067,right
44,1,binary,10,2,trial,9339408.0,9341441.0,2033.0,10,R,9341108,9341730,624,1405.8,547.9,3894,right
44,1,binary,10,2,postResponse,9339408.0,9341441.0,2033.0,10,R,9341748,9341792,46,1344.5,499.7,3930,right
44,1,binary,11,1,fixationCross,9342558.0,9344158.0,1600.0,11,R,9341866,9341964,100,1339.0,496.2,4041,right
44,1,binary,11,1,fixationCross,9342558.0,9344158.0,1600.0,11,R,9342008,9342136,130,974.2,434.3,4247,NA
44,1,binary,11,1,trial,9342558.0,9344158.0,1600.0,11,R,9342330,9342592,264,948.4,493.8,4464,NA
44,1,binary,11,1,trial,9342558.0,9344158.0,1600.0,11,R,9342606,9342762,158,966.4,515.7,4648,NA
44,1,binary,11,1,trial,9342558.0,9344158.0,1600.0,11,R,9342808,9343000,194,561.9,431.2,4428,left
44,1,binary,11,1,trial,9342558.0,9344158.0,1600.0,11,R,9343024,9343178,156,453.7,395.3,4157,left
44,1,binary,11,1,trial,9342558.0,9344158.0,1600.0,11,R,9343202,9343418,218,587.3,430.0,4067,left
44,1,binary,11,1,trial,9342558.0,9344158.0,1600.0,11,R,9343478,9343710,234,1451.2,555.3,4024,right
44,1,binary,11,1,trial,9342558.0,9344158.0,1600.0,11,R,9343770,9344008,240,602.7,483.2,4255,left
44,1,binary,11,1,postResponse,9342558.0,9344158.0,1600.0,11,R,9344030,9344494,466,572.2,434.1,4421,left
44,1,binary,12,2,fixationCross,9345125.0,9347508.0,2383.0,12,R,9344568,9344802,236,618.8,431.6,4571,left
44,1,binary,12,2,trial,9345125.0,9347508.0,2383.0,12,R,9344846,9345172,328,966.8,473.4,4494,NA
44,1,binary,12,2,trial,9345125.0,9347508.0,2383.0,12,R,9345190,9345402,214,980.8,510.1,4536,NA
44,1,binary,12,2,trial,9345125.0,9347508.0,2383.0,12,R,9345450,9345630,182,1378.4,580.8,4460,right
44,1,binary,12,2,trial,9345125.0,9347508.0,2383.0,12,R,9345652,9345884,234,1443.9,637.1,4323,right
44,1,binary,12,2,trial,9345125.0,9347508.0,2383.0,12,R,9345900,9346122,224,1450.2,673.0,4239,right
44,1,binary,12,2,trial,9345125.0,9347508.0,2383.0,12,R,9346270,9346474,206,485.0,535.4,4235,left
44,1,binary,12,2,trial,9345125.0,9347508.0,2383.0,12,R,9346508,9346778,272,410.2,568.9,4414,left
44,1,binary,12,2,trial,9345125.0,9347508.0,2383.0,12,R,9346840,9347036,198,1354.4,698.9,4260,right
44,1,binary,12,2,trial,9345125.0,9347508.0,2383.0,12,R,9347062,9347354,294,1437.8,672.5,4174,right
44,1,binary,12,2,trial,9345125.0,9347508.0,2383.0,12,R,9347388,9347552,166,1465.2,943.5,4185,NA
44,1,binary,12,2,trial,9345125.0,9347508.0,2383.0,12,R,9347610,9347824,216,1390.2,609.4,4238,right
44,1,binary,13,1,fixationCross,9348442.0,9350158.0,1716.0,13,R,9347942,9348048,108,1362.3,545.2,4228,right
44,1,binary,13,1,fixationCross,9348442.0,9350158.0,1716.0,13,R,9348092,9348310,220,978.7,472.9,4345,NA
44,1,binary,13,1,trial,9348442.0,9350158.0,1716.0,13,R,9348346,9348664,320,953.3,548.3,4550,NA
44,1,binary,13,1,trial,9348442.0,9350158.0,1716.0,13,R,9348674,9348940,268,983.2,549.5,4516,NA
44,1,binary,13,1,trial,9348442.0,9350158.0,1716.0,13,R,9348986,9349246,262,527.3,477.4,4195,left
44,1,binary,13,1,trial,9348442.0,9350158.0,1716.0,13,R,9349256,9349884,630,496.6,465.0,4060,left
44,1,binary,13,1,trial,9348442.0,9350158.0,1716.0,13,R,9349928,9350178,252,513.8,686.6,4059,left
44,1,binary,13,1,postResponse,9348442.0,9350158.0,1716.0,13,R,9350212,9350492,282,516.8,483.7,4019,left
44,1,binary,14,2,fixationCross,9351075.0,9352859.0,1784.0,14,R,9350566,9350732,168,1061.2,478.3,4033,NA
44,1,binary,14,2,fixationCross,9351075.0,9352859.0,1784.0,14,R,9350758,9350950,194,981.5,566.9,4251,NA
44,1,binary,14,2,trial,9351075.0,9352859.0,1784.0,14,R,9350962,9351362,402,956.2,541.1,4392,NA
44,1,binary,14,2,trial,9351075.0,9352859.0,1784.0,14,R,9351404,9351670,268,1347.5,596.4,4040,right
44,1,binary,14,2,trial,9351075.0,9352859.0,1784.0,14,R,9351690,9351780,92,1424.6,602.1,3982,right
44,1,binary,14,2,trial,9351075.0,9352859.0,1784.0,14,R,9351846,9352092,248,500.5,593.9,4048,left
44,1,binary,14,2,trial,9351075.0,9352859.0,1784.0,14,R,9352172,9352666,496,1396.6,621.5,3883,right
44,1,binary,14,2,trial,9351075.0,9352859.0,1784.0,14,R,9352690,9353086,398,1405.4,551.6,3875,right
44,1,binary,14,2,postResponse,9351075.0,9352859.0,1784.0,14,R,9353096,9353192,98,1383.1,526.4,3919,right
44,1,binary,15,1,fixationCross,9355341.0,9356958.0,1617.0,15,R,9353292,9353408,118,1381.5,528.2,3999,right
44,1,binary,15,1,fixationCross,9355341.0,9356958.0,1617.0,15,R,9353566,9353790,226,742.5,442.0,4213,NA
44,1,binary,15,1,fixationCross,9355341.0,9356958.0,1617.0,15,R,9353818,9354032,216,540.2,466.7,4504,left
44,1,binary,15,1,fixationCross,9355341.0,9356958.0,1617.0,15,R,9354052,9355014,964,465.8,486.9,4144,left
44,1,binary,15,1,trial,9355341.0,9356958.0,1617.0,15,R,9355054,9355552,500,954.6,536.3,4513,NA
44,1,binary,15,1,trial,9355341.0,9356958.0,1617.0,15,R,9355602,9355866,266,503.3,498.5,4504,left
44,1,binary,15,1,trial,9355341.0,9356958.0,1617.0,15,R,9355898,9356058,162,441.0,527.8,4409,left
44,1,binary,15,1,trial,9355341.0,9356958.0,1617.0,15,R,9356068,9356826,760,421.4,565.7,4182,left
44,1,binary,15,1,trial,9355341.0,9356958.0,1617.0,15,R,9356892,9357192,302,1389.9,521.7,3910,right
44,1,binary,15,1,postResponse,9355341.0,9356958.0,1617.0,15,R,9357240,9357292,54,922.1,524.3,4063,NA
44,1,binary,16,2,fixationCross,9357875.0,9359825.0,1950.0,16,R,9357366,9357698,334,917.9,523.9,4158,NA
44,1,binary,16,2,trial,9357875.0,9359825.0,1950.0,16,R,9357712,9358100,390,954.8,532.9,4308,NA
44,1,binary,16,2,trial,9357875.0,9359825.0,1950.0,16,R,9358142,9358462,322,1395.1,583.5,3961,right
44,1,binary,16,2,trial,9357875.0,9359825.0,1950.0,16,R,9358476,9358752,278,1429.6,584.9,3835,right
44,1,binary,16,2,trial,9357875.0,9359825.0,1950.0,16,R,9358820,9359002,184,488.3,546.7,3813,left
44,1,binary,16,2,trial,9357875.0,9359825.0,1950.0,16,R,9359068,9359600,534,1436.2,612.9,3792,right
44,1,binary,16,2,trial,9357875.0,9359825.0,1950.0,16,R,9359618,9360060,444,1401.2,557.1,3948,right
44,1,binary,16,2,postResponse,9357875.0,9359825.0,1950.0,16,R,9360080,9360160,82,1285.9,524.2,4080,right
44,1,binary,17,2,fixationCross,9360725.0,9363092.0,2367.0,17,R,9360260,9360580,322,947.4,493.7,4287,NA
44,1,binary,17,2,trial,9360725.0,9363092.0,2367.0,17,R,9360592,9360880,290,970.9,513.5,4457,NA
44,1,binary,17,2,trial,9360725.0,9363092.0,2367.0,17,R,9360924,9361496,574,592.7,434.5,4369,left
44,1,binary,17,2,trial,9360725.0,9363092.0,2367.0,17,R,9361554,9361754,202,1323.2,454.0,4128,right
44,1,binary,17,2,trial,9360725.0,9363092.0,2367.0,17,R,9361794,9362016,224,1510.9,563.1,4180,right
44,1,binary,17,2,trial,9360725.0,9363092.0,2367.0,17,R,9362044,9362222,180,1363.8,433.5,4200,right
44,1,binary,17,2,trial,9360725.0,9363092.0,2367.0,17,R,9362292,9362570,280,609.3,421.6,4160,left
44,1,binary,17,2,trial,9360725.0,9363092.0,2367.0,17,R,9362630,9362920,292,1388.2,501.1,4178,right
44,1,binary,17,2,postResponse,9360725.0,9363092.0,2367.0,17,R,9362944,9363440,498,1354.3,444.7,4186,right
44,1,binary,18,2,fixationCross,9364008.0,9365825.0,1817.0,18,R,9363514,9363534,22,1355.3,449.5,4047,right
44,1,binary,18,2,fixationCross,9364008.0,9365825.0,1817.0,18,R,9363716,9363972,258,972.9,446.9,4249,NA
44,1,binary,18,2,trial,9364008.0,9365825.0,1817.0,18,R,9364008,9364194,188,946.5,522.1,4608,NA
44,1,binary,18,2,trial,9364008.0,9365825.0,1817.0,18,R,9364238,9364498,262,549.1,536.9,4402,left
44,1,binary,18,2,trial,9364008.0,9365825.0,1817.0,18,R,9364522,9364708,188,569.9,510.7,4172,left
44,1,binary,18,2,trial,9364008.0,9365825.0,1817.0,18,R,9364770,9365566,798,1443.0,491.6,4039,right
44,1,binary,18,2,trial,9364008.0,9365825.0,1817.0,18,R,9365576,9365790,216,1439.9,466.7,4161,right
44,1,binary,18,2,trial,9364008.0,9365825.0,1817.0,18,R,9365808,9366082,276,1366.4,464.7,4095,right
44,1,binary,18,2,postResponse,9364008.0,9365825.0,1817.0,18,R,9366130,9366160,32,971.5,501.9,4181,NA
44,1,binary,19,2,fixationCross,9366742.0,9369358.0,2616.0,19,R,9366258,9366624,368,961.9,503.6,4234,NA
44,1,binary,19,2,trial,9366742.0,9369358.0,2616.0,19,R,9366638,9367022,386,970.5,538.4,4288,NA
44,1,binary,19,2,trial,9366742.0,9369358.0,2616.0,19,R,9367076,9367532,458,456.1,452.7,3918,left
44,1,binary,19,2,trial,9366742.0,9369358.0,2616.0,19,R,9367598,9367830,234,1440.7,507.6,3845,right
44,1,binary,19,2,trial,9366742.0,9369358.0,2616.0,19,R,9367866,9368288,424,1425.7,627.1,3911,right
44,1,binary,19,2,trial,9366742.0,9369358.0,2616.0,19,R,9368350,9368586,238,544.8,498.4,3922,left
44,1,binary,19,2,trial,9366742.0,9369358.0,2616.0,19,R,9368610,9368908,300,469.7,431.1,3845,left
44,1,binary,19,2,trial,9366742.0,9369358.0,2616.0,19,R,9368930,9369036,108,566.3,493.1,3927,left
44,1,binary,19,2,trial,9366742.0,9369358.0,2616.0,19,R,9369102,9369590,490,1452.8,543.7,3952,right
44,1,binary,19,2,postResponse,9366742.0,9369358.0,2616.0,19,R,9369608,9369690,84,1424.4,484.9,4018,right
44,1,binary,20,2,fixationCross,9370859.0,9372809.0,1950.0,20,R,9370252,9370464,214,940.1,502.7,4285,NA
44,1,binary,20,2,fixationCross,9370859.0,9372809.0,1950.0,20,R,9370658,9370778,122,970.7,481.6,4212,NA
44,1,binary,20,2,trial,9370859.0,9372809.0,1950.0,20,R,9370800,9371280,482,959.5,539.5,4461,NA
44,1,binary,20,2,trial,9370859.0,9372809.0,1950.0,20,R,9371320,9371564,246,1371.3,517.7,4193,right
44,1,binary,20,2,trial,9370859.0,9372809.0,1950.0,20,R,9371584,9371882,300,1453.7,517.7,4110,right
44,1,binary,20,2,trial,9370859.0,9372809.0,1950.0,20,R,9371908,9372116,210,1344.0,590.0,4032,right
44,1,binary,20,2,trial,9370859.0,9372809.0,1950.0,20,R,9372178,9372296,120,517.0,498.7,4082,left
44,1,binary,20,2,postResponse,9370859.0,9372809.0,1950.0,20,R,9372356,9373142,788,1392.1,523.1,3943,right
44,1,binary,21,1,fixationCross,9373792.0,9375575.0,1783.0,21,R,9373216,9373298,84,1393.6,522.4,3929,right
44,1,binary,21,1,fixationCross,9373792.0,9375575.0,1783.0,21,R,9373340,9373496,158,1136.3,481.0,3980,NA
44,1,binary,21,1,fixationCross,9373792.0,9375575.0,1783.0,21,R,9373522,9373690,170,939.5,509.4,4055,NA
44,1,binary,21,1,trial,9373792.0,9375575.0,1783.0,21,R,9373702,9374230,530,966.5,528.1,4085,NA
44,1,binary,21,1,trial,9373792.0,9375575.0,1783.0,21,R,9374272,9374594,324,1407.0,538.7,3838,right
44,1,binary,21,1,trial,9373792.0,9375575.0,1783.0,21,R,9374612,9374706,96,1382.8,589.9,3858,right
44,1,binary,21,1,trial,9373792.0,9375575.0,1783.0,21,R,9374768,9375052,286,557.5,494.3,3828,left
44,1,binary,21,1,trial,9373792.0,9375575.0,1783.0,21,R,9375074,9375828,756,483.8,547.5,3760,left
44,1,binary,21,1,postResponse,9373792.0,9375575.0,1783.0,21,R,9375840,9375908,70,475.6,532.4,3802,left
44,1,binary,22,2,fixationCross,9376659.0,9378576.0,1917.0,22,R,9376006,9376320,316,477.6,527.4,3984,left
44,1,binary,22,2,trial,9376659.0,9378576.0,1917.0,22,R,9376358,9376910,554,959.8,522.4,4098,NA
44,1,binary,22,2,trial,9376659.0,9378576.0,1917.0,22,R,9376950,9377166,218,1376.3,542.8,4059,right
44,1,binary,22,2,trial,9376659.0,9378576.0,1917.0,22,R,9377186,9377432,248,1445.2,566.6,3910,right
44,1,binary,22,2,trial,9376659.0,9378576.0,1917.0,22,R,9377506,9377752,248,502.1,507.7,3869,left
44,1,binary,22,2,trial,9376659.0,9378576.0,1917.0,22,R,9377774,9377894,122,415.3,500.9,3813,left
44,1,binary,22,2,postResponse,9376659.0,9378576.0,1917.0,22,R,9378070,9378910,842,1461.8,585.3,3888,right
44,1,binary,23,1,fixationCross,9379475.0,9381275.0,1800.0,23,R,9378984,9379002,20,1451.3,577.8,3894,right
44,1,binary,23,1,fixationCross,9379475.0,9381275.0,1800.0,23,R,9379048,9379290,244,1047.3,535.3,3960,NA
44,1,binary,23,1,fixationCross,9379475.0,9381275.0,1800.0,23,R,9379314,9379442,130,948.6,512.4,4100,NA
44,1,binary,23,1,trial,9379475.0,9381275.0,1800.0,23,R,9379660,9379906,248,959.4,523.4,4207,NA
44,1,binary,23,1,trial,9379475.0,9381275.0,1800.0,23,R,9379942,9380130,190,1357.0,464.1,4334,right
44,1,binary,23,1,trial,9379475.0,9381275.0,1800.0,23,R,9380156,9380470,316,1496.6,527.1,4167,right
44,1,binary,23,1,trial,9379475.0,9381275.0,1800.0,23,R,9380536,9380976,442,533.4,570.7,4202,left
44,1,binary,23,1,trial,9379475.0,9381275.0,1800.0,23,R,9381006,9381150,146,451.2,592.2,4027,left
44,1,binary,23,1,trial,9379475.0,9381275.0,1800.0,23,R,9381182,9381534,354,395.8,650.9,3802,left
44,1,binary,23,1,postResponse,9379475.0,9381275.0,1800.0,23,R,9381570,9381608,40,546.3,504.9,3688,left
44,1,binary,24,2,fixationCross,9382159.0,9384175.0,2016.0,24,R,9381682,9381778,98,545.7,506.6,3633,left
44,1,binary,24,2,fixationCross,9382159.0,9384175.0,2016.0,24,R,9381826,9382034,210,969.1,495.2,3698,NA
44,1,binary,24,2,trial,9382159.0,9384175.0,2016.0,24,R,9382054,9382422,370,965.8,556.9,3965,NA
44,1,binary,24,2,trial,9382159.0,9384175.0,2016.0,24,R,9382468,9382678,212,1459.3,559.1,3821,right
44,1,binary,24,2,trial,9382159.0,9384175.0,2016.0,24,R,9382740,9382924,186,513.8,499.2,3907,left
44,1,binary,24,2,trial,9382159.0,9384175.0,2016.0,24,R,9382950,9383278,330,370.3,393.8,3775,left
44,1,binary,24,2,trial,9382159.0,9384175.0,2016.0,24,R,9383348,9383624,278,1467.7,552.0,3625,right
44,1,binary,24,2,postResponse,9382159.0,9384175.0,2016.0,24,R,9383640,9384508,870,1497.5,578.6,3744,right
44,1,binary,25,2,fixationCross,9385059.0,9387176.0,2117.0,25,R,9384582,9384650,70,1474.3,568.3,3702,right
44,1,binary,25,2,trial,9385059.0,9387176.0,2117.0,25,R,9384702,9385298,598,963.7,539.4,3980,NA
44,1,binary,25,2,trial,9385059.0,9387176.0,2117.0,25,R,9385344,9385510,168,481.1,510.7,3968,left
44,1,binary,25,2,trial,9385059.0,9387176.0,2117.0,25,R,9385532,9385746,216,434.8,520.6,3918,left
44,1,binary,25,2,trial,9385059.0,9387176.0,2117.0,25,R,9385810,9385938,130,1376.0,603.9,3903,right
44,1,binary,25,2,trial,9385059.0,9387176.0,2117.0,25,R,9386122,9386818,698,1384.0,615.7,4009,right
44,1,binary,25,2,trial,9385059.0,9387176.0,2117.0,25,R,9386838,9387028,192,1395.5,555.9,3889,right
44,1,binary,25,2,trial,9385059.0,9387176.0,2117.0,25,R,9387050,9387460,412,1432.8,525.7,3873,right
44,1,binary,26,2,fixationCross,9408359.0,9410625.0,2266.0,26,R,9407523,9407641,120,799.7,104.9,3332,NA
44,1,binary,26,2,fixationCross,9408359.0,9410625.0,2266.0,26,R,9407653,9407789,138,824.5,90.2,3330,NA
44,1,binary,26,2,fixationCross,9408359.0,9410625.0,2266.0,26,R,9407857,9408023,168,93.9,41.0,3015,NA
44,1,binary,26,2,fixationCross,9408359.0,9410625.0,2266.0,26,R,9408087,9408261,176,989.0,581.4,3552,NA
44,1,binary,26,2,trial,9408359.0,9410625.0,2266.0,26,R,9408275,9408603,330,960.8,556.2,3601,NA
44,1,binary,26,2,trial,9408359.0,9410625.0,2266.0,26,R,9408653,9408943,292,489.3,461.0,3502,left
44,1,binary,26,2,trial,9408359.0,9410625.0,2266.0,26,R,9409009,9409255,248,1500.0,521.7,3613,right
44,1,binary,26,2,trial,9408359.0,9410625.0,2266.0,26,R,9409267,9409461,196,1493.5,499.0,3629,right
44,1,binary,26,2,trial,9408359.0,9410625.0,2266.0,26,R,9409501,9409779,280,1486.6,680.8,3568,right
44,1,binary,26,2,trial,9408359.0,9410625.0,2266.0,26,R,9409849,9410097,250,454.6,509.0,3558,left
44,1,binary,26,2,trial,9408359.0,9410625.0,2266.0,26,R,9410121,9410413,294,469.0,576.9,3596,left
44,1,binary,26,2,trial,9408359.0,9410625.0,2266.0,26,R,9410485,9410659,176,1472.0,588.6,3540,right
44,1,binary,26,2,postResponse,9408359.0,9410625.0,2266.0,26,R,9410683,9410961,280,1477.3,523.4,3538,right
44,1,binary,27,1,fixationCross,9411643.0,9413559.0,1916.0,27,R,9411069,9411347,280,867.9,441.7,3512,NA
44,1,binary,27,1,trial,9411643.0,9413559.0,1916.0,27,R,9411371,9411793,424,946.2,523.6,3711,NA
44,1,binary,27,1,trial,9411643.0,9413559.0,1916.0,27,R,9411839,9412025,188,558.3,505.6,3558,left
44,1,binary,27,1,trial,9411643.0,9413559.0,1916.0,27,R,9412063,9412203,142,463.6,579.5,3537,left
44,1,binary,27,1,trial,9411643.0,9413559.0,1916.0,27,R,9412221,9412475,256,432.2,622.5,3479,left
44,1,binary,27,1,trial,9411643.0,9413559.0,1916.0,27,R,9412501,9412577,78,619.9,575.7,3444,left
44,1,binary,27,1,trial,9411643.0,9413559.0,1916.0,27,R,9412639,9412993,356,1465.7,522.7,3396,right
44,1,binary,27,1,trial,9411643.0,9413559.0,1916.0,27,R,9413059,9413477,420,528.7,674.4,3503,left
44,1,binary,27,1,trial,9411643.0,9413559.0,1916.0,27,R,9413497,9413769,274,454.6,626.7,3563,left
44,1,binary,28,1,fixationCross,9414575.0,9416842.0,2267.0,28,R,9413991,9414239,250,620.6,527.7,3777,left
44,1,binary,28,1,fixationCross,9414575.0,9416842.0,2267.0,28,R,9414281,9414431,152,910.2,459.4,3922,NA
44,1,binary,28,1,trial,9414575.0,9416842.0,2267.0,28,R,9414455,9414775,322,964.3,537.0,3753,NA
44,1,binary,28,1,trial,9414575.0,9416842.0,2267.0,28,R,9414821,9415005,186,1404.2,542.0,3578,right
44,1,binary,28,1,trial,9414575.0,9416842.0,2267.0,28,R,9415025,9415145,122,1464.1,595.7,3561,right
44,1,binary,28,1,trial,9414575.0,9416842.0,2267.0,28,R,9415221,9415821,602,459.2,488.6,3593,left
44,1,binary,28,1,trial,9414575.0,9416842.0,2267.0,28,R,9415885,9416071,188,1402.1,568.3,3538,right
44,1,binary,28,1,trial,9414575.0,9416842.0,2267.0,28,R,9416091,9416251,162,1430.9,607.1,3555,right
44,1,binary,28,1,trial,9414575.0,9416842.0,2267.0,28,R,9416271,9416345,76,1500.0,600.3,3627,right
44,1,binary,28,1,trial,9414575.0,9416842.0,2267.0,28,R,9416409,9416729,322,505.4,485.3,3699,left
44,1,binary,28,1,postResponse,9414575.0,9416842.0,2267.0,28,R,9416745,9417193,450,462.0,488.2,3763,left
44,1,binary,29,2,fixationCross,9417876.0,9419609.0,1733.0,29,R,9417269,9417309,42,464.5,491.0,3885,left
44,1,binary,29,2,fixationCross,9417876.0,9419609.0,1733.0,29,R,9417357,9417587,232,870.3,482.7,3941,NA
44,1,binary,29,2,trial,9417876.0,9419609.0,1733.0,29,R,9417611,9418119,510,954.5,546.7,4126,NA
44,1,binary,29,2,trial,9417876.0,9419609.0,1733.0,29,R,9418161,9418377,218,1407.3,554.5,3898,right
44,1,binary,29,2,trial,9417876.0,9419609.0,1733.0,29,R,9418401,9418667,268,1512.5,530.6,3859,right
44,1,binary,29,2,trial,9417876.0,9419609.0,1733.0,29,R,9418735,9418933,200,520.8,499.4,3887,left
44,1,binary,29,2,trial,9417876.0,9419609.0,1733.0,29,R,9418997,9419435,440,1428.2,518.7,3765,right
44,1,binary,29,2,postResponse,9417876.0,9419609.0,1733.0,29,R,9419643,9419927,286,1427.6,498.0,3956,right
44,1,binary,30,2,fixationCross,9420509.0,9422359.0,1850.0,30,R,9420019,9420087,70,1228.6,498.1,4210,right
44,1,binary,30,2,fixationCross,9420509.0,9422359.0,1850.0,30,R,9420113,9420407,296,964.5,514.1,4070,NA
44,1,binary,30,2,trial,9420509.0,9422359.0,1850.0,30,R,9420419,9420693,276,950.9,548.8,4009,NA
44,1,binary,30,2,trial,9420509.0,9422359.0,1850.0,30,R,9420731,9421027,298,576.4,493.6,3944,left
44,1,binary,30,2,trial,9420509.0,9422359.0,1850.0,30,R,9421049,9421203,156,637.6,477.4,3856,left
44,1,binary,30,2,trial,9420509.0,9422359.0,1850.0,30,R,9421261,9421731,472,1432.6,495.0,3734,right
44,1,binary,30,2,trial,9420509.0,9422359.0,1850.0,30,R,9421753,9422261,510,1423.7,562.5,3678,right
44,1,binary,30,2,trial,9420509.0,9422359.0,1850.0,30,R,9422289,9422635,348,1409.8,445.7,3515,right
44,1,binary,31,2,fixationCross,9423276.0,9424926.0,1650.0,31,R,9422769,9422813,46,1049.8,520.0,3555,NA
44,1,binary,31,2,fixationCross,9423276.0,9424926.0,1650.0,31,R,9422837,9423155,320,923.8,533.5,3747,NA
44,1,binary,31,2,trial,9423276.0,9424926.0,1650.0,31,R,9423165,9423475,312,955.7,530.3,3781,NA
44,1,binary,31,2,trial,9423276.0,9424926.0,1650.0,31,R,9423521,9423771,252,522.0,452.0,3505,left
44,1,binary,31,2,trial,9423276.0,9424926.0,1650.0,31,R,9423795,9424403,610,638.3,497.2,3478,left
44,1,binary,31,2,trial,9423276.0,9424926.0,1650.0,31,R,9424429,9424549,122,642.2,635.5,3477,left
44,1,binary,31,2,trial,9423276.0,9424926.0,1650.0,31,R,9424611,9425195,586,1395.9,552.5,3469,right
44,1,binary,31,2,postResponse,9423276.0,9424926.0,1650.0,31,R,9425215,9425257,44,1306.7,527.3,3452,right
44,1,binary,32,2,trial,9425842.0,9427525.0,1683.0,32,R,9425373,9426035,664,950.7,511.6,3483,NA
44,1,binary,32,2,trial,9425842.0,9427525.0,1683.0,32,R,9426073,9426231,160,556.9,544.1,3571,left
44,1,binary,32,2,trial,9425842.0,9427525.0,1683.0,32,R,9426397,9426513,118,541.1,601.6,3685,left
44,1,binary,32,2,trial,9425842.0,9427525.0,1683.0,32,R,9426549,9426641,94,567.9,684.0,3759,left
44,1,binary,32,2,trial,9425842.0,9427525.0,1683.0,32,R,9426701,9427415,716,1414.7,486.9,3714,right
44,1,binary,32,2,trial,9425842.0,9427525.0,1683.0,32,R,9427433,9427793,362,1339.0,481.7,3635,right
44,1,binary,33,1,fixationCross,9428409.0,9429809.0,1400.0,33,R,9428079,9428353,276,985.7,473.8,3916,NA
44,1,binary,33,1,trial,9428409.0,9429809.0,1400.0,33,R,9428377,9428585,210,949.5,524.1,4035,NA
44,1,binary,33,1,trial,9428409.0,9429809.0,1400.0,33,R,9428641,9428825,186,512.9,541.6,3614,left
44,1,binary,33,1,trial,9428409.0,9429809.0,1400.0,33,R,9428849,9429063,216,473.3,600.3,3627,left
44,1,binary,33,1,trial,9428409.0,9429809.0,1400.0,33,R,9429085,9429249,166,557.9,647.9,3702,left
44,1,binary,33,1,trial,9428409.0,9429809.0,1400.0,33,R,9429307,9429587,282,1298.4,510.3,3571,right
44,1,binary,33,1,postResponse,9428409.0,9429809.0,1400.0,33,R,9429647,9430145,500,550.5,608.0,3684,left
44,1,binary,34,2,fixationCross,9430826.0,9432543.0,1717.0,34,R,9430245,9430513,270,543.3,607.0,3612,left
44,1,binary,34,2,fixationCross,9430826.0,9432543.0,1717.0,34,R,9430561,9430695,136,1015.8,590.4,3556,NA
44,1,binary,34,2,trial,9430826.0,9432543.0,1717.0,34,R,9430715,9431147,434,955.3,556.7,3684,NA
44,1,binary,34,2,trial,9430826.0,9432543.0,1717.0,34,R,9431195,9431387,194,1434.1,534.3,3554,right
44,1,binary,34,2,trial,9430826.0,9432543.0,1717.0,34,R,9431445,9431703,260,599.3,484.4,3506,left
44,1,binary,34,2,trial,9430826.0,9432543.0,1717.0,34,R,9431727,9431889,164,454.3,467.8,3456,left
44,1,binary,34,2,trial,9430826.0,9432543.0,1717.0,34,R,9431953,9432241,290,1410.3,548.6,3465,right
44,1,binary,34,2,postResponse,9430826.0,9432543.0,1717.0,34,R,9432251,9432877,628,1433.2,550.4,3448,right
44,1,binary,35,2,fixationCross,9433442.0,9435193.0,1751.0,35,R,9432975,9433169,196,949.9,457.1,3501,NA
44,1,binary,35,2,fixationCross,9433442.0,9435193.0,1751.0,35,R,9433187,9433357,172,931.2,506.8,3684,NA
44,1,binary,35,2,trial,9433442.0,9435193.0,1751.0,35,R,9433373,9433685,314,965.4,539.6,3797,NA
44,1,binary,35,2,trial,9433442.0,9435193.0,1751.0,35,R,9433727,9433991,266,1379.0,568.0,3567,right
44,1,binary,35,2,trial,9433442.0,9435193.0,1751.0,35,R,9434059,9434283,226,435.9,524.6,3484,left
44,1,binary,35,2,trial,9433442.0,9435193.0,1751.0,35,R,9434301,9434713,414,389.0,480.3,3325,left
44,1,binary,35,2,postResponse,9433442.0,9435193.0,1751.0,35,R,9434785,9435527,744,1461.0,521.3,3322,right
44,1,binary,36,1,fixationCross,9436109.0,9438110.0,2001.0,36,R,9435785,9436001,218,932.5,492.9,3560,NA
44,1,binary,36,1,trial,9436109.0,9438110.0,2001.0,36,R,9436023,9436271,250,966.8,547.1,3869,NA
44,1,binary,36,1,trial,9436109.0,9438110.0,2001.0,36,R,9436317,9436511,196,510.8,489.1,3702,left
44,1,binary,36,1,trial,9436109.0,9438110.0,2001.0,36,R,9436525,9436719,196,484.5,470.1,3500,left
44,1,binary,36,1,trial,9436109.0,9438110.0,2001.0,36,R,9436785,9436929,146,1480.5,505.7,3431,right
44,1,binary,36,1,trial,9436109.0,9438110.0,2001.0,36,R,9436953,9437131,180,1602.5,489.7,3372,right
44,1,binary,36,1,trial,9436109.0,9438110.0,2001.0,36,R,9437161,9437273,114,1463.2,626.4,3433,right
44,1,binary,36,1,trial,9436109.0,9438110.0,2001.0,36,R,9437337,9437671,336,482.5,521.8,3463,left
44,1,binary,36,1,trial,9436109.0,9438110.0,2001.0,36,R,9437691,9437963,274,470.1,454.3,3241,left
44,1,binary,36,1,postResponse,9436109.0,9438110.0,2001.0,36,R,9437973,9438443,472,476.3,431.0,3140,left
44,1,binary,37,1,fixationCross,9439109.0,9440893.0,1784.0,37,R,9438543,9438777,236,477.3,437.1,3281,left
44,1,binary,37,1,fixationCross,9439109.0,9440893.0,1784.0,37,R,9438829,9439035,208,971.0,471.3,3513,NA
44,1,binary,37,1,trial,9439109.0,9440893.0,1784.0,37,R,9439061,9439267,208,957.9,531.4,3668,NA
44,1,binary,37,1,trial,9439109.0,9440893.0,1784.0,37,R,9439319,9439707,390,1447.6,538.3,3595,right
44,1,binary,37,1,trial,9439109.0,9440893.0,1784.0,37,R,9439773,9440013,242,497.9,458.1,3383,left
44,1,binary,37,1,trial,9439109.0,9440893.0,1784.0,37,R,9440035,9440377,344,472.4,499.3,3313,left
44,1,binary,37,1,trial,9439109.0,9440893.0,1784.0,37,R,9440445,9440613,170,1446.5,514.0,3329,right
44,1,binary,37,1,trial,9439109.0,9440893.0,1784.0,37,R,9440673,9441095,424,519.3,510.4,3484,left
44,1,binary,38,2,fixationCross,9442059.0,9443792.0,1733.0,38,R,9441391,9441755,366,571.0,480.4,3734,left
44,1,binary,38,2,trial,9442059.0,9443792.0,1733.0,38,R,9441795,9442407,614,962.6,544.2,3635,NA
44,1,binary,38,2,trial,9442059.0,9443792.0,1733.0,38,R,9442445,9442659,216,1405.4,513.1,3532,right
44,1,binary,38,2,trial,9442059.0,9443792.0,1733.0,38,R,9442679,9442823,146,1478.7,476.0,3615,right
44,1,binary,38,2,trial,9442059.0,9443792.0,1733.0,38,R,9442891,9443149,260,457.5,451.8,3599,left
44,1,binary,38,2,trial,9442059.0,9443792.0,1733.0,38,R,9443215,9443425,212,1436.8,518.4,3519,right
44,1,binary,38,2,postResponse,9442059.0,9443792.0,1733.0,38,R,9443445,9444125,682,1487.0,484.3,3385,right
44,1,binary,39,1,fixationCross,9444943.0,9446692.0,1749.0,39,R,9444205,9444305,102,941.1,430.7,3411,NA
44,1,binary,39,1,fixationCross,9444943.0,9446692.0,1749.0,39,R,9444329,9444649,322,799.4,458.4,3476,NA
44,1,binary,39,1,trial,9444943.0,9446692.0,1749.0,39,R,9444675,9445113,440,933.1,512.2,3569,NA
44,1,binary,39,1,trial,9444943.0,9446692.0,1749.0,39,R,9445151,9445329,180,573.4,502.6,3486,left
44,1,binary,39,1,trial,9444943.0,9446692.0,1749.0,39,R,9445345,9445435,92,609.3,489.5,3438,left
44,1,binary,39,1,trial,9444943.0,9446692.0,1749.0,39,R,9445495,9445925,432,1447.6,548.1,3401,right
44,1,binary,39,1,trial,9444943.0,9446692.0,1749.0,39,R,9445953,9446063,112,1326.1,451.5,3401,right
44,1,binary,39,1,trial,9444943.0,9446692.0,1749.0,39,R,9446117,9446273,158,671.1,540.9,3471,left
44,1,binary,39,1,postResponse,9444943.0,9446692.0,1749.0,39,R,9446295,9447027,734,622.6,487.5,3454,left
44,1,binary,40,2,fixationCross,9447759.0,9449377.0,1618.0,40,R,9447309,9447441,134,653.9,442.5,3490,left
44,1,binary,40,2,trial,9447759.0,9449377.0,1618.0,40,R,9447477,9447997,522,955.0,545.9,3770,NA
44,1,binary,40,2,trial,9447759.0,9449377.0,1618.0,40,R,9448039,9448255,218,1409.2,502.1,3488,right
44,1,binary,40,2,trial,9447759.0,9449377.0,1618.0,40,R,9448275,9448497,224,1373.4,457.8,3398,right
44,1,binary,40,2,trial,9447759.0,9449377.0,1618.0,40,R,9448561,9448831,272,491.3,498.9,3417,left
44,1,binary,40,2,trial,9447759.0,9449377.0,1618.0,40,R,9448893,9449085,194,1368.2,442.8,3473,right
44,1,binary,40,2,postResponse,9447759.0,9449377.0,1618.0,40,R,9449097,9449709,614,1394.3,435.1,3506,right
44,1,binary,41,1,fixationCross,9450276.0,9451910.0,1634.0,41,R,9449783,9449949,168,1185.3,424.9,3514,right
44,1,binary,41,1,fixationCross,9450276.0,9451910.0,1634.0,41,R,9449983,9450191,210,940.9,444.9,3642,NA
44,1,binary,41,1,trial,9450276.0,9451910.0,1634.0,41,R,9450225,9450511,288,944.9,538.9,3808,NA
44,1,binary,41,1,trial,9450276.0,9451910.0,1634.0,41,R,9450553,9450785,234,601.2,534.0,3582,left
44,1,binary,41,1,trial,9450276.0,9451910.0,1634.0,41,R,9450841,9451061,222,1341.4,522.4,3515,right
44,1,binary,41,1,trial,9450276.0,9451910.0,1634.0,41,R,9451087,9451217,132,1458.0,485.6,3528,right
44,1,binary,41,1,trial,9450276.0,9451910.0,1634.0,41,R,9451283,9451617,336,517.4,527.9,3504,left
44,1,binary,41,1,trial,9450276.0,9451910.0,1634.0,41,R,9451641,9451787,148,618.0,587.5,3470,left
44,1,binary,41,1,postResponse,9450276.0,9451910.0,1634.0,41,R,9451811,9452243,434,473.6,499.7,3314,left
44,1,binary,42,2,fixationCross,9452826.0,9454460.0,1634.0,42,R,9452343,9452391,50,474.2,495.9,3300,left
44,1,binary,42,2,fixationCross,9452826.0,9454460.0,1634.0,42,R,9452441,9452733,294,971.7,474.3,3332,NA
44,1,binary,42,2,trial,9452826.0,9454460.0,1634.0,42,R,9452755,9453037,284,939.7,539.3,3479,NA
44,1,binary,42,2,trial,9452826.0,9454460.0,1634.0,42,R,9453075,9453299,226,1378.9,522.9,3422,right
44,1,binary,42,2,trial,9452826.0,9454460.0,1634.0,42,R,9453321,9453491,172,1463.1,603.3,3432,right
44,1,binary,42,2,trial,9452826.0,9454460.0,1634.0,42,R,9453643,9453855,214,439.1,535.0,3487,left
44,1,binary,42,2,trial,9452826.0,9454460.0,1634.0,42,R,9453919,9454387,470,1443.6,551.0,3551,right
44,1,binary,42,2,postResponse,9452826.0,9454460.0,1634.0,42,R,9454407,9454791,386,1530.2,568.6,3533,right
44,1,binary,43,2,fixationCross,9455409.0,9457210.0,1801.0,43,R,9454865,9455097,234,1221.0,487.9,3628,right
44,1,binary,43,2,fixationCross,9455409.0,9457210.0,1801.0,43,R,9455123,9455283,162,1002.9,516.4,3653,NA
44,1,binary,43,2,trial,9455409.0,9457210.0,1801.0,43,R,9455299,9455575,278,950.1,542.1,3653,NA
44,1,binary,43,2,trial,9455409.0,9457210.0,1801.0,43,R,9455633,9455913,282,526.8,507.2,3560,left
44,1,binary,43,2,trial,9455409.0,9457210.0,1801.0,43,R,9455939,9456127,190,402.2,537.5,3551,left
44,1,binary,43,2,trial,9455409.0,9457210.0,1801.0,43,R,9456191,9456417,228,1395.5,539.3,3463,right
44,1,binary,43,2,postResponse,9455409.0,9457210.0,1801.0,43,R,9456439,9457543,1106,1482.4,538.7,3348,right
44,1,binary,44,1,fixationCross,9458309.0,9459910.0,1601.0,44,R,9457643,9457841,200,1322.0,494.0,3460,right
44,1,binary,44,1,fixationCross,9458309.0,9459910.0,1601.0,44,R,9457871,9458005,136,1078.4,506.2,3556,NA
44,1,binary,44,1,fixationCross,9458309.0,9459910.0,1601.0,44,R,9458029,9458261,234,960.3,537.4,3745,NA
44,1,binary,44,1,trial,9458309.0,9459910.0,1601.0,44,R,9458441,9458593,154,968.7,557.8,3850,NA
44,1,binary,44,1,trial,9458309.0,9459910.0,1601.0,44,R,9458639,9458797,160,486.8,494.9,3968,left
44,1,binary,44,1,trial,9458309.0,9459910.0,1601.0,44,R,9458831,9459129,300,393.7,491.1,3773,left
44,1,binary,44,1,trial,9458309.0,9459910.0,1601.0,44,R,9459215,9459533,320,1365.4,586.4,3509,right
44,1,binary,44,1,trial,9458309.0,9459910.0,1601.0,44,R,9459547,9459703,158,1314.2,577.8,3644,right
44,1,binary,44,1,postResponse,9458309.0,9459910.0,1601.0,44,R,9459769,9460243,476,404.2,513.3,3648,left
44,1,binary,45,1,fixationCross,9460926.0,9463126.0,2200.0,45,R,9460493,9460645,154,1068.3,509.0,3620,NA
44,1,binary,45,1,trial,9460926.0,9463126.0,2200.0,45,R,9460669,9461153,486,957.0,544.4,4020,NA
44,1,binary,45,1,trial,9460926.0,9463126.0,2200.0,45,R,9461197,9461391,196,1429.4,539.0,3675,right
44,1,binary,45,1,trial,9460926.0,9463126.0,2200.0,45,R,9461453,9461791,340,556.3,515.0,3798,left
44,1,binary,45,1,trial,9460926.0,9463126.0,2200.0,45,R,9461855,9462099,246,1451.4,539.9,3706,right
44,1,binary,45,1,trial,9460926.0,9463126.0,2200.0,45,R,9462113,9462655,544,1469.9,518.4,3652,right
44,1,binary,45,1,postResponse,9460926.0,9463126.0,2200.0,45,R,9462721,9463461,742,533.8,527.5,3584,left
44,1,binary,46,1,fixationCross,9464026.0,9466093.0,2067.0,46,R,9463537,9463681,146,618.7,476.3,3631,left
44,1,binary,46,1,fixationCross,9464026.0,9466093.0,2067.0,46,R,9463721,9463993,274,955.7,478.8,3724,NA
44,1,binary,46,1,trial,9464026.0,9466093.0,2067.0,46,R,9464017,9464207,192,941.2,560.0,3830,NA
44,1,binary,46,1,trial,9464026.0,9466093.0,2067.0,46,R,9464257,9464499,244,1427.9,496.0,3768,right
44,1,binary,46,1,trial,9464026.0,9466093.0,2067.0,46,R,9464521,9464649,130,1490.2,523.1,3758,right
44,1,binary,46,1,trial,9464026.0,9466093.0,2067.0,46,R,9464791,9464981,192,1421.8,519.1,3693,right
44,1,binary,46,1,trial,9464026.0,9466093.0,2067.0,46,R,9465045,9465593,550,652.8,591.6,3807,left
44,1,binary,46,1,trial,9464026.0,9466093.0,2067.0,46,R,9465653,9465883,232,1469.0,502.3,3508,right
44,1,binary,46,1,trial,9464026.0,9466093.0,2067.0,46,R,9465945,9466053,110,677.0,723.4,3719,left
44,1,binary,46,1,postResponse,9464026.0,9466093.0,2067.0,46,R,9466111,9466429,320,485.2,479.8,3645,left
44,1,binary,47,1,fixationCross,9466993.0,9469027.0,2034.0,47,R,9466529,9466595,68,486.5,485.1,3548,left
44,1,binary,47,1,fixationCross,9466993.0,9469027.0,2034.0,47,R,9466641,9466931,292,943.4,509.2,3608,NA
44,1,binary,47,1,trial,9466993.0,9469027.0,2034.0,47,R,9466943,9467219,278,964.2,537.8,3679,NA
44,1,binary,47,1,trial,9466993.0,9469027.0,2034.0,47,R,9467259,9467593,336,1355.7,461.3,3701,right
44,1,binary,47,1,trial,9466993.0,9469027.0,2034.0,47,R,9467617,9467887,272,1467.5,490.7,3736,right
44,1,binary,47,1,trial,9466993.0,9469027.0,2034.0,47,R,9467909,9468089,182,1413.6,408.5,3674,right
44,1,binary,47,1,postResponse,9466993.0,9469027.0,2034.0,47,R,9468151,9469359,1210,614.8,486.8,3555,left
44,1,binary,48,2,fixationCross,9470093.0,9471427.0,1334.0,48,R,9469433,9469503,72,605.1,486.6,3565,left
44,1,binary,48,2,fixationCross,9470093.0,9471427.0,1334.0,48,R,9469529,9469773,246,837.4,483.8,3561,NA
44,1,binary,48,2,fixationCross,9470093.0,9471427.0,1334.0,48,R,9469797,9470085,290,950.7,547.1,3642,NA
44,1,binary,48,2,trial,9470093.0,9471427.0,1334.0,48,R,9470103,9470245,144,894.9,522.1,3702,NA
44,1,binary,48,2,trial,9470093.0,9471427.0,1334.0,48,R,9470381,9470561,182,507.7,519.3,3541,left
44,1,binary,48,2,trial,9470093.0,9471427.0,1334.0,48,R,9470619,9470815,198,1341.4,505.6,3672,right
44,1,binary,48,2,trial,9470093.0,9471427.0,1334.0,48,R,9470841,9471203,364,1501.2,593.3,3509,right
44,1,binary,48,2,trial,9470093.0,9471427.0,1334.0,48,R,9471217,9471475,260,1532.3,615.7,3407,right
44,1,binary,48,2,postResponse,9470093.0,9471427.0,1334.0,48,R,9471489,9471761,274,1484.0,591.3,3440,right
44,1,binary,49,1,fixationCross,9472327.0,9474043.0,1716.0,49,R,9471835,9471961,128,1481.3,583.8,3500,right
44,1,binary,49,1,trial,9472327.0,9474043.0,1716.0,49,R,9472013,9472497,486,947.1,553.5,3643,NA
44,1,binary,49,1,trial,9472327.0,9474043.0,1716.0,49,R,9472545,9472705,162,493.3,494.0,3527,left
44,1,binary,49,1,trial,9472327.0,9474043.0,1716.0,49,R,9472719,9472815,98,505.0,464.5,3436,left
44,1,binary,49,1,trial,9472327.0,9474043.0,1716.0,49,R,9472879,9473287,410,1447.2,480.4,3395,right
44,1,binary,49,1,trial,9472327.0,9474043.0,1716.0,49,R,9473297,9473437,142,1466.6,507.5,3383,right
44,1,binary,49,1,trial,9472327.0,9474043.0,1716.0,49,R,9473501,9473699,200,538.8,466.6,3375,left
44,1,binary,49,1,trial,9472327.0,9474043.0,1716.0,49,R,9473711,9474325,616,503.0,450.7,3225,left
44,1,binary,50,1,fixationCross,9475093.0,9477409.0,2316.0,50,R,9474541,9474769,230,522.8,431.0,3262,left
44,1,binary,50,1,trial,9475093.0,9477409.0,2316.0,50,R,9474819,9475129,312,943.3,521.3,3618,NA
44,1,binary,50,1,trial,9475093.0,9477409.0,2316.0,50,R,9475151,9475321,172,926.6,460.4,3507,NA
44,1,binary,50,1,trial,9475093.0,9477409.0,2316.0,50,R,9475359,9475571,214,1363.5,561.1,3423,right
44,1,binary,50,1,trial,9475093.0,9477409.0,2316.0,50,R,9475595,9475743,150,1498.5,573.0,3488,right
44,1,binary,50,1,trial,9475093.0,9477409.0,2316.0,50,R,9475811,9476089,280,531.3,465.8,3505,left
44,1,binary,50,1,trial,9475093.0,9477409.0,2316.0,50,R,9476117,9476245,130,479.9,566.5,3539,left
44,1,binary,50,1,trial,9475093.0,9477409.0,2316.0,50,R,9476311,9476665,356,1444.8,613.0,3582,right
44,1,binary,50,1,trial,9475093.0,9477409.0,2316.0,50,R,9476687,9476961,276,1341.8,573.6,3763,right
44,1,binary,50,1,trial,9475093.0,9477409.0,2316.0,50,R,9477021,9477643,624,529.0,535.4,3933,left
44,1,binary,50,1,postResponse,9475093.0,9477409.0,2316.0,50,R,9477661,9477741,82,524.5,477.0,3797,left
44,2,continuous,1,95,fixationCross,9558327.0,9561478.0,3151.0,51,R,9557649,9558031,384,1064.7,508.7,3972,NA
44,2,continuous,1,95,fixationCross,9558327.0,9561478.0,3151.0,51,R,9558057,9558195,140,958.4,550.4,4051,NA
44,2,continuous,1,95,trial,9558327.0,9561478.0,3151.0,51,R,9558369,9558807,440,960.0,526.0,4285,NA
44,2,continuous,1,95,trial,9558327.0,9561478.0,3151.0,51,R,9558857,9559007,152,1004.1,971.7,4242,likertHorizontal
44,2,continuous,1,95,trial,9558327.0,9561478.0,3151.0,51,R,9559061,9559195,136,1425.8,1024.8,4074,NA
44,2,continuous,1,95,trial,9558327.0,9561478.0,3151.0,51,R,9559261,9559379,120,1435.7,542.2,4134,right
44,2,continuous,1,95,trial,9558327.0,9561478.0,3151.0,51,R,9559449,9559747,300,522.7,534.1,4195,left
44,2,continuous,1,95,trial,9558327.0,9561478.0,3151.0,51,R,9559763,9559871,110,470.6,540.2,4119,left
44,2,continuous,1,95,trial,9558327.0,9561478.0,3151.0,51,R,9559937,9560051,116,1353.0,982.0,3877,NA
44,2,continuous,1,95,trial,9558327.0,9561478.0,3151.0,51,R,9560073,9560241,170,1424.9,1024.6,3865,NA
44,2,continuous,1,95,trial,9558327.0,9561478.0,3151.0,51,R,9560265,9560597,334,1335.1,968.9,4097,NA
44,2,continuous,1,95,trial,9558327.0,9561478.0,3151.0,51,R,9560651,9560867,218,1414.8,581.0,4183,right
44,2,continuous,1,95,trial,9558327.0,9561478.0,3151.0,51,R,9560889,9561037,150,1430.7,556.6,4254,right
44,2,continuous,1,95,trial,9558327.0,9561478.0,3151.0,51,R,9561115,9561359,246,485.3,512.1,4352,left
44,2,continuous,1,95,trial,9558327.0,9561478.0,3151.0,51,R,9561377,9561749,374,518.3,536.1,4159,left
44,2,continuous,1,95,postResponse,9558327.0,9561478.0,3151.0,51,R,9561773,9561809,38,650.7,510.0,4061,left
44,2,continuous,2,24,fixationCross,9562361.0,9565011.0,2650.0,52,R,9561883,9561939,58,660.2,506.7,4073,left
44,2,continuous,2,24,fixationCross,9562361.0,9565011.0,2650.0,52,R,9561977,9562269,294,918.6,524.6,4171,NA
44,2,continuous,2,24,trial,9562361.0,9565011.0,2650.0,52,R,9562281,9562371,92,953.6,537.6,4295,NA
44,2,continuous,2,24,trial,9562361.0,9565011.0,2650.0,52,R,9562615,9562785,172,958.3,518.9,4422,NA
44,2,continuous,2,24,trial,9562361.0,9565011.0,2650.0,52,R,9562825,9563029,206,1386.5,489.8,4507,right
44,2,continuous,2,24,trial,9562361.0,9565011.0,2650.0,52,R,9563053,9563197,146,1583.2,499.0,4345,right
44,2,continuous,2,24,trial,9562361.0,9565011.0,2650.0,52,R,9563267,9563619,354,519.9,484.1,4210,left
44,2,continuous,2,24,trial,9562361.0,9565011.0,2650.0,52,R,9563647,9563831,186,514.2,647.9,4213,left
44,2,continuous,2,24,trial,9562361.0,9565011.0,2650.0,52,R,9563855,9563969,116,611.7,693.1,4190,left
44,2,continuous,2,24,trial,9562361.0,9565011.0,2650.0,52,R,9564015,9564159,146,788.2,1031.3,4223,likertHorizontal
44,2,continuous,2,24,trial,9562361.0,9565011.0,2650.0,52,R,9564185,9564363,180,616.4,979.4,4164,NA
44,2,continuous,2,24,trial,9562361.0,9565011.0,2650.0,52,R,9564385,9564579,196,729.0,966.8,4237,NA
44,2,continuous,2,24,trial,9562361.0,9565011.0,2650.0,52,R,9564637,9564843,208,699.6,576.7,4345,left
44,2,continuous,2,24,postResponse,9562361.0,9565011.0,2650.0,52,R,9564889,9565357,470,628.1,420.2,4180,left
44,2,continuous,3,14,fixationCross,9565894.0,9568861.0,2967.0,53,R,9565431,9565581,152,667.8,424.2,4061,left
44,2,continuous,3,14,fixationCross,9565894.0,9568861.0,2967.0,53,R,9565609,9565799,192,930.8,499.4,4079,NA
44,2,continuous,3,14,trial,9565894.0,9568861.0,2967.0,53,R,9565821,9566115,296,971.6,540.9,4148,NA
44,2,continuous,3,14,trial,9565894.0,9568861.0,2967.0,53,R,9566159,9566575,418,1414.5,559.4,3932,right
44,2,continuous,3,14,trial,9565894.0,9568861.0,2967.0,53,R,9566637,9566793,158,535.7,451.9,3865,left
44,2,continuous,3,14,trial,9565894.0,9568861.0,2967.0,53,R,9566817,9567117,302,522.0,390.1,3720,left
44,2,continuous,3,14,trial,9565894.0,9568861.0,2967.0,53,R,9567177,9567601,426,801.6,975.3,3984,likertHorizontal
44,2,continuous,3,14,trial,9565894.0,9568861.0,2967.0,53,R,9567645,9567795,152,616.2,606.3,4152,left
44,2,continuous,3,14,trial,9565894.0,9568861.0,2967.0,53,R,9567853,9568049,198,1408.3,583.6,4067,right
44,2,continuous,3,14,trial,9565894.0,9568861.0,2967.0,53,R,9568059,9568439,382,1404.2,563.8,4047,right
44,2,continuous,3,14,trial,9565894.0,9568861.0,2967.0,53,R,9568469,9568575,108,1533.2,630.2,3841,right
44,2,continuous,3,14,trial,9565894.0,9568861.0,2967.0,53,R,9568647,9568835,190,542.1,751.1,3853,NA
44,2,continuous,3,14,trial,9565894.0,9568861.0,2967.0,53,R,9568877,9569107,232,583.8,988.6,3965,NA
44,2,continuous,3,14,postResponse,9565894.0,9568861.0,2967.0,53,R,9569161,9569195,36,990.9,419.1,3989,NA
44,2,continuous,4,75,fixationCross,9569778.0,9572411.0,2633.0,54,R,9569269,9569417,150,985.9,416.1,3974,NA
44,2,continuous,4,75,fixationCross,9569778.0,9572411.0,2633.0,54,R,9569451,9569669,220,957.8,486.3,4027,NA
44,2,continuous,4,75,trial,9569778.0,9572411.0,2633.0,54,R,9569695,9570075,382,952.0,534.5,4141,NA
44,2,continuous,4,75,trial,9569778.0,9572411.0,2633.0,54,R,9570099,9570239,142,1143.6,538.5,4002,NA
44,2,continuous,4,75,trial,9569778.0,9572411.0,2633.0,54,R,9570267,9570383,118,1403.3,541.0,3935,right
44,2,continuous,4,75,trial,9569778.0,9572411.0,2633.0,54,R,9570443,9570713,272,537.8,521.5,4027,left
44,2,continuous,4,75,trial,9569778.0,9572411.0,2633.0,54,R,9570739,9570997,260,417.8,532.4,3898,left
44,2,continuous,4,75,trial,9569778.0,9572411.0,2633.0,54,R,9571139,9571567,430,1419.8,537.7,3857,right
44,2,continuous,4,75,trial,9569778.0,9572411.0,2633.0,54,R,9571579,9571689,112,1442.4,548.8,3973,right
44,2,continuous,4,75,trial,9569778.0,9572411.0,2633.0,54,R,9571735,9571951,218,1206.6,906.3,3841,NA
44,2,continuous,4,75,trial,9569778.0,9572411.0,2633.0,54,R,9571975,9572149,176,1172.9,959.3,3775,likertHorizontal
44,2,continuous,4,75,trial,9569778.0,9572411.0,2633.0,54,R,9572177,9572339,164,1391.7,986.5,3840,NA
44,2,continuous,4,75,trial,9569778.0,9572411.0,2633.0,54,R,9572365,9572635,272,1217.1,964.8,4029,NA
44,2,continuous,5,38,fixationCross,9573311.0,9576061.0,2750.0,55,R,9572821,9572971,152,828.9,477.2,4166,NA
44,2,continuous,5,38,fixationCross,9573311.0,9576061.0,2750.0,55,R,9572997,9573261,266,935.8,507.4,4314,NA
44,2,continuous,5,38,trial,9573311.0,9576061.0,2750.0,55,R,9573275,9573543,270,960.9,534.9,4097,NA
44,2,continuous,5,38,trial,9573311.0,9576061.0,2750.0,55,R,9573587,9573917,332,1448.9,505.1,3729,right
44,2,continuous,5,38,trial,9573311.0,9576061.0,2750.0,55,R,9573981,9574195,216,517.5,542.8,3749,left
44,2,continuous,5,38,trial,9573311.0,9576061.0,2750.0,55,R,9574211,9575089,880,477.2,563.6,3681,left
44,2,continuous,5,38,trial,9573311.0,9576061.0,2750.0,55,R,9575157,9575539,384,1448.9,483.9,3493,right
44,2,continuous,5,38,trial,9573311.0,9576061.0,2750.0,55,R,9575595,9575819,226,773.2,949.4,3743,likertHorizontal
44,2,continuous,5,38,trial,9573311.0,9576061.0,2750.0,55,R,9575869,9576017,150,679.1,604.8,3773,left
44,2,continuous,5,38,postResponse,9573311.0,9576061.0,2750.0,55,R,9576053,9576395,344,497.3,552.5,3903,left
44,2,continuous,6,79,fixationCross,9576978.0,9579127.0,2149.0,56,R,9576497,9576605,110,487.6,535.1,3925,left
44,2,continuous,6,79,fixationCross,9576978.0,9579127.0,2149.0,56,R,9576655,9576889,236,962.6,509.9,3943,NA
44,2,continuous,6,79,trial,9576978.0,9579127.0,2149.0,56,R,9576901,9577243,344,944.5,536.9,4035,NA
44,2,continuous,6,79,trial,9576978.0,9579127.0,2149.0,56,R,9577289,9577503,216,1424.4,579.5,3850,right
44,2,continuous,6,79,trial,9576978.0,9579127.0,2149.0,56,R,9577523,9577613,92,1443.2,554.7,3797,right
44,2,continuous,6,79,trial,9576978.0,9579127.0,2149.0,56,R,9577681,9577893,214,499.0,533.7,3832,left
44,2,continuous,6,79,trial,9576978.0,9579127.0,2149.0,56,R,9577913,9578185,274,527.7,497.5,3709,left
44,2,continuous,6,79,trial,9576978.0,9579127.0,2149.0,56,R,9578249,9579025,778,1432.9,558.7,3507,right
44,2,continuous,6,79,trial,9576978.0,9579127.0,2149.0,56,R,9579053,9579413,362,1317.7,614.0,3732,right
44,2,continuous,7,93,fixationCross,9580061.0,9583178.0,3117.0,57,R,9579777,9579891,116,894.2,540.2,3844,NA
44,2,continuous,7,93,trial,9580061.0,9583178.0,3117.0,57,R,9579915,9580297,384,957.5,539.3,4105,NA
44,2,continuous,7,93,trial,9580061.0,9583178.0,3117.0,57,R,9580341,9580557,218,1371.7,592.8,3820,right
44,2,continuous,7,93,trial,9580061.0,9583178.0,3117.0,57,R,9580571,9580745,176,1335.7,611.8,3775,right
44,2,continuous,7,93,trial,9580061.0,9583178.0,3117.0,57,R,9580803,9581117,316,576.4,512.6,3783,left
44,2,continuous,7,93,trial,9580061.0,9583178.0,3117.0,57,R,9581127,9581395,270,598.5,499.1,3715,left
44,2,continuous,7,93,trial,9580061.0,9583178.0,3117.0,57,R,9581419,9581621,204,450.5,485.9,3634,left
44,2,continuous,7,93,trial,9580061.0,9583178.0,3117.0,57,R,9581687,9581899,214,1338.3,585.5,3741,right
44,2,continuous,7,93,trial,9580061.0,9583178.0,3117.0,57,R,9581911,9582073,164,1328.6,609.5,3775,right
44,2,continuous,7,93,trial,9580061.0,9583178.0,3117.0,57,R,9582101,9582505,406,1535.1,594.8,3639,right
44,2,continuous,7,93,trial,9580061.0,9583178.0,3117.0,57,R,9582529,9582813,286,1375.6,570.5,3652,right
44,2,continuous,7,93,trial,9580061.0,9583178.0,3117.0,57,R,9582831,9583161,332,1323.3,604.1,3894,right
44,2,continuous,7,93,trial,9580061.0,9583178.0,3117.0,57,R,9583173,9583451,280,1286.0,598.8,4018,right
44,2,continuous,7,93,postResponse,9580061.0,9583178.0,3117.0,57,R,9583477,9583507,32,1127.1,553.7,3967,NA
44,2,continuous,8,19,trial,9584061.0,9586145.0,2084.0,58,R,9583609,9584393,786,952.7,534.4,3799,NA
44,2,continuous,8,19,trial,9584061.0,9586145.0,2084.0,58,R,9584437,9584623,188,574.0,505.5,3667,left
44,2,continuous,8,19,trial,9584061.0,9586145.0,2084.0,58,R,9584685,9585189,506,1427.9,530.6,3744,right
44,2,continuous,8,19,trial,9584061.0,9586145.0,2084.0,58,R,9585251,9585477,228,546.9,485.5,3679,left
44,2,continuous,8,19,trial,9584061.0,9586145.0,2084.0,58,R,9585513,9585835,324,427.7,551.5,3624,left
44,2,continuous,8,19,postResponse,9584061.0,9586145.0,2084.0,58,R,9585859,9586479,622,531.4,488.9,3611,left
44,2,continuous,9,2,fixationCross,9587045.0,9588978.0,1933.0,59,R,9586555,9586669,116,528.9,481.9,3659,left
44,2,continuous,9,2,fixationCross,9587045.0,9588978.0,1933.0,59,R,9586719,9586937,220,928.5,527.9,3668,NA
44,2,continuous,9,2,trial,9587045.0,9588978.0,1933.0,59,R,9586951,9587269,320,957.7,545.6,3724,NA
44,2,continuous,9,2,trial,9587045.0,9588978.0,1933.0,59,R,9587315,9587517,204,1456.3,526.9,3617,right
44,2,continuous,9,2,trial,9587045.0,9588978.0,1933.0,59,R,9587531,9587679,150,1491.3,545.7,3599,right
44,2,continuous,9,2,trial,9587045.0,9588978.0,1933.0,59,R,9587743,9588585,844,523.3,547.0,3706,left
44,2,continuous,9,2,postResponse,9587045.0,9588978.0,1933.0,59,R,9588605,9589313,710,493.4,576.1,4002,left
44,2,continuous,10,22,fixationCross,9589877.0,9591944.0,2067.0,60,R,9589529,9589737,210,931.1,532.8,3943,NA
44,2,continuous,10,22,trial,9589877.0,9591944.0,2067.0,60,R,9589751,9590111,362,961.4,543.7,4156,NA
44,2,continuous,10,22,trial,9589877.0,9591944.0,2067.0,60,R,9590153,9590471,320,1412.7,530.1,3786,right
44,2,continuous,10,22,trial,9589877.0,9591944.0,2067.0,60,R,9590529,9590879,352,571.8,511.9,3791,left
44,2,continuous,10,22,trial,9589877.0,9591944.0,2067.0,60,R,9590905,9591177,274,427.2,546.3,3793,left
44,2,continuous,10,22,postResponse,9589877.0,9591944.0,2067.0,60,R,9591205,9592281,1078,602.9,579.0,3844,left
44,2,continuous,11,17,fixationCross,9592878.0,9596078.0,3200.0,61,R,9592521,9592773,254,943.1,551.9,3874,NA
44,2,continuous,11,17,trial,9592878.0,9596078.0,3200.0,61,R,9592791,9593099,310,959.9,536.7,4097,NA
44,2,continuous,11,17,trial,9592878.0,9596078.0,3200.0,61,R,9593139,9593289,152,1376.5,537.9,3768,right
44,2,continuous,11,17,trial,9592878.0,9596078.0,3200.0,61,R,9593315,9593525,212,1550.5,490.3,3674,right
44,2,continuous,11,17,trial,9592878.0,9596078.0,3200.0,61,R,9593597,9594057,462,459.9,551.6,3768,left
44,2,continuous,11,17,trial,9592878.0,9596078.0,3200.0,61,R,9594075,9594329,256,448.1,600.0,3661,left
44,2,continuous,11,17,trial,9592878.0,9596078.0,3200.0,61,R,9594397,9594525,130,1458.0,520.8,3663,right
44,2,continuous,11,17,trial,9592878.0,9596078.0,3200.0,61,R,9594549,9594707,160,1525.1,500.7,3697,right
44,2,continuous,11,17,trial,9592878.0,9596078.0,3200.0,61,R,9594737,9594923,188,1347.9,574.7,3759,right
44,2,continuous,11,17,trial,9592878.0,9596078.0,3200.0,61,R,9594983,9595781,800,667.6,970.3,3928,NA
44,2,continuous,11,17,trial,9592878.0,9596078.0,3200.0,61,R,9595839,9596305,468,522.4,572.2,4025,left
44,2,continuous,11,17,postResponse,9592878.0,9596078.0,3200.0,61,R,9596323,9596413,92,542.0,532.8,3872,left
44,2,continuous,12,65,trial,9597011.0,9599428.0,2417.0,62,R,9596571,9597231,662,946.0,530.7,3789,NA
44,2,continuous,12,65,trial,9597011.0,9599428.0,2417.0,62,R,9597271,9597455,186,557.9,558.5,3723,left
44,2,continuous,12,65,trial,9597011.0,9599428.0,2417.0,62,R,9597473,9597787,316,492.1,544.7,3679,left
44,2,continuous,12,65,trial,9597011.0,9599428.0,2417.0,62,R,9597857,9597993,138,1476.2,473.9,3527,right
44,2,continuous,12,65,trial,9597011.0,9599428.0,2417.0,62,R,9598019,9598367,350,1622.8,438.2,3449,right
44,2,continuous,12,65,trial,9597011.0,9599428.0,2417.0,62,R,9598405,9598721,318,1266.4,517.5,3471,right
44,2,continuous,12,65,trial,9597011.0,9599428.0,2417.0,62,R,9598769,9599063,296,1097.3,930.1,3639,likertHorizontal
44,2,continuous,12,65,trial,9597011.0,9599428.0,2417.0,62,R,9599117,9599403,288,521.4,562.4,3905,left
44,2,continuous,12,65,postResponse,9597011.0,9599428.0,2417.0,62,R,9599453,9599763,312,1093.4,489.1,3769,NA
44,2,continuous,13,3,fixationCross,9600361.0,9603728.0,3367.0,63,R,9599863,9599989,128,1088.1,491.0,3798,NA
44,2,continuous,13,3,fixationCross,9600361.0,9603728.0,3367.0,63,R,9600011,9600227,218,959.4,504.8,3787,NA
44,2,continuous,13,3,trial,9600361.0,9603728.0,3367.0,63,R,9600239,9600583,346,934.8,539.3,3784,NA
44,2,continuous,13,3,trial,9600361.0,9603728.0,3367.0,63,R,9600627,9600817,192,1381.5,514.0,3643,right
44,2,continuous,13,3,trial,9600361.0,9603728.0,3367.0,63,R,9600985,9601069,86,1442.9,513.8,3613,right
44,2,continuous,13,3,trial,9600361.0,9603728.0,3367.0,63,R,9601133,9601383,252,507.0,544.2,3889,left
44,2,continuous,13,3,trial,9600361.0,9603728.0,3367.0,63,R,9601401,9601661,262,524.7,580.7,3953,left
44,2,continuous,13,3,trial,9600361.0,9603728.0,3367.0,63,R,9601685,9602109,426,603.1,635.3,3837,left
44,2,continuous,13,3,trial,9600361.0,9603728.0,3367.0,63,R,9602135,9602473,340,460.7,588.8,4027,left
44,2,continuous,13,3,trial,9600361.0,9603728.0,3367.0,63,R,9602487,9602789,304,427.6,575.2,4134,left
44,2,continuous,13,3,trial,9600361.0,9603728.0,3367.0,63,R,9602811,9603621,812,503.4,618.6,4161,left
44,2,continuous,13,3,postResponse,9600361.0,9603728.0,3367.0,63,R,9603633,9604063,432,515.5,603.5,4134,left
44,2,continuous,14,88,fixationCross,9604628.0,9606745.0,2117.0,64,R,9604325,9604529,206,927.8,536.9,4021,NA
44,2,continuous,14,88,trial,9604628.0,9606745.0,2117.0,64,R,9604539,9604823,286,954.8,546.0,4194,NA
44,2,continuous,14,88,trial,9604628.0,9606745.0,2117.0,64,R,9604867,9605027,162,539.7,500.6,3966,left
44,2,continuous,14,88,trial,9604628.0,9606745.0,2117.0,64,R,9605045,9605173,130,476.9,499.4,3843,left
44,2,continuous,14,88,trial,9604628.0,9606745.0,2117.0,64,R,9605203,9605289,88,635.9,610.6,3881,left
44,2,continuous,14,88,trial,9604628.0,9606745.0,2117.0,64,R,9605345,9605675,332,1344.6,614.3,3741,right
44,2,continuous,14,88,trial,9604628.0,9606745.0,2117.0,64,R,9605701,9606295,596,1353.4,708.3,3746,right
44,2,continuous,14,88,trial,9604628.0,9606745.0,2117.0,64,R,9606315,9606579,266,1433.2,688.9,3931,right
44,2,continuous,14,88,postResponse,9604628.0,9606745.0,2117.0,64,R,9606607,9607079,474,1345.7,571.9,3976,right
44,2,continuous,15,76,fixationCross,9607628.0,9609845.0,2217.0,65,R,9607153,9607289,138,1344.9,556.7,3918,right
44,2,continuous,15,76,trial,9607628.0,9609845.0,2217.0,65,R,9607333,9607915,584,961.0,548.3,3937,NA
44,2,continuous,15,76,trial,9607628.0,9609845.0,2217.0,65,R,9607957,9608233,278,1414.9,552.0,3707,right
44,2,continuous,15,76,trial,9607628.0,9609845.0,2217.0,65,R,9608295,9608461,168,562.6,499.7,3792,left
44,2,continuous,15,76,trial,9607628.0,9609845.0,2217.0,65,R,9608481,9608823,344,490.4,501.6,3722,left
44,2,continuous,15,76,trial,9607628.0,9609845.0,2217.0,65,R,9608885,9609163,280,1346.2,540.0,3457,right
44,2,continuous,15,76,trial,9607628.0,9609845.0,2217.0,65,R,9609183,9609391,210,1406.6,566.8,3535,right
44,2,continuous,15,76,trial,9607628.0,9609845.0,2217.0,65,R,9609553,9609807,256,1411.5,559.8,3719,right
44,2,continuous,15,76,postResponse,9607628.0,9609845.0,2217.0,65,R,9609831,9610175,346,1258.3,532.2,3834,right
44,2,continuous,16,77,fixationCross,9610928.0,9614144.0,3216.0,66,R,9610293,9610425,134,944.3,545.4,3764,NA
44,2,continuous,16,77,fixationCross,9610928.0,9614144.0,3216.0,66,R,9610437,9610599,164,927.8,517.0,3734,NA
44,2,continuous,16,77,trial,9610928.0,9614144.0,3216.0,66,R,9610829,9611093,266,943.8,522.7,3954,NA
44,2,continuous,16,77,trial,9610928.0,9614144.0,3216.0,66,R,9611135,9611371,238,523.5,469.2,4123,left
44,2,continuous,16,77,trial,9610928.0,9614144.0,3216.0,66,R,9611385,9611631,248,485.4,486.7,3780,left
44,2,continuous,16,77,trial,9610928.0,9614144.0,3216.0,66,R,9611697,9611913,218,1444.9,527.6,3531,right
44,2,continuous,16,77,trial,9610928.0,9614144.0,3216.0,66,R,9611923,9612081,160,1468.2,526.1,3544,right
44,2,continuous,16,77,trial,9610928.0,9614144.0,3216.0,66,R,9612279,9612487,210,531.4,523.9,3961,left
44,2,continuous,16,77,trial,9610928.0,9614144.0,3216.0,66,R,9612503,9612709,208,498.9,502.3,4233,left
44,2,continuous,16,77,trial,9610928.0,9614144.0,3216.0,66,R,9612741,9612861,122,467.1,574.1,4226,left
44,2,continuous,16,77,trial,9610928.0,9614144.0,3216.0,66,R,9612891,9612963,74,696.2,478.8,4045,left
44,2,continuous,16,77,trial,9610928.0,9614144.0,3216.0,66,R,9613019,9613169,152,1383.1,510.2,3882,right
44,2,continuous,16,77,trial,9610928.0,9614144.0,3216.0,66,R,9613189,9613465,278,1449.5,518.8,4009,right
44,2,continuous,16,77,trial,9610928.0,9614144.0,3216.0,66,R,9613529,9613751,224,578.4,499.7,4229,left
44,2,continuous,16,77,trial,9610928.0,9614144.0,3216.0,66,R,9613777,9613919,144,722.8,476.3,4203,left
44,2,continuous,16,77,postResponse,9610928.0,9614144.0,3216.0,66,R,9613979,9614479,502,1386.4,558.1,4077,right
44,2,continuous,17,85,fixationCross,9615228.0,9617195.0,1967.0,67,R,9614675,9614915,242,691.3,490.6,4139,left
44,2,continuous,17,85,trial,9615228.0,9617195.0,1967.0,67,R,9614945,9615399,456,940.4,538.8,4155,NA
44,2,continuous,17,85,trial,9615228.0,9617195.0,1967.0,67,R,9615445,9615647,204,526.5,524.1,3849,left
44,2,continuous,17,85,trial,9615228.0,9617195.0,1967.0,67,R,9615707,9615943,238,1389.6,567.8,3661,right
44,2,continuous,17,85,trial,9615228.0,9617195.0,1967.0,67,R,9615959,9616437,480,1414.4,601.1,3502,right
44,2,continuous,17,85,trial,9615228.0,9617195.0,1967.0,67,R,9616461,9616785,326,1305.2,712.2,3682,right
44,2,continuous,17,85,trial,9615228.0,9617195.0,1967.0,67,R,9616809,9617023,216,1293.9,620.2,3808,right
44,2,continuous,17,85,postResponse,9615228.0,9617195.0,1967.0,67,R,9617041,9617553,514,1296.1,566.2,3860,right
44,2,continuous,18,73,fixationCross,9618144.0,9620562.0,2418.0,68,R,9617653,9617711,60,1293.2,562.0,3876,right
44,2,continuous,18,73,fixationCross,9618144.0,9620562.0,2418.0,68,R,9617745,9617995,252,1032.4,534.0,3987,NA
44,2,continuous,18,73,trial,9618144.0,9620562.0,2418.0,68,R,9618019,9618183,166,921.8,528.0,4042,NA
44,2,continuous,18,73,trial,9618144.0,9620562.0,2418.0,68,R,9618193,9618357,166,945.4,533.6,3936,NA
44,2,continuous,18,73,trial,9618144.0,9620562.0,2418.0,68,R,9618403,9618671,270,546.3,540.2,3845,left
44,2,continuous,18,73,trial,9618144.0,9620562.0,2418.0,68,R,9618693,9618927,236,444.2,519.5,3873,left
44,2,continuous,18,73,trial,9618144.0,9620562.0,2418.0,68,R,9618995,9619107,114,1459.6,699.9,3789,right
44,2,continuous,18,73,trial,9618144.0,9620562.0,2418.0,68,R,9619281,9619407,128,1403.7,533.8,3792,right
44,2,continuous,18,73,trial,9618144.0,9620562.0,2418.0,68,R,9619429,9619753,326,1380.7,473.5,4006,right
44,2,continuous,18,73,trial,9618144.0,9620562.0,2418.0,68,R,9619765,9620329,566,1366.5,449.9,3748,right
44,2,continuous,18,73,postResponse,9618144.0,9620562.0,2418.0,68,R,9620351,9620897,548,1330.4,504.8,3915,right
44,2,continuous,19,46,fixationCross,9621628.0,9624228.0,2600.0,69,R,9621121,9621309,190,1093.4,463.3,4127,NA
44,2,continuous,19,46,trial,9621628.0,9624228.0,2600.0,69,R,9621339,9621803,466,941.1,535.2,4339,NA
44,2,continuous,19,46,trial,9621628.0,9624228.0,2600.0,69,R,9621859,9621987,130,537.3,503.0,3862,left
44,2,continuous,19,46,trial,9621628.0,9624228.0,2600.0,69,R,9622013,9622217,206,400.0,427.9,3653,left
44,2,continuous,19,46,trial,9621628.0,9624228.0,2600.0,69,R,9622285,9622557,274,1454.5,489.3,3647,right
44,2,continuous,19,46,trial,9621628.0,9624228.0,2600.0,69,R,9622571,9622861,292,1403.8,492.1,3700,right
44,2,continuous,19,46,trial,9621628.0,9624228.0,2600.0,69,R,9622923,9623069,148,653.2,667.9,3774,left
44,2,continuous,19,46,trial,9621628.0,9624228.0,2600.0,69,R,9623095,9623339,246,488.6,605.5,3794,left
44,2,continuous,19,46,trial,9621628.0,9624228.0,2600.0,69,R,9623349,9623649,302,462.6,604.3,3925,left
44,2,continuous,19,46,trial,9621628.0,9624228.0,2600.0,69,R,9623679,9623935,258,410.8,436.0,3757,left
44,2,continuous,19,46,trial,9621628.0,9624228.0,2600.0,69,R,9623987,9624169,184,896.4,951.4,3848,likertHorizontal
44,2,continuous,19,46,postResponse,9621628.0,9624228.0,2600.0,69,R,9624223,9624563,342,1428.4,495.0,3769,right
44,2,continuous,20,39,fixationCross,9625362.0,9628361.0,2999.0,70,R,9624775,9624927,154,883.8,456.0,3793,NA
44,2,continuous,20,39,fixationCross,9625362.0,9628361.0,2999.0,70,R,9625147,9625355,210,951.9,494.8,4138,NA
44,2,continuous,20,39,trial,9625362.0,9628361.0,2999.0,70,R,9625367,9625559,194,958.7,528.7,4274,NA
44,2,continuous,20,39,trial,9625362.0,9628361.0,2999.0,70,R,9625605,9625811,208,520.4,549.5,4092,left
44,2,continuous,20,39,trial,9625362.0,9628361.0,2999.0,70,R,9625835,9626013,180,417.9,489.7,3830,left
44,2,continuous,20,39,trial,9625362.0,9628361.0,2999.0,70,R,9626077,9626289,214,1369.7,473.3,3740,right
44,2,continuous,20,39,trial,9625362.0,9628361.0,2999.0,70,R,9626317,9626613,298,1513.3,475.2,3687,right
44,2,continuous,20,39,trial,9625362.0,9628361.0,2999.0,70,R,9626681,9626969,290,503.8,524.1,3731,left
44,2,continuous,20,39,trial,9625362.0,9628361.0,2999.0,70,R,9626991,9627275,286,502.6,582.7,3743,left
44,2,continuous,20,39,trial,9625362.0,9628361.0,2999.0,70,R,9627299,9627503,206,422.4,487.5,3643,left
44,2,continuous,20,39,trial,9625362.0,9628361.0,2999.0,70,R,9627569,9627765,198,1405.2,492.8,3713,right
44,2,continuous,20,39,trial,9625362.0,9628361.0,2999.0,70,R,9627785,9628043,260,1339.6,480.7,3860,right
44,2,continuous,20,39,trial,9625362.0,9628361.0,2999.0,70,R,9628091,9628235,146,886.7,895.9,4007,likertHorizontal
44,2,continuous,20,39,trial,9625362.0,9628361.0,2999.0,70,R,9628287,9628585,300,516.9,534.7,3909,left
44,2,continuous,21,91,fixationCross,9629462.0,9631962.0,2500.0,71,R,9628785,9628987,204,620.4,482.6,3969,left
44,2,continuous,21,91,fixationCross,9629462.0,9631962.0,2500.0,71,R,9629011,9629165,156,807.3,498.1,4182,NA
44,2,continuous,21,91,trial,9629462.0,9631962.0,2500.0,71,R,9629191,9629689,500,955.8,532.7,3902,NA
44,2,continuous,21,91,trial,9629462.0,9631962.0,2500.0,71,R,9629735,9630005,272,1336.0,487.0,3633,right
44,2,continuous,21,91,trial,9629462.0,9631962.0,2500.0,71,R,9630021,9630365,346,1380.0,472.9,3663,right
44,2,continuous,21,91,trial,9629462.0,9631962.0,2500.0,71,R,9630429,9630883,456,581.1,504.7,3662,left
44,2,continuous,21,91,trial,9629462.0,9631962.0,2500.0,71,R,9630935,9631163,230,1119.7,914.2,3730,likertHorizontal
44,2,continuous,21,91,postResponse,9629462.0,9631962.0,2500.0,71,R,9631207,9632295,1090,1288.2,524.5,3963,right
44,2,continuous,22,73,fixationCross,9632878.0,9635312.0,2434.0,72,R,9632371,9632425,56,1172.6,516.1,4017,NA
44,2,continuous,22,73,fixationCross,9632878.0,9635312.0,2434.0,72,R,9632457,9632725,270,896.7,523.6,3977,NA
44,2,continuous,22,73,trial,9632878.0,9635312.0,2434.0,72,R,9632743,9633087,346,955.2,548.8,3936,NA
44,2,continuous,22,73,trial,9632878.0,9635312.0,2434.0,72,R,9633129,9633363,236,535.2,530.7,3745,left
44,2,continuous,22,73,trial,9632878.0,9635312.0,2434.0,72,R,9633427,9634313,888,1464.9,593.8,3739,right
44,2,continuous,22,73,trial,9632878.0,9635312.0,2434.0,72,R,9634325,9634577,254,1433.9,579.0,3875,right
44,2,continuous,22,73,trial,9632878.0,9635312.0,2434.0,72,R,9634587,9634825,240,1467.7,586.9,3983,right
44,2,continuous,22,73,trial,9632878.0,9635312.0,2434.0,72,R,9634835,9635257,424,1432.9,586.5,4045,right
44,2,continuous,22,73,postResponse,9632878.0,9635312.0,2434.0,72,R,9635323,9635645,324,496.3,524.6,4128,left
44,2,continuous,23,72,fixationCross,9636479.0,9639029.0,2550.0,73,R,9635719,9635809,92,496.1,522.8,4115,left
44,2,continuous,23,72,fixationCross,9636479.0,9639029.0,2550.0,73,R,9635843,9636181,340,791.5,491.4,3940,NA
44,2,continuous,23,72,trial,9636479.0,9639029.0,2550.0,73,R,9636207,9636735,530,946.2,548.4,3852,NA
44,2,continuous,23,72,trial,9636479.0,9639029.0,2550.0,73,R,9636775,9637027,254,1357.2,588.5,3660,right
44,2,continuous,23,72,trial,9636479.0,9639029.0,2550.0,73,R,9637153,9637359,208,499.4,545.0,3727,left
44,2,continuous,23,72,trial,9636479.0,9639029.0,2550.0,73,R,9637385,9637531,148,456.0,580.0,3831,left
44,2,continuous,23,72,trial,9636479.0,9639029.0,2550.0,73,R,9637547,9637769,224,467.0,614.1,3798,left
44,2,continuous,23,72,trial,9636479.0,9639029.0,2550.0,73,R,9637813,9638263,452,492.3,447.2,3517,left
44,2,continuous,23,72,trial,9636479.0,9639029.0,2550.0,73,R,9638295,9638373,80,474.3,606.2,3647,left
44,2,continuous,23,72,trial,9636479.0,9639029.0,2550.0,73,R,9638435,9639317,884,1353.9,644.3,3728,right
44,2,continuous,23,72,postResponse,9636479.0,9639029.0,2550.0,73,R,9639331,9639373,44,1318.9,624.2,3804,right
44,2,continuous,24,70,fixationCross,9639928.0,9642411.0,2483.0,74,R,9639449,9639565,118,1319.5,620.4,3758,right
44,2,continuous,24,70,fixationCross,9639928.0,9642411.0,2483.0,74,R,9639607,9639813,208,972.8,530.0,3774,NA
44,2,continuous,24,70,trial,9639928.0,9642411.0,2483.0,74,R,9639831,9640161,332,951.0,551.8,3886,NA
44,2,continuous,24,70,trial,9639928.0,9642411.0,2483.0,74,R,9640205,9640421,218,566.6,452.3,3822,left
44,2,continuous,24,70,trial,9639928.0,9642411.0,2483.0,74,R,9640451,9640631,182,433.3,534.1,3800,left
44,2,continuous,24,70,trial,9639928.0,9642411.0,2483.0,74,R,9640699,9640903,206,1466.0,555.9,3632,right
44,2,continuous,24,70,trial,9639928.0,9642411.0,2483.0,74,R,9640925,9641823,900,1549.0,505.1,3574,right
44,2,continuous,24,70,trial,9639928.0,9642411.0,2483.0,74,R,9641983,9642279,298,542.1,438.7,3885,left
44,2,continuous,24,70,trial,9639928.0,9642411.0,2483.0,74,R,9642307,9642721,416,439.5,518.2,3800,left
44,2,continuous,25,60,fixationCross,9643329.0,9645562.0,2233.0,75,R,9642939,9643267,330,995.0,501.2,3693,NA
44,2,continuous,25,60,trial,9643329.0,9645562.0,2233.0,75,R,9643287,9643539,254,954.1,528.0,3872,NA
44,2,continuous,25,60,trial,9643329.0,9645562.0,2233.0,75,R,9643579,9643745,168,1403.9,496.9,3627,right
44,2,continuous,25,60,trial,9643329.0,9645562.0,2233.0,75,R,9643759,9644129,372,1427.9,470.0,3647,right
44,2,continuous,25,60,trial,9643329.0,9645562.0,2233.0,75,R,9644157,9644361,206,1450.0,608.6,3711,right
44,2,continuous,25,60,trial,9643329.0,9645562.0,2233.0,75,R,9644419,9644613,196,628.0,525.8,3855,left
44,2,continuous,25,60,trial,9643329.0,9645562.0,2233.0,75,R,9644637,9644885,250,542.2,494.0,3883,left
44,2,continuous,25,60,trial,9643329.0,9645562.0,2233.0,75,R,9644939,9645163,226,955.8,993.5,3861,likertHorizontal
44,2,continuous,25,60,trial,9643329.0,9645562.0,2233.0,75,R,9645175,9645349,176,919.4,992.9,3898,likertHorizontal
44,2,continuous,25,60,trial,9643329.0,9645562.0,2233.0,75,R,9645371,9645765,396,1028.8,987.6,3938,likertHorizontal
44,2,continuous,26,21,fixationCross,9669679.0,9671596.0,1917.0,76,R,9669010,9669202,194,1065.4,-88.6,3334,NA
44,2,continuous,26,21,fixationCross,9669679.0,9671596.0,1917.0,76,R,9669240,9669376,138,961.7,408.6,3705,NA
44,2,continuous,26,21,trial,9669679.0,9671596.0,1917.0,76,R,9669416,9669902,488,950.7,539.8,3832,NA
44,2,continuous,26,21,trial,9669679.0,9671596.0,1917.0,76,R,9669944,9670194,252,1311.6,573.6,3790,right
44,2,continuous,26,21,trial,9669679.0,9671596.0,1917.0,76,R,9670212,9670374,164,1363.5,545.1,3895,right
44,2,continuous,26,21,trial,9669679.0,9671596.0,1917.0,76,R,9670436,9670828,394,556.6,548.1,4121,left
44,2,continuous,26,21,trial,9669679.0,9671596.0,1917.0,76,R,9670888,9671174,288,1338.7,519.4,3773,right
44,2,continuous,26,21,trial,9669679.0,9671596.0,1917.0,76,R,9671226,9671450,226,750.5,952.8,4019,likertHorizontal
44,2,continuous,26,21,postResponse,9669679.0,9671596.0,1917.0,76,R,9671504,9671944,442,616.0,501.1,3946,left
44,2,continuous,27,71,fixationCross,9672529.0,9675462.0,2933.0,77,R,9672044,9672072,30,614.4,503.3,3758,left
44,2,continuous,27,71,fixationCross,9672529.0,9675462.0,2933.0,77,R,9672114,9672488,376,966.0,485.8,3745,NA
44,2,continuous,27,71,trial,9672529.0,9675462.0,2933.0,77,R,9672504,9672694,192,946.9,523.9,3854,NA
44,2,continuous,27,71,trial,9672529.0,9675462.0,2933.0,77,R,9672740,9672988,250,1376.8,504.8,3749,right
44,2,continuous,27,71,trial,9672529.0,9675462.0,2933.0,77,R,9673006,9673136,132,1424.2,537.2,3761,right
44,2,continuous,27,71,trial,9672529.0,9675462.0,2933.0,77,R,9673198,9673462,266,530.1,480.9,3815,left
44,2,continuous,27,71,trial,9672529.0,9675462.0,2933.0,77,R,9673482,9673686,206,464.2,486.5,3687,left
44,2,continuous,27,71,trial,9672529.0,9675462.0,2933.0,77,R,9673702,9673826,126,398.8,479.2,3539,left
44,2,continuous,27,71,trial,9672529.0,9675462.0,2933.0,77,R,9673894,9674194,302,1388.3,526.6,3468,right
44,2,continuous,27,71,trial,9672529.0,9675462.0,2933.0,77,R,9674218,9674992,776,1410.8,603.5,3633,right
44,2,continuous,27,71,trial,9672529.0,9675462.0,2933.0,77,R,9675012,9675154,144,1300.3,599.0,3676,right
44,2,continuous,27,71,postResponse,9672529.0,9675462.0,2933.0,77,R,9675214,9675796,584,493.7,469.8,3777,left
44,2,continuous,28,77,fixationCross,9676362.0,9678579.0,2217.0,78,R,9675914,9676196,284,997.5,471.2,3665,NA
44,2,continuous,28,77,trial,9676362.0,9678579.0,2217.0,78,R,9676216,9676518,304,955.5,526.3,3796,NA
44,2,continuous,28,77,trial,9676362.0,9678579.0,2217.0,78,R,9676562,9676682,122,581.6,538.4,3763,left
44,2,continuous,28,77,trial,9676362.0,9678579.0,2217.0,78,R,9676834,9676912,80,345.9,442.9,3609,left
44,2,continuous,28,77,trial,9676362.0,9678579.0,2217.0,78,R,9676978,9677224,248,1367.8,542.7,3658,right
44,2,continuous,28,77,trial,9676362.0,9678579.0,2217.0,78,R,9677246,9677622,378,1430.4,514.5,3565,right
44,2,continuous,28,77,trial,9676362.0,9678579.0,2217.0,78,R,9677644,9678034,392,1325.1,529.1,3364,right
44,2,continuous,28,77,trial,9676362.0,9678579.0,2217.0,78,R,9678052,9678254,204,1393.4,519.5,3412,right
44,2,continuous,28,77,trial,9676362.0,9678579.0,2217.0,78,R,9678312,9678426,116,647.7,542.9,3547,left
44,2,continuous,28,77,trial,9676362.0,9678579.0,2217.0,78,R,9678466,9678776,312,320.0,466.5,3502,left
44,2,continuous,28,77,postResponse,9676362.0,9678579.0,2217.0,78,R,9678802,9678914,114,261.9,309.8,3404,NA
44,2,continuous,29,11,fixationCross,9679662.0,9681613.0,1951.0,79,R,9679056,9679270,216,791.5,494.1,3580,NA
44,2,continuous,29,11,fixationCross,9679662.0,9681613.0,1951.0,79,R,9679290,9679442,154,868.4,492.2,3693,NA
44,2,continuous,29,11,trial,9679662.0,9681613.0,1951.0,79,R,9679466,9679848,384,945.5,546.0,3932,NA
44,2,continuous,29,11,trial,9679662.0,9681613.0,1951.0,79,R,9679888,9680144,258,570.9,530.7,3830,left
44,2,continuous,29,11,trial,9679662.0,9681613.0,1951.0,79,R,9680166,9680380,216,464.2,496.2,3774,left
44,2,continuous,29,11,trial,9679662.0,9681613.0,1951.0,79,R,9680446,9680744,300,1417.2,549.6,3662,right
44,2,continuous,29,11,trial,9679662.0,9681613.0,1951.0,79,R,9680766,9680906,142,1500.7,557.9,3699,right
44,2,continuous,29,11,trial,9679662.0,9681613.0,1951.0,79,R,9680968,9681836,870,577.5,570.5,3820,left
44,2,continuous,29,11,postResponse,9679662.0,9681613.0,1951.0,79,R,9681848,9681952,106,565.3,540.6,3808,left
44,2,continuous,30,30,fixationCross,9682512.0,9685679.0,3167.0,80,R,9682026,9682174,150,564.8,539.5,3738,left
44,2,continuous,30,30,fixationCross,9682512.0,9685679.0,3167.0,80,R,9682220,9682388,170,907.5,538.4,3719,NA
44,2,continuous,30,30,trial,9682512.0,9685679.0,3167.0,80,R,9682402,9682676,276,955.3,548.8,3763,NA
44,2,continuous,30,30,trial,9682512.0,9685679.0,3167.0,80,R,9682744,9682876,134,1485.2,486.2,3740,right
44,2,continuous,30,30,trial,9682512.0,9685679.0,3167.0,80,R,9682900,9683178,280,1542.8,431.0,3688,right
44,2,continuous,30,30,trial,9682512.0,9685679.0,3167.0,80,R,9683246,9683566,322,537.6,487.1,3712,left
44,2,continuous,30,30,trial,9682512.0,9685679.0,3167.0,80,R,9683580,9683772,194,486.3,509.7,3696,left
44,2,continuous,30,30,trial,9682512.0,9685679.0,3167.0,80,R,9683792,9683972,182,450.3,559.2,3597,left
44,2,continuous,30,30,trial,9682512.0,9685679.0,3167.0,80,R,9683998,9684258,262,309.4,478.8,3380,left
44,2,continuous,30,30,trial,9682512.0,9685679.0,3167.0,80,R,9684424,9684632,210,1558.6,442.9,3275,right
44,2,continuous,30,30,trial,9682512.0,9685679.0,3167.0,80,R,9684642,9684878,238,1545.5,415.1,3449,right
44,2,continuous,30,30,trial,9682512.0,9685679.0,3167.0,80,R,9684938,9685132,196,770.4,907.6,3708,likertHorizontal
44,2,continuous,30,30,trial,9682512.0,9685679.0,3167.0,80,R,9685182,9685442,262,625.3,601.6,3725,left
44,2,continuous,30,30,trial,9682512.0,9685679.0,3167.0,80,R,9685470,9685972,504,476.6,593.9,3834,left
44,2,continuous,31,82,fixationCross,9686563.0,9688846.0,2283.0,81,R,9686264,9686448,186,903.7,508.0,3892,NA
44,2,continuous,31,82,trial,9686563.0,9688846.0,2283.0,81,R,9686470,9686782,314,958.2,540.2,4092,NA
44,2,continuous,31,82,trial,9686563.0,9688846.0,2283.0,81,R,9686820,9687068,250,1370.7,512.9,3752,right
44,2,continuous,31,82,trial,9686563.0,9688846.0,2283.0,81,R,9687084,9687166,84,1310.1,511.4,3653,right
44,2,continuous,31,82,trial,9686563.0,9688846.0,2283.0,81,R,9687226,9687550,326,427.6,502.0,3637,left
44,2,continuous,31,82,trial,9686563.0,9688846.0,2283.0,81,R,9687576,9687914,340,388.0,590.3,3660,left
44,2,continuous,31,82,trial,9686563.0,9688846.0,2283.0,81,R,9687970,9688094,126,900.7,857.7,3770,likertHorizontal
44,2,continuous,31,82,trial,9686563.0,9688846.0,2283.0,81,R,9688122,9688242,122,925.8,979.8,3807,likertHorizontal
44,2,continuous,31,82,trial,9686563.0,9688846.0,2283.0,81,R,9688282,9688504,224,1347.7,980.1,3796,NA
44,2,continuous,31,82,trial,9686563.0,9688846.0,2283.0,81,R,9688526,9688682,158,1261.3,982.0,3898,NA
44,2,continuous,31,82,trial,9686563.0,9688846.0,2283.0,81,R,9688734,9689060,328,1324.1,614.9,3979,right
44,2,continuous,31,82,postResponse,9686563.0,9688846.0,2283.0,81,R,9689082,9689178,98,1320.6,542.8,3953,right
44,2,continuous,32,82,fixationCross,9689729.0,9692113.0,2384.0,82,R,9689252,9689380,130,1317.1,543.9,3902,right
44,2,continuous,32,82,fixationCross,9689729.0,9692113.0,2384.0,82,R,9689420,9689640,222,976.5,497.1,3896,NA
44,2,continuous,32,82,trial,9689729.0,9692113.0,2384.0,82,R,9689652,9689964,314,944.3,519.5,3979,NA
44,2,continuous,32,82,trial,9689729.0,9692113.0,2384.0,82,R,9690006,9690166,162,1430.4,495.8,3870,right
44,2,continuous,32,82,trial,9689729.0,9692113.0,2384.0,82,R,9690186,9690346,162,1503.5,540.4,3768,right
44,2,continuous,32,82,trial,9689729.0,9692113.0,2384.0,82,R,9690376,9690606,232,1303.7,616.3,3719,right
44,2,continuous,32,82,trial,9689729.0,9692113.0,2384.0,82,R,9690664,9690914,252,551.0,459.6,3574,left
44,2,continuous,32,82,trial,9689729.0,9692113.0,2384.0,82,R,9690926,9691054,130,493.0,470.4,3433,left
44,2,continuous,32,82,trial,9689729.0,9692113.0,2384.0,82,R,9691120,9691320,202,1454.1,559.3,3347,right
44,2,continuous,32,82,trial,9689729.0,9692113.0,2384.0,82,R,9691340,9691856,518,1508.8,551.6,3398,right
44,2,continuous,32,82,trial,9689729.0,9692113.0,2384.0,82,R,9691898,9692078,182,1308.3,965.4,3450,NA
44,2,continuous,32,82,postResponse,9689729.0,9692113.0,2384.0,82,R,9692136,9692448,314,1426.6,490.7,3696,right
44,2,continuous,33,12,fixationCross,9693229.0,9695112.0,1883.0,83,R,9692548,9692734,188,1423.2,492.9,3696,right
44,2,continuous,33,12,fixationCross,9693229.0,9695112.0,1883.0,83,R,9692762,9692920,160,1227.0,503.6,3678,right
44,2,continuous,33,12,fixationCross,9693229.0,9695112.0,1883.0,83,R,9692948,9693170,224,984.0,523.7,3822,NA
44,2,continuous,33,12,trial,9693229.0,9695112.0,1883.0,83,R,9693182,9693438,258,952.7,531.4,3971,NA
44,2,continuous,33,12,trial,9693229.0,9695112.0,1883.0,83,R,9693482,9693640,160,1444.4,534.8,3819,right
44,2,continuous,33,12,trial,9693229.0,9695112.0,1883.0,83,R,9693658,9693758,102,1502.7,566.7,3724,right
44,2,continuous,33,12,trial,9693229.0,9695112.0,1883.0,83,R,9693822,9694074,254,526.5,466.1,3842,left
44,2,continuous,33,12,trial,9693229.0,9695112.0,1883.0,83,R,9694106,9694392,288,640.2,597.8,3895,left
44,2,continuous,33,12,trial,9693229.0,9695112.0,1883.0,83,R,9694408,9695380,974,659.7,629.5,3770,left
44,2,continuous,33,12,postResponse,9693229.0,9695112.0,1883.0,83,R,9695400,9695448,50,760.3,587.5,3843,NA
44,2,continuous,34,33,fixationCross,9696013.0,9698430.0,2417.0,84,R,9695704,9695900,198,990.9,545.6,4033,NA
44,2,continuous,34,33,trial,9696013.0,9698430.0,2417.0,84,R,9695912,9696262,352,959.0,542.4,4211,NA
44,2,continuous,34,33,trial,9696013.0,9698430.0,2417.0,84,R,9696312,9696452,142,560.0,493.4,3913,left
44,2,continuous,34,33,trial,9696013.0,9698430.0,2417.0,84,R,9696476,9696694,220,468.6,509.3,3825,left
44,2,continuous,34,33,trial,9696013.0,9698430.0,2417.0,84,R,9696722,9696836,116,401.1,413.1,3755,left
44,2,continuous,34,33,trial,9696013.0,9698430.0,2417.0,84,R,9696858,9696990,134,312.7,400.5,3734,left
44,2,continuous,34,33,trial,9696013.0,9698430.0,2417.0,84,R,9697058,9697220,164,1380.7,590.0,3733,right
44,2,continuous,34,33,trial,9696013.0,9698430.0,2417.0,84,R,9697242,9697436,196,1463.1,584.7,3759,right
44,2,continuous,34,33,trial,9696013.0,9698430.0,2417.0,84,R,9697452,9697684,234,1481.8,563.1,3809,right
44,2,continuous,34,33,trial,9696013.0,9698430.0,2417.0,84,R,9697740,9697920,182,876.5,957.6,3842,likertHorizontal
44,2,continuous,34,33,trial,9696013.0,9698430.0,2417.0,84,R,9697974,9698192,220,659.6,595.4,3790,left
44,2,continuous,34,33,postResponse,9696013.0,9698430.0,2417.0,84,R,9698216,9698764,550,548.9,531.7,3766,left
44,2,continuous,35,12,fixationCross,9699396.0,9701413.0,2017.0,85,R,9698840,9699070,232,538.4,526.5,3664,left
44,2,continuous,35,12,fixationCross,9699396.0,9701413.0,2017.0,85,R,9699116,9699310,196,931.0,518.9,3656,NA
44,2,continuous,35,12,trial,9699396.0,9701413.0,2017.0,85,R,9699320,9699648,330,956.3,536.4,3731,NA
44,2,continuous,35,12,trial,9699396.0,9701413.0,2017.0,85,R,9699680,9699998,320,1339.4,517.4,3712,right
44,2,continuous,35,12,trial,9699396.0,9701413.0,2017.0,85,R,9700062,9700288,228,488.5,466.2,3700,left
44,2,continuous,35,12,trial,9699396.0,9701413.0,2017.0,85,R,9700308,9700722,416,416.5,451.8,3602,left
44,2,continuous,35,12,trial,9699396.0,9701413.0,2017.0,85,R,9700744,9701112,370,430.5,550.4,3759,left
44,2,continuous,35,12,trial,9699396.0,9701413.0,2017.0,85,R,9701134,9701254,122,517.2,542.6,3924,left
44,2,continuous,35,12,trial,9699396.0,9701413.0,2017.0,85,R,9701278,9701582,306,447.0,439.1,3877,left
44,2,continuous,36,81,fixationCross,9702580.0,9704262.0,1682.0,86,R,9701854,9702168,316,373.4,460.5,4014,left
44,2,continuous,36,81,fixationCross,9702580.0,9704262.0,1682.0,86,R,9702298,9702462,166,995.6,538.6,3915,NA
44,2,continuous,36,81,trial,9702580.0,9704262.0,1682.0,86,R,9702474,9702742,270,960.4,535.6,3948,NA
44,2,continuous,36,81,trial,9702580.0,9704262.0,1682.0,86,R,9702790,9702956,168,544.2,494.6,3933,left
44,2,continuous,36,81,trial,9702580.0,9704262.0,1682.0,86,R,9702974,9703140,168,467.6,504.5,3786,left
44,2,continuous,36,81,trial,9702580.0,9704262.0,1682.0,86,R,9703166,9703258,94,616.1,572.7,3814,left
44,2,continuous,36,81,trial,9702580.0,9704262.0,1682.0,86,R,9703316,9703630,316,1344.1,605.1,3747,right
44,2,continuous,36,81,trial,9702580.0,9704262.0,1682.0,86,R,9703658,9703912,256,1392.2,505.9,3850,right
44,2,continuous,36,81,postResponse,9702580.0,9704262.0,1682.0,86,R,9703942,9704596,656,1237.5,626.4,3747,right
44,2,continuous,37,82,fixationCross,9705180.0,9706896.0,1716.0,87,R,9704838,9705070,234,901.6,504.1,3929,NA
44,2,continuous,37,82,trial,9705180.0,9706896.0,1716.0,87,R,9705090,9705328,240,951.5,521.5,4145,NA
44,2,continuous,37,82,trial,9705180.0,9706896.0,1716.0,87,R,9705372,9705654,284,564.5,481.7,3926,left
44,2,continuous,37,82,trial,9705180.0,9706896.0,1716.0,87,R,9705720,9705916,198,1474.4,542.5,3754,right
44,2,continuous,37,82,trial,9705180.0,9706896.0,1716.0,87,R,9705940,9706116,178,1561.3,513.2,3722,right
44,2,continuous,37,82,trial,9705180.0,9706896.0,1716.0,87,R,9706132,9706298,168,1611.7,542.0,3723,right
44,2,continuous,37,82,trial,9705180.0,9706896.0,1716.0,87,R,9706318,9706538,222,1563.4,501.8,3732,right
44,2,continuous,37,82,postResponse,9705180.0,9706896.0,1716.0,87,R,9706570,9707242,674,1283.5,492.0,3796,right
44,2,continuous,38,89,fixationCross,9707829.0,9710596.0,2767.0,88,R,9707342,9707388,48,1285.7,502.5,3821,right
44,2,continuous,38,89,trial,9707829.0,9710596.0,2767.0,88,R,9707422,9708020,600,952.1,552.2,3882,NA
44,2,continuous,38,89,trial,9707829.0,9710596.0,2767.0,88,R,9708064,9708236,174,535.1,455.9,3762,left
44,2,continuous,38,89,trial,9707829.0,9710596.0,2767.0,88,R,9708254,9708596,344,500.4,416.2,3713,left
44,2,continuous,38,89,trial,9707829.0,9710596.0,2767.0,88,R,9708664,9708934,272,1482.5,526.1,3595,right
44,2,continuous,38,89,trial,9707829.0,9710596.0,2767.0,88,R,9708944,9709632,690,1446.5,525.1,3533,right
44,2,continuous,38,89,trial,9707829.0,9710596.0,2767.0,88,R,9709654,9710010,358,1364.2,604.0,3432,right
44,2,continuous,38,89,trial,9707829.0,9710596.0,2767.0,88,R,9710032,9710282,252,1408.1,536.0,3568,right
44,2,continuous,38,89,postResponse,9707829.0,9710596.0,2767.0,88,R,9710294,9710930,638,1438.0,524.7,3740,right
44,2,continuous,39,24,fixationCross,9711496.0,9714430.0,2934.0,89,R,9711166,9711366,202,916.2,514.4,3748,NA
44,2,continuous,39,24,trial,9711496.0,9714430.0,2934.0,89,R,9711386,9711658,274,940.2,557.6,3988,NA
44,2,continuous,39,24,trial,9711496.0,9714430.0,2934.0,89,R,9711702,9711896,196,537.2,515.0,3767,left
44,2,continuous,39,24,trial,9711496.0,9714430.0,2934.0,89,R,9711932,9712098,168,527.2,592.8,3682,left
44,2,continuous,39,24,trial,9711496.0,9714430.0,2934.0,89,R,9712156,9712700,546,1348.5,460.6,3619,right
44,2,continuous,39,24,trial,9711496.0,9714430.0,2934.0,89,R,9712760,9712976,218,640.6,558.9,3729,left
44,2,continuous,39,24,trial,9711496.0,9714430.0,2934.0,89,R,9713002,9713324,324,488.5,596.1,3862,left
44,2,continuous,39,24,trial,9711496.0,9714430.0,2934.0,89,R,9713346,9713760,416,593.5,616.7,3900,left
44,2,continuous,39,24,trial,9711496.0,9714430.0,2934.0,89,R,9713772,9714004,234,629.3,624.2,3898,left
44,2,continuous,39,24,trial,9711496.0,9714430.0,2934.0,89,R,9714024,9714226,204,546.5,590.1,3900,left
44,2,continuous,39,24,trial,9711496.0,9714430.0,2934.0,89,R,9714248,9714708,462,499.3,570.2,3931,left
44,2,continuous,39,24,postResponse,9711496.0,9714430.0,2934.0,89,R,9714718,9714764,48,473.6,546.0,3907,left
44,2,continuous,40,67,fixationCross,9715346.0,9717663.0,2317.0,90,R,9714864,9714984,122,469.4,546.7,3793,left
44,2,continuous,40,67,fixationCross,9715346.0,9717663.0,2317.0,90,R,9715030,9715208,180,900.4,549.4,3743,NA
44,2,continuous,40,67,trial,9715346.0,9717663.0,2317.0,90,R,9715224,9715516,294,951.8,555.5,3760,NA
44,2,continuous,40,67,trial,9715346.0,9717663.0,2317.0,90,R,9715564,9715694,132,479.1,541.6,3745,left
44,2,continuous,40,67,trial,9715346.0,9717663.0,2317.0,90,R,9715850,9716068,220,469.0,525.6,3682,left
44,2,continuous,40,67,trial,9715346.0,9717663.0,2317.0,90,R,9716084,9716186,104,456.8,557.5,3867,left
44,2,continuous,40,67,trial,9715346.0,9717663.0,2317.0,90,R,9716250,9716490,242,1415.8,539.6,3671,right
44,2,continuous,40,67,trial,9715346.0,9717663.0,2317.0,90,R,9716512,9716830,320,1463.9,493.7,3452,right
44,2,continuous,40,67,trial,9715346.0,9717663.0,2317.0,90,R,9716846,9717066,222,1510.0,471.4,3259,right
44,2,continuous,40,67,trial,9715346.0,9717663.0,2317.0,90,R,9717104,9717570,468,1193.0,596.8,3332,right
44,2,continuous,40,67,postResponse,9715346.0,9717663.0,2317.0,90,R,9717592,9717996,406,1232.7,522.6,3721,right
44,2,continuous,41,66,fixationCross,9718563.0,9721497.0,2934.0,91,R,9718096,9718202,108,1234.9,520.2,3665,right
44,2,continuous,41,66,fixationCross,9718563.0,9721497.0,2934.0,91,R,9718248,9718452,206,888.5,511.6,3700,NA
44,2,continuous,41,66,trial,9718563.0,9721497.0,2934.0,91,R,9718472,9718726,256,953.9,543.7,3798,NA
44,2,continuous,41,66,trial,9718563.0,9721497.0,2934.0,91,R,9718772,9718976,206,491.2,551.3,3799,left
44,2,continuous,41,66,trial,9718563.0,9721497.0,2934.0,91,R,9719156,9719298,144,439.1,595.1,3738,left
44,2,continuous,41,66,trial,9718563.0,9721497.0,2934.0,91,R,9719362,9719548,188,1348.0,447.4,3774,right
44,2,continuous,41,66,trial,9718563.0,9721497.0,2934.0,91,R,9719558,9719800,244,1367.9,434.6,3739,right
44,2,continuous,41,66,trial,9718563.0,9721497.0,2934.0,91,R,9719840,9720036,198,1328.0,579.9,3582,right
44,2,continuous,41,66,trial,9718563.0,9721497.0,2934.0,91,R,9720096,9720434,340,510.3,594.2,3690,left
44,2,continuous,41,66,trial,9718563.0,9721497.0,2934.0,91,R,9720454,9720616,164,427.3,577.9,3698,left
44,2,continuous,41,66,trial,9718563.0,9721497.0,2934.0,91,R,9720676,9720888,214,1074.3,806.3,3798,likertHorizontal
44,2,continuous,41,66,trial,9718563.0,9721497.0,2934.0,91,R,9720918,9721128,212,1226.6,645.0,3995,right
44,2,continuous,41,66,trial,9718563.0,9721497.0,2934.0,91,R,9721166,9721306,142,1061.5,852.5,4243,likertHorizontal
44,2,continuous,41,66,trial,9718563.0,9721497.0,2934.0,91,R,9721344,9721570,228,1106.8,997.1,4256,likertHorizontal
44,2,continuous,41,66,trial,9718563.0,9721497.0,2934.0,91,R,9721632,9721750,120,1260.2,611.5,3986,right
44,2,continuous,42,67,fixationCross,9722662.0,9725213.0,2551.0,92,R,9722008,9722348,342,941.1,431.0,4048,NA
44,2,continuous,42,67,fixationCross,9722662.0,9725213.0,2551.0,92,R,9722376,9722648,274,958.4,531.9,4061,NA
44,2,continuous,42,67,trial,9722662.0,9725213.0,2551.0,92,R,9722666,9722830,166,926.2,496.8,3856,NA
44,2,continuous,42,67,trial,9722662.0,9725213.0,2551.0,92,R,9722880,9723064,186,425.7,520.9,3785,left
44,2,continuous,42,67,trial,9722662.0,9725213.0,2551.0,92,R,9723084,9723392,310,382.2,559.3,3919,left
44,2,continuous,42,67,trial,9722662.0,9725213.0,2551.0,92,R,9723458,9723716,260,1344.6,642.0,3846,right
44,2,continuous,42,67,trial,9722662.0,9725213.0,2551.0,92,R,9723738,9724294,558,1427.8,650.7,3635,right
44,2,continuous,42,67,trial,9722662.0,9725213.0,2551.0,92,R,9724312,9724478,168,1382.1,588.7,3491,right
44,2,continuous,42,67,trial,9722662.0,9725213.0,2551.0,92,R,9724502,9724690,190,1530.3,504.7,3511,right
44,2,continuous,42,67,trial,9722662.0,9725213.0,2551.0,92,R,9724708,9724910,204,1573.0,452.1,3612,right
44,2,continuous,42,67,trial,9722662.0,9725213.0,2551.0,92,R,9724938,9725198,262,1371.7,546.9,3670,right
44,2,continuous,42,67,trial,9722662.0,9725213.0,2551.0,92,R,9725224,9725388,166,1270.0,612.1,3717,right
44,2,continuous,43,74,fixationCross,9726096.0,9729146.0,3050.0,93,R,9725622,9726074,454,922.3,491.0,4122,NA
44,2,continuous,43,74,trial,9726096.0,9729146.0,3050.0,93,R,9726094,9726230,138,936.6,542.0,4063,NA
44,2,continuous,43,74,trial,9726096.0,9729146.0,3050.0,93,R,9726280,9726472,194,475.2,499.8,3859,left
44,2,continuous,43,74,trial,9726096.0,9729146.0,3050.0,93,R,9726484,9726626,144,499.4,519.4,3838,left
44,2,continuous,43,74,trial,9726096.0,9729146.0,3050.0,93,R,9726690,9726872,184,1396.3,495.7,3769,right
44,2,continuous,43,74,trial,9726096.0,9729146.0,3050.0,93,R,9726896,9727098,204,1503.3,465.9,3732,right
44,2,continuous,43,74,trial,9726096.0,9729146.0,3050.0,93,R,9727138,9727322,186,1443.6,614.0,3707,right
44,2,continuous,43,74,trial,9726096.0,9729146.0,3050.0,93,R,9727390,9727660,272,507.0,533.8,3705,left
44,2,continuous,43,74,trial,9726096.0,9729146.0,3050.0,93,R,9727684,9727864,182,416.5,557.6,3633,left
44,2,continuous,43,74,trial,9726096.0,9729146.0,3050.0,93,R,9727928,9728126,200,1374.8,590.1,3549,right
44,2,continuous,43,74,trial,9726096.0,9729146.0,3050.0,93,R,9728146,9728774,630,1427.1,625.2,3746,right
44,2,continuous,43,74,trial,9726096.0,9729146.0,3050.0,93,R,9728794,9729408,616,1346.8,596.0,3982,right
44,2,continuous,43,74,postResponse,9726096.0,9729146.0,3050.0,93,R,9729424,9729480,58,1295.7,576.3,3984,right
44,2,continuous,44,15,fixationCross,9730046.0,9733197.0,3151.0,94,R,9729578,9729700,124,1293.9,579.5,3889,right
44,2,continuous,44,15,fixationCross,9730046.0,9733197.0,3151.0,94,R,9729736,9729976,242,970.3,536.9,3880,NA
44,2,continuous,44,15,trial,9730046.0,9733197.0,3151.0,94,R,9729988,9730206,220,937.7,547.0,3872,NA
44,2,continuous,44,15,trial,9730046.0,9733197.0,3151.0,94,R,9730248,9730466,220,566.7,522.3,3789,left
44,2,continuous,44,15,trial,9730046.0,9733197.0,3151.0,94,R,9730486,9730648,164,457.0,510.3,3743,left
44,2,continuous,44,15,trial,9730046.0,9733197.0,3151.0,94,R,9730664,9730824,162,392.6,492.3,3661,left
44,2,continuous,44,15,trial,9730046.0,9733197.0,3151.0,94,R,9730834,9731078,246,371.5,508.0,3557,left
44,2,continuous,44,15,trial,9730046.0,9733197.0,3151.0,94,R,9731252,9731430,180,1349.9,495.3,3447,right
44,2,continuous,44,15,trial,9730046.0,9733197.0,3151.0,94,R,9731450,9731630,182,1294.0,439.2,3622,right
44,2,continuous,44,15,trial,9730046.0,9733197.0,3151.0,94,R,9731660,9731898,240,1454.4,623.2,3657,right
44,2,continuous,44,15,trial,9730046.0,9733197.0,3151.0,94,R,9731964,9732156,194,491.5,490.9,3618,left
44,2,continuous,44,15,trial,9730046.0,9733197.0,3151.0,94,R,9732180,9732722,544,372.8,488.9,3545,left
44,2,continuous,44,15,trial,9730046.0,9733197.0,3151.0,94,R,9732750,9733084,336,490.9,610.9,3799,left
44,2,continuous,44,15,trial,9730046.0,9733197.0,3151.0,94,R,9733106,9733414,310,551.2,666.8,3949,left
44,2,continuous,45,13,fixationCross,9734146.0,9736180.0,2034.0,95,R,9733690,9733836,148,692.6,475.9,4098,left
44,2,continuous,45,13,fixationCross,9734146.0,9736180.0,2034.0,95,R,9733878,9734074,198,983.1,505.1,4255,NA
44,2,continuous,45,13,trial,9734146.0,9736180.0,2034.0,95,R,9734094,9734370,278,945.8,539.3,4084,NA
44,2,continuous,45,13,trial,9734146.0,9736180.0,2034.0,95,R,9734412,9734638,228,1332.3,570.8,3781,right
44,2,continuous,45,13,trial,9734146.0,9736180.0,2034.0,95,R,9734700,9734992,294,484.3,549.5,3798,left
44,2,continuous,45,13,trial,9734146.0,9736180.0,2034.0,95,R,9735002,9735116,116,444.9,552.7,3733,left
44,2,continuous,45,13,trial,9734146.0,9736180.0,2034.0,95,R,9735138,9735616,480,531.0,578.0,3616,left
44,2,continuous,45,13,trial,9734146.0,9736180.0,2034.0,95,R,9735640,9735828,190,620.2,631.5,3834,left
44,2,continuous,45,13,trial,9734146.0,9736180.0,2034.0,95,R,9735880,9736060,182,1294.5,551.1,3926,right
44,2,continuous,45,13,postResponse,9734146.0,9736180.0,2034.0,95,R,9736116,9736528,414,576.1,566.5,4072,left
44,2,continuous,46,7,fixationCross,9737330.0,9739663.0,2333.0,96,R,9736628,9736774,148,545.2,551.9,3870,left
44,2,continuous,46,7,fixationCross,9737330.0,9739663.0,2333.0,96,R,9736828,9737020,194,1098.6,499.7,3783,NA
44,2,continuous,46,7,fixationCross,9737330.0,9739663.0,2333.0,96,R,9737044,9737268,226,984.5,520.8,3901,NA
44,2,continuous,46,7,trial,9737330.0,9739663.0,2333.0,96,R,9737280,9737538,260,947.1,529.8,3938,NA
44,2,continuous,46,7,trial,9737330.0,9739663.0,2333.0,96,R,9737578,9737798,222,1340.6,520.7,3744,right
44,2,continuous,46,7,trial,9737330.0,9739663.0,2333.0,96,R,9737822,9738076,256,1441.5,552.2,3691,right
44,2,continuous,46,7,trial,9737330.0,9739663.0,2333.0,96,R,9738144,9738442,300,518.7,578.8,3763,left
44,2,continuous,46,7,trial,9737330.0,9739663.0,2333.0,96,R,9738460,9738622,164,579.2,619.7,3683,left
44,2,continuous,46,7,trial,9737330.0,9739663.0,2333.0,96,R,9738646,9739148,504,475.7,560.6,3616,left
44,2,continuous,46,7,trial,9737330.0,9739663.0,2333.0,96,R,9739168,9739970,804,504.6,648.7,3876,left
44,2,continuous,47,76,fixationCross,9740563.0,9742830.0,2267.0,97,R,9740098,9740152,56,521.4,600.0,3970,left
44,2,continuous,47,76,fixationCross,9740563.0,9742830.0,2267.0,97,R,9740204,9740454,252,1004.6,536.7,3898,NA
44,2,continuous,47,76,trial,9740563.0,9742830.0,2267.0,97,R,9740468,9740732,266,963.5,542.2,3885,NA
44,2,continuous,47,76,trial,9740563.0,9742830.0,2267.0,97,R,9740778,9741026,250,1394.5,558.1,3705,right
44,2,continuous,47,76,trial,9740563.0,9742830.0,2267.0,97,R,9741088,9741236,150,495.0,475.6,3706,left
44,2,continuous,47,76,trial,9740563.0,9742830.0,2267.0,97,R,9741370,9741528,160,467.1,461.5,3599,left
44,2,continuous,47,76,trial,9740563.0,9742830.0,2267.0,97,R,9741588,9741748,162,1340.5,571.1,3703,right
44,2,continuous,47,76,trial,9740563.0,9742830.0,2267.0,97,R,9741770,9742154,386,1389.8,565.1,3653,right
44,2,continuous,47,76,trial,9740563.0,9742830.0,2267.0,97,R,9742184,9742314,132,1268.0,892.5,3550,NA
44,2,continuous,47,76,trial,9740563.0,9742830.0,2267.0,97,R,9742340,9742556,218,1187.5,981.2,3624,NA
44,2,continuous,47,76,postResponse,9740563.0,9742830.0,2267.0,97,R,9742710,9743164,456,1147.5,546.9,3967,NA
44,2,continuous,48,84,fixationCross,9743729.0,9745680.0,1951.0,98,R,9743238,9743604,368,900.2,525.8,3965,NA
44,2,continuous,48,84,trial,9743729.0,9745680.0,1951.0,98,R,9743620,9743888,270,951.5,543.8,3982,NA
44,2,continuous,48,84,trial,9743729.0,9745680.0,1951.0,98,R,9743940,9744082,144,524.5,475.6,3940,left
44,2,continuous,48,84,trial,9743729.0,9745680.0,1951.0,98,R,9744106,9744312,208,466.3,433.1,3817,left
44,2,continuous,48,84,trial,9743729.0,9745680.0,1951.0,98,R,9744378,9744602,226,1405.2,554.8,3752,right
44,2,continuous,48,84,trial,9743729.0,9745680.0,1951.0,98,R,9744624,9745040,418,1496.8,634.0,3769,right
44,2,continuous,48,84,trial,9743729.0,9745680.0,1951.0,98,R,9745068,9745442,376,1312.2,656.9,3787,right
44,2,continuous,48,84,postResponse,9743729.0,9745680.0,1951.0,98,R,9745466,9746028,564,1275.9,562.7,3875,right
44,2,continuous,49,44,fixationCross,9746597.0,9749697.0,3100.0,99,R,9746102,9746116,16,1278.1,559.3,3872,right
44,2,continuous,49,44,trial,9746597.0,9749697.0,3100.0,99,R,9746158,9746764,608,951.1,525.7,3830,NA
44,2,continuous,49,44,trial,9746597.0,9749697.0,3100.0,99,R,9746808,9747002,196,548.4,493.5,3804,left
44,2,continuous,49,44,trial,9746597.0,9749697.0,3100.0,99,R,9747020,9747140,122,469.4,500.3,3805,left
44,2,continuous,49,44,trial,9746597.0,9749697.0,3100.0,99,R,9747206,9747686,482,1406.7,499.5,3719,right
44,2,continuous,49,44,trial,9746597.0,9749697.0,3100.0,99,R,9747706,9748022,318,1426.0,559.9,3681,right
44,2,continuous,49,44,trial,9746597.0,9749697.0,3100.0,99,R,9748174,9748500,328,525.9,501.5,3810,left
44,2,continuous,49,44,trial,9746597.0,9749697.0,3100.0,99,R,9748518,9748670,154,499.4,535.8,3985,left
44,2,continuous,49,44,trial,9746597.0,9749697.0,3100.0,99,R,9748720,9748926,208,1008.5,562.4,3897,NA
