participantNo,block,task,blockTrial,response,trialStage,trialStartTime,trialFinishTime,rt,trial,eye,fixStart,fixEnd,fixLength,fixPosX,fixPosY,dilation,aoi
51,1,continuous,1,81,fixationCross,15026857.0,15030558.0,3701.0,1,L,15026328,15026504,178,773.0,588.2,6067,NA
51,1,continuous,1,81,fixationCross,15026857.0,15030558.0,3701.0,1,L,15026536,15026798,264,975.1,452.7,6052,NA
51,1,continuous,1,81,trial,15026857.0,15030558.0,3701.0,1,L,15026822,15027040,220,976.7,556.3,6165,NA
51,1,continuous,1,81,trial,15026857.0,15030558.0,3701.0,1,L,15027086,15027480,396,601.6,473.7,6153,left
51,1,continuous,1,81,trial,15026857.0,15030558.0,3701.0,1,L,15027492,15027646,156,593.7,427.9,5856,left
51,1,continuous,1,81,trial,15026857.0,15030558.0,3701.0,1,L,15027708,15028152,446,1431.7,567.4,5556,right
51,1,continuous,1,81,trial,15026857.0,15030558.0,3701.0,1,L,15028220,15028428,210,466.0,487.6,5715,left
51,1,continuous,1,81,trial,15026857.0,15030558.0,3701.0,1,L,15028452,15028574,124,455.9,580.0,5847,left
51,1,continuous,1,81,trial,15026857.0,15030558.0,3701.0,1,L,15028610,15028872,264,641.0,420.0,5802,left
51,1,continuous,1,81,trial,15026857.0,15030558.0,3701.0,1,L,15028928,15029130,204,1384.5,569.8,5645,right
51,1,continuous,1,81,trial,15026857.0,15030558.0,3701.0,1,L,15029182,15029292,112,1198.6,963.1,5781,NA
51,1,continuous,1,81,trial,15026857.0,15030558.0,3701.0,1,L,15029324,15029598,276,1469.2,1016.2,5894,NA
51,1,continuous,1,81,trial,15026857.0,15030558.0,3701.0,1,L,15029622,15029820,200,1315.0,963.7,6031,NA
51,1,continuous,1,81,trial,15026857.0,15030558.0,3701.0,1,L,15029864,15030138,276,1371.2,545.1,6048,right
51,1,continuous,1,81,trial,15026857.0,15030558.0,3701.0,1,L,15030170,15030500,332,1581.8,559.4,6082,right
51,1,continuous,1,81,postResponse,15026857.0,15030558.0,3701.0,1,L,15030524,15030946,424,1449.8,510.0,6187,right
51,1,continuous,2,22,fixationCross,15031557.0,15034075.0,2518.0,2,L,15031046,15031098,54,1451.4,503.4,6293,right
51,1,continuous,2,22,fixationCross,15031557.0,15034075.0,2518.0,2,L,15031146,15031462,318,1033.7,535.3,6464,NA
51,1,continuous,2,22,trial,15031557.0,15034075.0,2518.0,2,L,15031472,15031726,256,994.3,536.3,6442,NA
51,1,continuous,2,22,trial,15031557.0,15034075.0,2518.0,2,L,15031776,15032122,348,1393.0,478.2,6123,right
51,1,continuous,2,22,trial,15031557.0,15034075.0,2518.0,2,L,15032184,15032380,198,498.5,507.8,5689,left
51,1,continuous,2,22,trial,15031557.0,15034075.0,2518.0,2,L,15032402,15032586,186,553.3,574.9,5581,left
51,1,continuous,2,22,trial,15031557.0,15034075.0,2518.0,2,L,15032644,15033006,364,1367.5,467.3,5449,right
51,1,continuous,2,22,trial,15031557.0,15034075.0,2518.0,2,L,15033062,15033278,218,869.5,948.3,5557,likertHorizontal
51,1,continuous,2,22,trial,15031557.0,15034075.0,2518.0,2,L,15033324,15033994,672,639.0,484.9,5782,left
51,1,continuous,2,22,postResponse,15031557.0,15034075.0,2518.0,2,L,15034004,15034438,436,600.5,461.4,5927,left
51,1,continuous,3,31,fixationCross,15035107.0,15037224.0,2117.0,3,L,15034514,15034772,260,596.3,471.4,5877,left
51,1,continuous,3,31,fixationCross,15035107.0,15037224.0,2117.0,3,L,15034820,15034980,162,1011.9,505.6,5994,NA
51,1,continuous,3,31,trial,15035107.0,15037224.0,2117.0,3,L,15034996,15035294,300,999.7,548.1,6012,NA
51,1,continuous,3,31,trial,15035107.0,15037224.0,2117.0,3,L,15035336,15035516,182,594.9,539.3,6083,left
51,1,continuous,3,31,trial,15035107.0,15037224.0,2117.0,3,L,15035542,15035776,236,479.4,585.6,5985,left
51,1,continuous,3,31,trial,15035107.0,15037224.0,2117.0,3,L,15035844,15036452,610,1513.5,531.5,5592,right
51,1,continuous,3,31,trial,15035107.0,15037224.0,2117.0,3,L,15036516,15036836,322,573.1,510.4,5614,left
51,1,continuous,3,31,trial,15035107.0,15037224.0,2117.0,3,L,15036864,15037208,346,443.1,576.9,5598,left
51,1,continuous,3,31,trial,15035107.0,15037224.0,2117.0,3,L,15037252,15037422,172,491.4,960.1,5488,NA
51,1,continuous,3,31,postResponse,15035107.0,15037224.0,2117.0,3,L,15037478,15037580,104,626.6,462.6,5447,left
51,1,continuous,4,6,fixationCross,15038224.0,15040574.0,2350.0,4,L,15037680,15037904,226,628.3,460.2,5548,left
51,1,continuous,4,6,fixationCross,15038224.0,15040574.0,2350.0,4,L,15037950,15038146,198,1025.1,490.8,5730,NA
51,1,continuous,4,6,trial,15038224.0,15040574.0,2350.0,4,L,15038162,15038394,234,980.5,534.3,5878,NA
51,1,continuous,4,6,trial,15038224.0,15040574.0,2350.0,4,L,15038438,15038578,142,571.8,545.2,5987,left
51,1,continuous,4,6,trial,15038224.0,15040574.0,2350.0,4,L,15038612,15038806,196,519.1,398.3,5773,left
51,1,continuous,4,6,trial,15038224.0,15040574.0,2350.0,4,L,15038868,15039300,434,1434.1,535.7,5299,right
51,1,continuous,4,6,trial,15038224.0,15040574.0,2350.0,4,L,15039364,15040186,824,525.4,468.9,5385,left
51,1,continuous,4,6,trial,15038224.0,15040574.0,2350.0,4,L,15040206,15040572,368,497.1,405.5,5383,left
51,1,continuous,4,6,postResponse,15038224.0,15040574.0,2350.0,4,L,15040598,15040930,334,377.5,557.0,5257,left
51,1,continuous,5,21,fixationCross,15041707.0,15044391.0,2684.0,5,L,15041008,15041376,370,628.9,445.0,5315,left
51,1,continuous,5,21,trial,15041707.0,15044391.0,2684.0,5,L,15041416,15041902,488,979.8,538.7,5616,NA
51,1,continuous,5,21,trial,15041707.0,15044391.0,2684.0,5,L,15041948,15042354,408,548.6,529.0,5753,left
51,1,continuous,5,21,trial,15041707.0,15044391.0,2684.0,5,L,15042410,15042758,350,1312.3,548.4,5377,right
51,1,continuous,5,21,trial,15041707.0,15044391.0,2684.0,5,L,15042790,15043100,312,1508.6,481.3,5163,right
51,1,continuous,5,21,trial,15041707.0,15044391.0,2684.0,5,L,15043190,15043508,320,500.5,571.7,5204,left
51,1,continuous,5,21,trial,15041707.0,15044391.0,2684.0,5,L,15043530,15044012,484,595.4,528.1,5275,left
51,1,continuous,5,21,trial,15041707.0,15044391.0,2684.0,5,L,15044060,15044404,346,1074.4,515.4,5396,NA
51,1,continuous,5,21,postResponse,15041707.0,15044391.0,2684.0,5,L,15044448,15044728,282,629.1,508.9,5504,left
51,1,continuous,6,55,fixationCross,15045541.0,15051274.0,5733.0,6,L,15044828,15045242,416,628.4,500.6,5794,left
51,1,continuous,6,55,trial,15045541.0,15051274.0,5733.0,6,L,15045276,15045746,472,967.8,550.8,6124,NA
51,1,continuous,6,55,trial,15045541.0,15051274.0,5733.0,6,L,15045786,15045966,182,614.7,589.1,6122,left
51,1,continuous,6,55,trial,15045541.0,15051274.0,5733.0,6,L,15045982,15046272,292,526.1,592.8,5892,left
51,1,continuous,6,55,trial,15045541.0,15051274.0,5733.0,6,L,15046332,15046882,552,1395.3,549.7,5322,right
51,1,continuous,6,55,trial,15045541.0,15051274.0,5733.0,6,L,15046902,15047230,330,1425.2,493.0,5229,right
51,1,continuous,6,55,trial,15045541.0,15051274.0,5733.0,6,L,15047294,15047520,228,544.9,512.6,5481,left
51,1,continuous,6,55,trial,15045541.0,15051274.0,5733.0,6,L,15047546,15047682,138,366.9,490.0,5606,left
51,1,continuous,6,55,trial,15045541.0,15051274.0,5733.0,6,L,15047782,15048052,272,610.6,569.8,5686,left
51,1,continuous,6,55,trial,15045541.0,15051274.0,5733.0,6,L,15048070,15048490,422,519.1,579.9,5629,left
51,1,continuous,6,55,trial,15045541.0,15051274.0,5733.0,6,L,15048550,15048974,426,1399.0,542.5,5217,right
51,1,continuous,6,55,trial,15045541.0,15051274.0,5733.0,6,L,15048994,15049340,348,1512.9,549.2,5236,right
51,1,continuous,6,55,trial,15045541.0,15051274.0,5733.0,6,L,15049388,15049668,282,1331.5,923.5,5540,NA
51,1,continuous,6,55,trial,15045541.0,15051274.0,5733.0,6,L,15049704,15049900,198,1304.0,530.4,5626,right
51,1,continuous,6,55,postResponse,15045541.0,15051274.0,5733.0,6,L,15049950,15051610,1662,875.4,544.3,5645,NA
51,1,continuous,7,33,fixationCross,15052191.0,15056025.0,3834.0,7,L,15051710,15052142,434,870.3,525.1,5481,NA
51,1,continuous,7,33,trial,15052191.0,15056025.0,3834.0,7,L,15052162,15052366,206,955.8,538.0,5320,NA
51,1,continuous,7,33,trial,15052191.0,15056025.0,3834.0,7,L,15052412,15052550,140,566.0,549.3,5253,left
51,1,continuous,7,33,trial,15052191.0,15056025.0,3834.0,7,L,15052574,15052772,200,471.3,505.5,5153,left
51,1,continuous,7,33,trial,15052191.0,15056025.0,3834.0,7,L,15052798,15052970,174,322.5,537.2,4935,left
51,1,continuous,7,33,trial,15052191.0,15056025.0,3834.0,7,L,15053036,15053200,166,1368.2,544.8,4709,right
51,1,continuous,7,33,trial,15052191.0,15056025.0,3834.0,7,L,15053220,15053428,210,1440.9,502.6,4554,right
51,1,continuous,7,33,trial,15052191.0,15056025.0,3834.0,7,L,15053446,15053850,406,1513.3,470.4,4545,right
51,1,continuous,7,33,trial,15052191.0,15056025.0,3834.0,7,L,15053874,15054176,304,1533.1,601.0,4576,right
51,1,continuous,7,33,trial,15052191.0,15056025.0,3834.0,7,L,15054208,15054372,166,1309.6,558.3,4733,right
51,1,continuous,7,33,trial,15052191.0,15056025.0,3834.0,7,L,15054438,15054650,214,547.4,504.2,4795,left
51,1,continuous,7,33,trial,15052191.0,15056025.0,3834.0,7,L,15054668,15054892,226,499.8,505.1,4893,left
51,1,continuous,7,33,trial,15052191.0,15056025.0,3834.0,7,L,15054924,15055334,412,658.0,636.9,4916,left
51,1,continuous,7,33,trial,15052191.0,15056025.0,3834.0,7,L,15055344,15055746,404,658.3,602.8,4902,left
51,1,continuous,7,33,trial,15052191.0,15056025.0,3834.0,7,L,15055784,15055924,142,432.6,505.3,4900,left
51,1,continuous,7,33,postResponse,15052191.0,15056025.0,3834.0,7,L,15055944,15056374,432,337.2,517.0,4882,left
51,1,continuous,8,66,fixationCross,15057157.0,15060458.0,3301.0,8,L,15056474,15056546,74,329.9,515.4,4811,left
51,1,continuous,8,66,fixationCross,15057157.0,15060458.0,3301.0,8,L,15056694,15056844,152,682.6,521.2,4913,left
51,1,continuous,8,66,trial,15057157.0,15060458.0,3301.0,8,L,15056874,15057310,438,958.4,540.8,5095,NA
51,1,continuous,8,66,trial,15057157.0,15060458.0,3301.0,8,L,15057354,15057498,146,603.1,455.6,5167,left
51,1,continuous,8,66,trial,15057157.0,15060458.0,3301.0,8,L,15057516,15057688,174,628.2,404.2,5053,left
51,1,continuous,8,66,trial,15057157.0,15060458.0,3301.0,8,L,15057698,15057946,250,642.1,383.1,4901,left
51,1,continuous,8,66,trial,15057157.0,15060458.0,3301.0,8,L,15057960,15058326,368,595.0,382.0,4785,left
51,1,continuous,8,66,trial,15057157.0,15060458.0,3301.0,8,L,15058350,15058472,124,627.3,474.9,4831,left
51,1,continuous,8,66,trial,15057157.0,15060458.0,3301.0,8,L,15058516,15058612,98,535.5,756.8,4896,NA
51,1,continuous,8,66,trial,15057157.0,15060458.0,3301.0,8,L,15058646,15058808,164,537.8,560.9,4858,left
51,1,continuous,8,66,trial,15057157.0,15060458.0,3301.0,8,L,15058872,15059200,330,1426.2,537.7,4950,right
51,1,continuous,8,66,trial,15057157.0,15060458.0,3301.0,8,L,15059222,15059406,186,1500.1,504.9,5028,right
51,1,continuous,8,66,postResponse,15057157.0,15060458.0,3301.0,8,L,15059438,15060804,1368,1231.7,480.7,5048,right
51,1,continuous,9,51,fixationCross,15061524.0,15064874.0,3350.0,9,L,15060936,15061234,300,856.7,508.6,5178,NA
51,1,continuous,9,51,trial,15061524.0,15064874.0,3350.0,9,L,15061258,15061692,436,969.2,542.9,5309,NA
51,1,continuous,9,51,trial,15061524.0,15064874.0,3350.0,9,L,15061736,15062046,312,569.3,561.9,5387,left
51,1,continuous,9,51,trial,15061524.0,15064874.0,3350.0,9,L,15062074,15062210,138,693.7,573.2,5216,left
51,1,continuous,9,51,trial,15061524.0,15064874.0,3350.0,9,L,15062266,15062772,508,1377.8,515.7,4955,right
51,1,continuous,9,51,trial,15061524.0,15064874.0,3350.0,9,L,15062830,15063060,232,633.1,554.1,4793,left
51,1,continuous,9,51,trial,15061524.0,15064874.0,3350.0,9,L,15063088,15063358,272,373.6,575.3,4610,left
51,1,continuous,9,51,trial,15061524.0,15064874.0,3350.0,9,L,15063424,15063710,288,1361.6,575.1,4566,right
51,1,continuous,9,51,trial,15061524.0,15064874.0,3350.0,9,L,15063756,15064420,666,1007.2,950.8,4790,likertHorizontal
51,1,continuous,9,51,trial,15061524.0,15064874.0,3350.0,9,L,15064436,15064786,352,996.2,987.0,5183,likertHorizontal
51,1,continuous,9,51,postResponse,15061524.0,15064874.0,3350.0,9,L,15064842,15065210,370,1021.6,588.2,5259,NA
51,1,continuous,10,18,fixationCross,15065791.0,15078458.0,12667.0,10,L,15065310,15065650,342,1019.9,579.9,5205,NA
51,1,continuous,10,18,trial,15065791.0,15078458.0,12667.0,10,L,15065666,15065956,292,973.0,547.7,5163,NA
51,1,continuous,10,18,trial,15065791.0,15078458.0,12667.0,10,L,15066000,15066178,180,560.8,564.0,5093,left
51,1,continuous,10,18,trial,15065791.0,15078458.0,12667.0,10,L,15066206,15066798,594,556.4,702.6,4819,left
51,1,continuous,10,18,trial,15065791.0,15078458.0,12667.0,10,L,15066808,15067072,266,589.5,715.2,4527,left
51,1,continuous,10,18,trial,15065791.0,15078458.0,12667.0,10,L,15067082,15067242,162,541.5,715.1,4478,left
51,1,continuous,10,18,trial,15065791.0,15078458.0,12667.0,10,L,15067278,15067504,228,612.8,505.6,4416,left
51,1,continuous,10,18,trial,15065791.0,15078458.0,12667.0,10,L,15067538,15067654,118,446.3,467.1,4377,left
51,1,continuous,10,18,trial,15065791.0,15078458.0,12667.0,10,L,15067674,15067996,324,367.4,450.9,4385,left
51,1,continuous,10,18,trial,15065791.0,15078458.0,12667.0,10,L,15068022,15068148,128,593.9,467.5,4404,left
51,1,continuous,10,18,trial,15065791.0,15078458.0,12667.0,10,L,15068206,15068480,276,1371.6,554.8,4341,right
51,1,continuous,10,18,trial,15065791.0,15078458.0,12667.0,10,L,15068508,15068730,224,1432.5,681.7,4395,right
51,1,continuous,10,18,trial,15065791.0,15078458.0,12667.0,10,L,15068760,15069262,504,1491.3,473.3,4474,right
51,1,continuous,10,18,trial,15065791.0,15078458.0,12667.0,10,L,15069330,15069900,572,568.1,509.1,4515,left
51,1,continuous,10,18,trial,15065791.0,15078458.0,12667.0,10,L,15069930,15070106,178,383.7,447.5,4405,left
51,1,continuous,10,18,trial,15065791.0,15078458.0,12667.0,10,L,15070174,15070432,260,979.5,965.1,4660,likertHorizontal
51,1,continuous,10,18,trial,15065791.0,15078458.0,12667.0,10,L,15070484,15070710,228,1209.9,602.8,4772,right
51,1,continuous,10,18,trial,15065791.0,15078458.0,12667.0,10,L,15070738,15071480,744,1341.2,658.8,5131,right
51,1,continuous,10,18,trial,15065791.0,15078458.0,12667.0,10,L,15071506,15071986,482,1347.5,563.5,5226,right
51,1,continuous,10,18,trial,15065791.0,15078458.0,12667.0,10,L,15072054,15072240,188,508.1,509.4,5116,left
51,1,continuous,10,18,trial,15065791.0,15078458.0,12667.0,10,L,15072264,15072814,552,373.4,469.4,4878,left
51,1,continuous,10,18,trial,15065791.0,15078458.0,12667.0,10,L,15072842,15073188,348,614.1,491.3,4546,left
51,1,continuous,10,18,trial,15065791.0,15078458.0,12667.0,10,L,15073216,15073568,354,556.6,689.2,4587,left
51,1,continuous,10,18,trial,15065791.0,15078458.0,12667.0,10,L,15073580,15073814,236,540.5,717.7,4773,left
51,1,continuous,10,18,trial,15065791.0,15078458.0,12667.0,10,L,15073850,15074208,360,525.3,448.3,4819,left
51,1,continuous,10,18,trial,15065791.0,15078458.0,12667.0,10,L,15074276,15074762,488,1438.9,496.8,4875,right
51,1,continuous,10,18,trial,15065791.0,15078458.0,12667.0,10,L,15074954,15075312,360,1503.6,515.2,4947,right
51,1,continuous,10,18,trial,15065791.0,15078458.0,12667.0,10,L,15075332,15075930,600,1403.5,507.2,5105,right
51,1,continuous,10,18,trial,15065791.0,15078458.0,12667.0,10,L,15075964,15076316,354,1564.6,524.0,5001,right
51,1,continuous,10,18,trial,15065791.0,15078458.0,12667.0,10,L,15076338,15077250,914,1423.8,504.6,5387,right
51,1,continuous,10,18,trial,15065791.0,15078458.0,12667.0,10,L,15077322,15077504,184,478.3,481.4,5538,left
51,1,continuous,10,18,trial,15065791.0,15078458.0,12667.0,10,L,15077524,15077888,366,369.1,482.4,5389,left
51,1,continuous,10,18,postResponse,15065791.0,15078458.0,12667.0,10,L,15077916,15078804,890,602.0,514.6,4976,left
51,1,continuous,11,22,fixationCross,15079375.0,15082575.0,3200.0,11,L,15078892,15079298,408,975.3,484.4,5050,NA
51,1,continuous,11,22,trial,15079375.0,15082575.0,3200.0,11,L,15079316,15079556,242,993.4,534.4,5305,NA
51,1,continuous,11,22,trial,15079375.0,15082575.0,3200.0,11,L,15079602,15079988,388,557.4,499.6,5364,left
51,1,continuous,11,22,trial,15079375.0,15082575.0,3200.0,11,L,15080046,15080280,236,1314.8,510.0,5013,right
51,1,continuous,11,22,trial,15079375.0,15082575.0,3200.0,11,L,15080304,15080592,290,1418.1,494.4,4835,right
51,1,continuous,11,22,trial,15079375.0,15082575.0,3200.0,11,L,15080616,15080974,360,1534.3,561.8,4648,right
51,1,continuous,11,22,trial,15079375.0,15082575.0,3200.0,11,L,15080990,15081124,136,1480.4,548.9,4551,right
51,1,continuous,11,22,trial,15079375.0,15082575.0,3200.0,11,L,15081192,15081394,204,507.8,481.8,4593,left
51,1,continuous,11,22,trial,15079375.0,15082575.0,3200.0,11,L,15081416,15081712,298,450.1,411.3,4551,left
51,1,continuous,11,22,trial,15079375.0,15082575.0,3200.0,11,L,15081742,15082082,342,501.0,550.9,4659,left
51,1,continuous,11,22,trial,15079375.0,15082575.0,3200.0,11,L,15082106,15082380,276,551.7,471.3,4813,left
51,1,continuous,11,22,postResponse,15079375.0,15082575.0,3200.0,11,L,15082402,15082922,522,452.1,412.4,4952,left
51,1,continuous,12,68,fixationCross,15083658.0,15086442.0,2784.0,12,L,15083022,15083348,328,760.6,460.0,5019,NA
51,1,continuous,12,68,trial,15083658.0,15086442.0,2784.0,12,L,15083376,15083832,458,952.3,531.7,5304,NA
51,1,continuous,12,68,trial,15083658.0,15086442.0,2784.0,12,L,15083876,15084018,144,580.1,535.3,5440,left
51,1,continuous,12,68,trial,15083658.0,15086442.0,2784.0,12,L,15084038,15084184,148,661.6,578.1,5380,left
51,1,continuous,12,68,trial,15083658.0,15086442.0,2784.0,12,L,15084224,15084464,242,396.6,471.9,5105,left
51,1,continuous,12,68,trial,15083658.0,15086442.0,2784.0,12,L,15084526,15084814,290,1303.1,515.8,4909,right
51,1,continuous,12,68,trial,15083658.0,15086442.0,2784.0,12,L,15084824,15084984,162,1316.5,499.1,4891,right
51,1,continuous,12,68,trial,15083658.0,15086442.0,2784.0,12,L,15085016,15085326,312,1600.2,466.5,4828,right
51,1,continuous,12,68,trial,15083658.0,15086442.0,2784.0,12,L,15085366,15085508,144,1262.2,507.2,4988,right
51,1,continuous,12,68,trial,15083658.0,15086442.0,2784.0,12,L,15085566,15085682,118,532.4,522.4,5051,left
51,1,continuous,12,68,trial,15083658.0,15086442.0,2784.0,12,L,15085704,15085976,274,451.4,477.9,5096,left
51,1,continuous,12,68,postResponse,15083658.0,15086442.0,2784.0,12,L,15086008,15086790,784,666.0,581.1,5039,left
51,1,continuous,13,67,fixationCross,15087341.0,15089558.0,2217.0,13,L,15086864,15086950,88,669.7,588.5,5088,left
51,1,continuous,13,67,fixationCross,15087341.0,15089558.0,2217.0,13,L,15086988,15087270,284,944.1,579.0,5196,NA
51,1,continuous,13,67,trial,15087341.0,15089558.0,2217.0,13,L,15087280,15087404,126,971.7,572.4,5289,NA
51,1,continuous,13,67,trial,15087341.0,15089558.0,2217.0,13,L,15087474,15087546,74,964.4,561.0,5389,NA
51,1,continuous,13,67,trial,15087341.0,15089558.0,2217.0,13,L,15087588,15087698,112,582.4,524.3,5386,left
51,1,continuous,13,67,trial,15087341.0,15089558.0,2217.0,13,L,15087720,15087932,214,489.0,463.0,5309,left
51,1,continuous,13,67,trial,15087341.0,15089558.0,2217.0,13,L,15087956,15088072,118,483.2,556.7,5240,left
51,1,continuous,13,67,trial,15087341.0,15089558.0,2217.0,13,L,15088100,15088434,336,462.0,444.1,5051,left
51,1,continuous,13,67,trial,15087341.0,15089558.0,2217.0,13,L,15088496,15088738,244,1356.2,584.0,5012,right
51,1,continuous,13,67,trial,15087341.0,15089558.0,2217.0,13,L,15088760,15088890,132,1450.4,541.3,4971,right
51,1,continuous,13,67,trial,15087341.0,15089558.0,2217.0,13,L,15088950,15089310,362,1094.7,912.8,5220,likertHorizontal
51,1,continuous,13,67,postResponse,15087341.0,15089558.0,2217.0,13,L,15089348,15089908,562,1067.7,503.9,5452,NA
51,1,continuous,14,92,fixationCross,15090507.0,15092375.0,1868.0,14,L,15090016,15090304,290,1053.6,509.6,5579,NA
51,1,continuous,14,92,fixationCross,15090507.0,15092375.0,1868.0,14,L,15090320,15090472,154,996.1,510.7,5627,NA
51,1,continuous,14,92,trial,15090507.0,15092375.0,1868.0,14,L,15090488,15090676,190,974.7,541.0,5644,NA
51,1,continuous,14,92,trial,15090507.0,15092375.0,1868.0,14,L,15090724,15090996,274,551.1,562.0,5575,left
51,1,continuous,14,92,trial,15090507.0,15092375.0,1868.0,14,L,15091058,15091532,476,1387.8,517.9,4890,right
51,1,continuous,14,92,trial,15090507.0,15092375.0,1868.0,14,L,15091574,15091990,418,1325.0,825.4,5011,NA
51,1,continuous,14,92,trial,15090507.0,15092375.0,1868.0,14,L,15092030,15092160,132,1304.9,476.9,5251,right
51,1,continuous,14,92,postResponse,15090507.0,15092375.0,1868.0,14,L,15092224,15092714,492,600.1,520.9,5447,left
51,1,continuous,15,80,fixationCross,15093341.0,15095574.0,2233.0,15,L,15092788,15093002,216,576.8,516.1,4945,left
51,1,continuous,15,80,fixationCross,15093341.0,15095574.0,2233.0,15,L,15093122,15093252,132,1051.8,517.0,4943,NA
51,1,continuous,15,80,trial,15093341.0,15095574.0,2233.0,15,L,15093274,15093398,126,985.6,563.1,5049,NA
51,1,continuous,15,80,trial,15093341.0,15095574.0,2233.0,15,L,15093608,15093812,206,609.6,524.7,5373,left
51,1,continuous,15,80,trial,15093341.0,15095574.0,2233.0,15,L,15093870,15094112,244,1436.8,522.6,5421,right
51,1,continuous,15,80,trial,15093341.0,15095574.0,2233.0,15,L,15094132,15095808,1678,1502.5,499.2,5237,right
51,1,continuous,15,80,postResponse,15093341.0,15095574.0,2233.0,15,L,15095866,15095910,46,730.5,489.4,5572,left
51,1,continuous,16,80,fixationCross,15096658.0,15099325.0,2667.0,16,L,15096008,15096290,284,721.5,491.2,5577,left
51,1,continuous,16,80,fixationCross,15096658.0,15099325.0,2667.0,16,L,15096326,15096474,150,1061.5,531.7,5690,NA
51,1,continuous,16,80,trial,15096658.0,15099325.0,2667.0,16,L,15096490,15096840,352,1000.0,548.3,5754,NA
51,1,continuous,16,80,trial,15096658.0,15099325.0,2667.0,16,L,15096878,15097056,180,1355.5,597.8,5826,right
51,1,continuous,16,80,trial,15096658.0,15099325.0,2667.0,16,L,15097082,15097358,278,1468.0,519.1,5780,right
51,1,continuous,16,80,trial,15096658.0,15099325.0,2667.0,16,L,15097426,15098064,640,486.8,500.7,5681,left
51,1,continuous,16,80,trial,15096658.0,15099325.0,2667.0,16,L,15098128,15098294,168,1468.8,546.9,5357,right
51,1,continuous,16,80,postResponse,15096658.0,15099325.0,2667.0,16,L,15098314,15099670,1358,1472.0,503.2,5338,right
51,1,continuous,17,25,fixationCross,15100625.0,15104291.0,3666.0,17,L,15099772,15099982,212,1475.0,501.1,5567,right
51,1,continuous,17,25,fixationCross,15100625.0,15104291.0,3666.0,17,L,15100224,15100320,98,1153.8,489.2,5831,NA
51,1,continuous,17,25,trial,15100625.0,15104291.0,3666.0,17,L,15100346,15100798,454,974.9,540.1,6068,NA
51,1,continuous,17,25,trial,15100625.0,15104291.0,3666.0,17,L,15100842,15101006,166,567.9,536.7,5768,left
51,1,continuous,17,25,trial,15100625.0,15104291.0,3666.0,17,L,15101020,15101282,264,576.9,499.9,5346,left
51,1,continuous,17,25,trial,15100625.0,15104291.0,3666.0,17,L,15101318,15101484,168,350.4,586.1,4989,left
51,1,continuous,17,25,trial,15100625.0,15104291.0,3666.0,17,L,15101552,15101670,120,1436.6,489.6,4829,right
51,1,continuous,17,25,trial,15100625.0,15104291.0,3666.0,17,L,15101692,15102366,676,1469.1,416.0,4820,right
51,1,continuous,17,25,trial,15100625.0,15104291.0,3666.0,17,L,15102430,15102590,162,623.3,507.9,5227,left
51,1,continuous,17,25,trial,15100625.0,15104291.0,3666.0,17,L,15102602,15102836,236,597.0,487.9,5309,left
51,1,continuous,17,25,trial,15100625.0,15104291.0,3666.0,17,L,15102868,15103196,330,395.3,604.6,5398,left
51,1,continuous,17,25,trial,15100625.0,15104291.0,3666.0,17,L,15103238,15103404,168,560.5,912.2,5406,NA
51,1,continuous,17,25,postResponse,15100625.0,15104291.0,3666.0,17,L,15103442,15104638,1198,656.2,529.3,5501,left
51,1,continuous,18,53,fixationCross,15105275.0,15109025.0,3750.0,18,L,15104714,15104772,60,648.0,522.8,5254,left
51,1,continuous,18,53,fixationCross,15105275.0,15109025.0,3750.0,18,L,15104814,15105158,346,909.4,475.4,5322,NA
51,1,continuous,18,53,trial,15105275.0,15109025.0,3750.0,18,L,15105182,15105456,276,994.3,529.3,5600,NA
51,1,continuous,18,53,trial,15105275.0,15109025.0,3750.0,18,L,15105500,15105700,202,605.2,531.7,5908,left
51,1,continuous,18,53,trial,15105275.0,15109025.0,3750.0,18,L,15105726,15105894,170,451.4,586.3,5899,left
51,1,continuous,18,53,trial,15105275.0,15109025.0,3750.0,18,L,15105956,15106326,372,1408.8,552.0,5607,right
51,1,continuous,18,53,trial,15105275.0,15109025.0,3750.0,18,L,15106348,15106554,208,1504.2,586.4,5475,right
51,1,continuous,18,53,trial,15105275.0,15109025.0,3750.0,18,L,15106586,15106822,238,1585.5,444.9,5320,right
51,1,continuous,18,53,trial,15105275.0,15109025.0,3750.0,18,L,15106890,15107510,622,545.3,563.3,5564,left
51,1,continuous,18,53,trial,15105275.0,15109025.0,3750.0,18,L,15107576,15108212,638,1457.4,529.0,5410,right
51,1,continuous,18,53,trial,15105275.0,15109025.0,3750.0,18,L,15108238,15108400,164,1400.6,460.1,5394,right
51,1,continuous,18,53,trial,15105275.0,15109025.0,3750.0,18,L,15108460,15108836,378,1071.2,958.9,5572,likertHorizontal
51,1,continuous,18,53,trial,15105275.0,15109025.0,3750.0,18,L,15108858,15109326,470,993.4,1007.5,5721,likertHorizontal
51,1,continuous,19,9,fixationCross,15110124.0,15112075.0,1951.0,19,L,15109454,15109828,376,1002.5,374.2,5726,NA
51,1,continuous,19,9,trial,15110124.0,15112075.0,1951.0,19,L,15109852,15110360,510,970.9,536.0,5944,NA
51,1,continuous,19,9,trial,15110124.0,15112075.0,1951.0,19,L,15110406,15110588,184,590.6,599.7,5613,left
51,1,continuous,19,9,trial,15110124.0,15112075.0,1951.0,19,L,15110614,15110930,318,480.8,662.6,5347,left
51,1,continuous,19,9,trial,15110124.0,15112075.0,1951.0,19,L,15110952,15111140,190,366.0,610.4,5097,left
51,1,continuous,19,9,trial,15110124.0,15112075.0,1951.0,19,L,15111168,15111570,404,522.5,657.2,4990,left
51,1,continuous,19,9,trial,15110124.0,15112075.0,1951.0,19,L,15111598,15111774,178,649.4,573.1,5132,left
51,1,continuous,19,9,postResponse,15110124.0,15112075.0,1951.0,19,L,15111826,15112420,596,1307.8,531.0,5346,right
51,1,continuous,20,69,fixationCross,15113208.0,15116375.0,3167.0,20,L,15112520,15112692,174,1298.7,538.6,5270,right
51,1,continuous,20,69,fixationCross,15113208.0,15116375.0,3167.0,20,L,15112746,15112968,224,806.9,517.1,5322,NA
51,1,continuous,20,69,trial,15113208.0,15116375.0,3167.0,20,L,15112996,15113358,364,983.6,555.6,5435,NA
51,1,continuous,20,69,trial,15113208.0,15116375.0,3167.0,20,L,15113416,15113728,314,504.5,560.4,5452,left
51,1,continuous,20,69,trial,15113208.0,15116375.0,3167.0,20,L,15113744,15113894,152,502.8,589.5,5195,left
51,1,continuous,20,69,trial,15113208.0,15116375.0,3167.0,20,L,15113958,15114194,238,1432.2,507.4,4896,right
51,1,continuous,20,69,trial,15113208.0,15116375.0,3167.0,20,L,15114220,15114622,404,1582.3,473.6,4774,right
51,1,continuous,20,69,trial,15113208.0,15116375.0,3167.0,20,L,15114646,15115060,416,1444.4,567.9,4918,right
51,1,continuous,20,69,trial,15113208.0,15116375.0,3167.0,20,L,15115124,15115334,212,662.6,476.2,5126,left
51,1,continuous,20,69,trial,15113208.0,15116375.0,3167.0,20,L,15115382,15115640,260,965.1,912.5,5179,likertHorizontal
51,1,continuous,20,69,trial,15113208.0,15116375.0,3167.0,20,L,15115668,15115908,242,1166.8,871.9,5211,likertHorizontal
51,1,continuous,20,69,postResponse,15113208.0,15116375.0,3167.0,20,L,15115962,15116720,760,1418.1,520.9,5264,right
51,1,continuous,21,50,fixationCross,15117408.0,15120659.0,3251.0,21,L,15116820,15116972,154,1404.3,513.4,5143,right
51,1,continuous,21,50,fixationCross,15117408.0,15120659.0,3251.0,21,L,15117150,15117282,134,1017.3,540.6,5386,NA
51,1,continuous,21,50,fixationCross,15117408.0,15120659.0,3251.0,21,L,15117294,15117388,96,977.5,543.2,5542,NA
51,1,continuous,21,50,trial,15117408.0,15120659.0,3251.0,21,L,15117584,15117790,208,964.3,536.4,5780,NA
51,1,continuous,21,50,trial,15117408.0,15120659.0,3251.0,21,L,15117836,15118080,246,558.0,607.3,5715,left
51,1,continuous,21,50,trial,15117408.0,15120659.0,3251.0,21,L,15118104,15118340,238,421.9,655.9,5461,left
51,1,continuous,21,50,trial,15117408.0,15120659.0,3251.0,21,L,15118360,15118536,178,440.6,561.0,5097,left
51,1,continuous,21,50,trial,15117408.0,15120659.0,3251.0,21,L,15118558,15118690,134,549.4,546.5,4928,left
51,1,continuous,21,50,trial,15117408.0,15120659.0,3251.0,21,L,15118754,15119038,286,1538.7,591.4,4726,right
51,1,continuous,21,50,trial,15117408.0,15120659.0,3251.0,21,L,15119058,15119268,212,1447.5,592.3,4769,right
51,1,continuous,21,50,trial,15117408.0,15120659.0,3251.0,21,L,15119292,15119614,324,1473.4,490.0,4920,right
51,1,continuous,21,50,trial,15117408.0,15120659.0,3251.0,21,L,15119666,15119824,160,873.3,626.0,5221,NA
51,1,continuous,21,50,trial,15117408.0,15120659.0,3251.0,21,L,15119862,15120392,532,980.2,948.3,5375,likertHorizontal
51,1,continuous,21,50,trial,15117408.0,15120659.0,3251.0,21,L,15120440,15120668,230,634.6,618.8,5627,left
51,1,continuous,21,50,trial,15117408.0,15120659.0,3251.0,21,L,15120694,15120862,170,512.0,558.1,5534,left
51,1,continuous,21,50,postResponse,15117408.0,15120659.0,3251.0,21,L,15120924,15120992,70,807.5,148.5,5148,NA
51,1,continuous,22,63,fixationCross,15122242.0,15126875.0,4633.0,22,L,15121124,15121690,568,1154.4,122.9,4769,NA
51,1,continuous,22,63,fixationCross,15122242.0,15126875.0,4633.0,22,L,15121706,15121920,216,1094.2,119.2,4743,NA
51,1,continuous,22,63,trial,15122242.0,15126875.0,4633.0,22,L,15121976,15122496,522,989.9,554.2,5030,NA
51,1,continuous,22,63,trial,15122242.0,15126875.0,4633.0,22,L,15122542,15122682,142,572.4,547.3,5382,left
51,1,continuous,22,63,trial,15122242.0,15126875.0,4633.0,22,L,15122698,15122894,198,524.4,553.4,5526,left
51,1,continuous,22,63,trial,15122242.0,15126875.0,4633.0,22,L,15122952,15123130,180,1351.7,550.3,5595,right
51,1,continuous,22,63,trial,15122242.0,15126875.0,4633.0,22,L,15123154,15123330,178,1461.4,581.8,5597,right
51,1,continuous,22,63,trial,15122242.0,15126875.0,4633.0,22,L,15123342,15124152,812,1435.8,603.4,5440,right
51,1,continuous,22,63,trial,15122242.0,15126875.0,4633.0,22,L,15124164,15124660,498,1407.4,572.8,5222,right
51,1,continuous,22,63,trial,15122242.0,15126875.0,4633.0,22,L,15124670,15125018,350,1439.3,580.8,5197,right
51,1,continuous,22,63,trial,15122242.0,15126875.0,4633.0,22,L,15125082,15125722,642,510.2,528.4,5152,left
51,1,continuous,22,63,trial,15122242.0,15126875.0,4633.0,22,L,15125788,15125990,204,1467.7,554.1,4781,right
51,1,continuous,22,63,trial,15122242.0,15126875.0,4633.0,22,L,15126006,15126490,486,1420.9,579.7,4838,right
51,1,continuous,22,63,trial,15122242.0,15126875.0,4633.0,22,L,15126536,15126776,242,1168.3,919.0,5099,likertHorizontal
51,1,continuous,22,63,postResponse,15122242.0,15126875.0,4633.0,22,L,15126826,15127224,400,1101.3,553.5,5090,NA
51,1,continuous,23,29,fixationCross,15127809.0,15130842.0,3033.0,23,L,15127384,15127712,330,1044.0,541.9,5234,NA
51,1,continuous,23,29,trial,15127809.0,15130842.0,3033.0,23,L,15127728,15128018,292,977.6,539.3,5381,NA
51,1,continuous,23,29,trial,15127809.0,15130842.0,3033.0,23,L,15128060,15128220,162,604.0,460.7,5241,left
51,1,continuous,23,29,trial,15127809.0,15130842.0,3033.0,23,L,15128232,15129302,1072,546.5,451.8,5023,left
51,1,continuous,23,29,trial,15127809.0,15130842.0,3033.0,23,L,15129368,15129524,158,1537.6,533.0,4939,right
51,1,continuous,23,29,trial,15127809.0,15130842.0,3033.0,23,L,15129544,15129906,364,1459.7,507.8,4998,right
51,1,continuous,23,29,trial,15127809.0,15130842.0,3033.0,23,L,15129934,15130080,148,1663.6,519.7,4836,right
51,1,continuous,23,29,trial,15127809.0,15130842.0,3033.0,23,L,15130154,15130340,188,553.4,505.3,4862,left
51,1,continuous,23,29,postResponse,15127809.0,15130842.0,3033.0,23,L,15130358,15131190,834,560.7,463.3,4817,left
51,1,continuous,24,73,fixationCross,15131992.0,15134042.0,2050.0,24,L,15131290,15131522,234,553.8,465.9,4928,left
51,1,continuous,24,73,fixationCross,15131992.0,15134042.0,2050.0,24,L,15131582,15131758,178,1063.7,569.7,5006,NA
51,1,continuous,24,73,trial,15131992.0,15134042.0,2050.0,24,L,15131778,15132224,448,971.1,541.8,5229,NA
51,1,continuous,24,73,trial,15131992.0,15134042.0,2050.0,24,L,15132268,15132484,218,583.5,475.6,5231,left
51,1,continuous,24,73,trial,15131992.0,15134042.0,2050.0,24,L,15132494,15132638,146,604.2,492.4,5062,left
51,1,continuous,24,73,trial,15131992.0,15134042.0,2050.0,24,L,15132662,15132884,224,440.8,486.3,4930,left
51,1,continuous,24,73,trial,15131992.0,15134042.0,2050.0,24,L,15132910,15133020,112,599.1,485.4,4863,left
51,1,continuous,24,73,trial,15131992.0,15134042.0,2050.0,24,L,15133080,15133214,136,1448.1,560.7,4778,right
51,1,continuous,24,73,trial,15131992.0,15134042.0,2050.0,24,L,15133234,15133684,452,1523.6,571.4,4695,right
51,1,continuous,24,73,trial,15131992.0,15134042.0,2050.0,24,L,15133720,15134082,364,1127.3,515.6,4670,NA
51,1,continuous,24,73,postResponse,15131992.0,15134042.0,2050.0,24,L,15134106,15134386,282,990.1,535.8,4794,NA
51,1,continuous,25,26,trial,15134975.0,15137242.0,2267.0,25,L,15134486,15135370,886,978.8,534.9,5210,NA
51,1,continuous,25,26,trial,15134975.0,15137242.0,2267.0,25,L,15135416,15135546,132,652.3,604.8,5091,left
51,1,continuous,25,26,trial,15134975.0,15137242.0,2267.0,25,L,15135580,15135824,246,461.9,681.8,4842,left
51,1,continuous,25,26,trial,15134975.0,15137242.0,2267.0,25,L,15135846,15135970,126,468.9,586.0,4662,left
51,1,continuous,25,26,trial,15134975.0,15137242.0,2267.0,25,L,15136034,15136196,164,1408.7,533.9,4424,right
51,1,continuous,25,26,trial,15134975.0,15137242.0,2267.0,25,L,15136218,15136834,618,1418.3,471.4,4235,right
51,1,continuous,25,26,trial,15134975.0,15137242.0,2267.0,25,L,15136888,15137112,226,866.9,511.6,4465,NA
51,1,continuous,25,26,postResponse,15134975.0,15137242.0,2267.0,25,L,15137150,15137586,438,627.6,550.9,4755,left
51,1,continuous,26,73,fixationCross,15161159.0,15163908.0,2749.0,26,L,15160679,15160841,164,999.3,-13.4,3946,NA
51,1,continuous,26,73,fixationCross,15161159.0,15163908.0,2749.0,26,L,15160909,15161055,148,989.1,631.0,4435,NA
51,1,continuous,26,73,trial,15161159.0,15163908.0,2749.0,26,L,15161077,15161563,488,987.6,561.3,4861,NA
51,1,continuous,26,73,trial,15161159.0,15163908.0,2749.0,26,L,15161577,15161685,110,972.4,536.9,5190,NA
51,1,continuous,26,73,trial,15161159.0,15163908.0,2749.0,26,L,15161733,15162035,304,493.1,554.5,5101,left
51,1,continuous,26,73,trial,15161159.0,15163908.0,2749.0,26,L,15162063,15162355,294,508.5,491.8,4767,left
51,1,continuous,26,73,trial,15161159.0,15163908.0,2749.0,26,L,15162421,15162847,428,1423.2,548.0,4297,right
51,1,continuous,26,73,trial,15161159.0,15163908.0,2749.0,26,L,15163047,15163175,130,1267.0,773.2,4254,NA
51,1,continuous,26,73,trial,15161159.0,15163908.0,2749.0,26,L,15163211,15163363,154,1063.5,997.6,4342,likertHorizontal
51,1,continuous,26,73,trial,15161159.0,15163908.0,2749.0,26,L,15163419,15163633,216,1318.2,528.8,4514,right
51,1,continuous,26,73,postResponse,15161159.0,15163908.0,2749.0,26,L,15163663,15164253,592,1465.3,503.0,4659,right
51,1,continuous,27,23,fixationCross,15164925.0,15167976.0,3051.0,27,L,15164327,15164609,284,1452.6,500.4,4779,right
51,1,continuous,27,23,fixationCross,15164925.0,15167976.0,3051.0,27,L,15164653,15164831,180,960.1,562.6,5055,NA
51,1,continuous,27,23,trial,15164925.0,15167976.0,3051.0,27,L,15164841,15165147,308,971.9,545.9,5160,NA
51,1,continuous,27,23,trial,15164925.0,15167976.0,3051.0,27,L,15165191,15165461,272,545.2,566.6,5149,left
51,1,continuous,27,23,trial,15164925.0,15167976.0,3051.0,27,L,15165485,15165621,138,448.3,466.6,4930,left
51,1,continuous,27,23,trial,15164925.0,15167976.0,3051.0,27,L,15165643,15166075,434,415.5,417.8,4600,left
51,1,continuous,27,23,trial,15164925.0,15167976.0,3051.0,27,L,15166145,15166265,122,1472.8,517.5,4424,right
51,1,continuous,27,23,trial,15164925.0,15167976.0,3051.0,27,L,15166293,15166843,552,1483.5,394.4,4389,right
51,1,continuous,27,23,trial,15164925.0,15167976.0,3051.0,27,L,15166919,15167265,348,474.3,561.9,4601,left
51,1,continuous,27,23,trial,15164925.0,15167976.0,3051.0,27,L,15167291,15167681,392,643.8,560.7,4612,left
51,1,continuous,27,23,trial,15164925.0,15167976.0,3051.0,27,L,15167719,15168247,530,471.2,435.8,4535,left
51,1,continuous,28,66,fixationCross,15168909.0,15171492.0,2583.0,28,L,15168397,15168569,174,1153.5,400.2,4460,NA
51,1,continuous,28,66,fixationCross,15168909.0,15171492.0,2583.0,28,L,15168597,15168817,222,949.5,485.1,4589,NA
51,1,continuous,28,66,trial,15168909.0,15171492.0,2583.0,28,L,15168837,15169049,214,988.6,551.8,4889,NA
51,1,continuous,28,66,trial,15168909.0,15171492.0,2583.0,28,L,15169101,15169243,144,511.5,477.9,5088,left
51,1,continuous,28,66,trial,15168909.0,15171492.0,2583.0,28,L,15169263,15169419,158,427.0,468.5,5008,left
51,1,continuous,28,66,trial,15168909.0,15171492.0,2583.0,28,L,15169481,15169841,362,1368.7,501.1,4655,right
51,1,continuous,28,66,trial,15168909.0,15171492.0,2583.0,28,L,15169865,15170071,208,1507.6,521.7,4498,right
51,1,continuous,28,66,trial,15168909.0,15171492.0,2583.0,28,L,15170143,15170333,192,449.5,495.5,4446,left
51,1,continuous,28,66,trial,15168909.0,15171492.0,2583.0,28,L,15170353,15170539,188,424.9,438.2,4353,left
51,1,continuous,28,66,trial,15168909.0,15171492.0,2583.0,28,L,15170583,15170763,182,615.8,713.3,4346,left
51,1,continuous,28,66,trial,15168909.0,15171492.0,2583.0,28,L,15170803,15170941,140,989.0,959.9,4365,likertHorizontal
51,1,continuous,28,66,trial,15168909.0,15171492.0,2583.0,28,L,15170991,15171269,280,1375.3,593.8,4407,right
51,1,continuous,28,66,trial,15168909.0,15171492.0,2583.0,28,L,15171299,15171781,484,1340.5,478.2,4592,right
51,1,continuous,29,93,fixationCross,15172425.0,15174625.0,2200.0,29,L,15171983,15172347,366,925.8,479.5,4782,NA
51,1,continuous,29,93,trial,15172425.0,15174625.0,2200.0,29,L,15172369,15172583,216,986.8,531.9,5135,NA
51,1,continuous,29,93,trial,15172425.0,15174625.0,2200.0,29,L,15172633,15172811,180,520.9,460.4,4963,left
51,1,continuous,29,93,trial,15172425.0,15174625.0,2200.0,29,L,15172829,15172999,172,522.9,405.1,4723,left
51,1,continuous,29,93,trial,15172425.0,15174625.0,2200.0,29,L,15173061,15173285,226,1398.8,499.0,4505,right
51,1,continuous,29,93,trial,15172425.0,15174625.0,2200.0,29,L,15173299,15173947,650,1459.1,503.8,4362,right
51,1,continuous,29,93,trial,15172425.0,15174625.0,2200.0,29,L,15173963,15174109,148,1497.7,479.3,4336,right
51,1,continuous,29,93,trial,15172425.0,15174625.0,2200.0,29,L,15174177,15174415,240,498.8,470.9,4478,left
51,1,continuous,29,93,trial,15172425.0,15174625.0,2200.0,29,L,15174435,15174635,202,536.1,402.0,4569,left
51,1,continuous,29,93,postResponse,15172425.0,15174625.0,2200.0,29,L,15174695,15174975,282,1408.0,511.4,4536,right
51,1,continuous,30,71,trial,15175558.0,15178676.0,3118.0,30,L,15175107,15175735,630,963.4,530.7,4993,NA
51,1,continuous,30,71,trial,15175558.0,15178676.0,3118.0,30,L,15175777,15175949,174,556.1,526.3,5111,left
51,1,continuous,30,71,trial,15175558.0,15178676.0,3118.0,30,L,15175973,15176323,352,468.7,605.2,4799,left
51,1,continuous,30,71,trial,15175558.0,15178676.0,3118.0,30,L,15176343,15176557,216,517.4,673.4,4503,left
51,1,continuous,30,71,trial,15175558.0,15178676.0,3118.0,30,L,15176619,15176831,214,1430.9,555.0,4318,right
51,1,continuous,30,71,trial,15175558.0,15178676.0,3118.0,30,L,15176849,15177337,490,1499.3,568.1,4286,right
51,1,continuous,30,71,trial,15175558.0,15178676.0,3118.0,30,L,15177411,15177809,400,567.5,476.9,4408,left
51,1,continuous,30,71,trial,15175558.0,15178676.0,3118.0,30,L,15177867,15177985,120,1021.5,926.2,4800,likertHorizontal
51,1,continuous,30,71,trial,15175558.0,15178676.0,3118.0,30,L,15178041,15178289,250,489.8,514.8,4849,left
51,1,continuous,30,71,trial,15175558.0,15178676.0,3118.0,30,L,15178317,15178955,640,492.7,605.8,5008,left
51,1,continuous,31,20,fixationCross,15179776.0,15184709.0,4933.0,31,L,15179093,15179481,390,1219.3,498.0,5063,right
51,1,continuous,31,20,trial,15179776.0,15184709.0,4933.0,31,L,15179515,15179951,438,990.4,567.4,5212,NA
51,1,continuous,31,20,trial,15179776.0,15184709.0,4933.0,31,L,15180005,15180353,350,539.0,546.8,5051,left
51,1,continuous,31,20,trial,15179776.0,15184709.0,4933.0,31,L,15180417,15180917,502,1399.9,487.0,4812,right
51,1,continuous,31,20,trial,15179776.0,15184709.0,4933.0,31,L,15180981,15181475,496,548.4,524.9,5139,left
51,1,continuous,31,20,trial,15179776.0,15184709.0,4933.0,31,L,15181511,15181801,292,417.8,669.3,5161,left
51,1,continuous,31,20,trial,15179776.0,15184709.0,4933.0,31,L,15181867,15182295,430,1397.1,470.7,5103,right
51,1,continuous,31,20,trial,15179776.0,15184709.0,4933.0,31,L,15182309,15182777,470,1354.9,462.9,5266,right
51,1,continuous,31,20,trial,15179776.0,15184709.0,4933.0,31,L,15182811,15183095,286,1590.6,527.8,5096,right
51,1,continuous,31,20,trial,15179776.0,15184709.0,4933.0,31,L,15183123,15183397,276,1398.1,462.2,5090,right
51,1,continuous,31,20,trial,15179776.0,15184709.0,4933.0,31,L,15183461,15183831,372,569.4,543.1,5099,left
51,1,continuous,31,20,trial,15179776.0,15184709.0,4933.0,31,L,15183851,15184133,284,459.6,498.5,5101,left
51,1,continuous,31,20,trial,15179776.0,15184709.0,4933.0,31,L,15184171,15184309,140,431.2,687.8,5047,left
51,1,continuous,31,20,trial,15179776.0,15184709.0,4933.0,31,L,15184351,15184567,218,696.8,803.2,5114,NA
51,1,continuous,31,20,postResponse,15179776.0,15184709.0,4933.0,31,L,15184601,15185051,452,615.3,559.3,5215,left
51,1,continuous,32,72,fixationCross,15185776.0,15187842.0,2066.0,32,L,15185151,15185475,326,614.3,571.9,5249,left
51,1,continuous,32,72,trial,15185776.0,15187842.0,2066.0,32,L,15185513,15185947,436,979.1,568.4,5165,NA
51,1,continuous,32,72,trial,15185776.0,15187842.0,2066.0,32,L,15185993,15186343,352,554.7,591.5,5079,left
51,1,continuous,32,72,trial,15185776.0,15187842.0,2066.0,32,L,15186403,15186813,412,1397.8,600.8,4758,right
51,1,continuous,32,72,trial,15185776.0,15187842.0,2066.0,32,L,15186839,15187083,246,1599.8,600.9,4586,right
51,1,continuous,32,72,trial,15185776.0,15187842.0,2066.0,32,L,15187137,15187355,220,1148.2,906.7,4726,likertHorizontal
51,1,continuous,32,72,postResponse,15185776.0,15187842.0,2066.0,32,L,15187389,15188191,804,1363.0,601.5,5123,right
51,1,continuous,33,71,fixationCross,15188925.0,15191092.0,2167.0,33,L,15188293,15188399,108,1351.2,594.3,5169,right
51,1,continuous,33,71,fixationCross,15188925.0,15191092.0,2167.0,33,L,15188431,15188631,202,1090.8,604.0,5207,NA
51,1,continuous,33,71,trial,15188925.0,15191092.0,2167.0,33,L,15188651,15189085,436,979.7,567.2,5184,NA
51,1,continuous,33,71,trial,15188925.0,15191092.0,2167.0,33,L,15189131,15189259,130,547.8,493.4,5147,left
51,1,continuous,33,71,trial,15188925.0,15191092.0,2167.0,33,L,15189277,15189717,442,553.8,433.2,5006,left
51,1,continuous,33,71,trial,15188925.0,15191092.0,2167.0,33,L,15189775,15190007,234,1355.4,574.9,4841,right
51,1,continuous,33,71,trial,15188925.0,15191092.0,2167.0,33,L,15190029,15190177,150,1421.3,517.1,4763,right
51,1,continuous,33,71,trial,15188925.0,15191092.0,2167.0,33,L,15190197,15191073,878,1346.5,505.6,5016,right
51,1,continuous,33,71,postResponse,15188925.0,15191092.0,2167.0,33,L,15191153,15191441,290,1359.7,490.2,5136,right
51,1,continuous,34,27,fixationCross,15192226.0,15197576.0,5350.0,34,L,15191581,15191899,320,1186.0,606.2,5317,right
51,1,continuous,34,27,trial,15192226.0,15197576.0,5350.0,34,L,15191925,15192381,458,969.1,547.9,5385,NA
51,1,continuous,34,27,trial,15192226.0,15197576.0,5350.0,34,L,15192425,15192755,332,588.2,468.5,5224,left
51,1,continuous,34,27,trial,15192226.0,15197576.0,5350.0,34,L,15192765,15192939,176,619.0,460.0,5042,left
51,1,continuous,34,27,trial,15192226.0,15197576.0,5350.0,34,L,15193001,15193299,300,1504.8,493.7,4733,right
51,1,continuous,34,27,trial,15192226.0,15197576.0,5350.0,34,L,15193315,15193641,328,1445.2,506.1,4751,right
51,1,continuous,34,27,trial,15192226.0,15197576.0,5350.0,34,L,15193701,15194053,354,701.0,475.7,4934,left
51,1,continuous,34,27,trial,15192226.0,15197576.0,5350.0,34,L,15194191,15195065,876,605.4,469.4,5246,left
51,1,continuous,34,27,trial,15192226.0,15197576.0,5350.0,34,L,15195085,15195605,522,690.3,506.7,4897,left
51,1,continuous,34,27,trial,15192226.0,15197576.0,5350.0,34,L,15195625,15196383,760,605.5,474.5,5004,left
51,1,continuous,34,27,trial,15192226.0,15197576.0,5350.0,34,L,15196545,15196929,386,669.4,485.7,5023,left
51,1,continuous,34,27,trial,15192226.0,15197576.0,5350.0,34,L,15196959,15197193,236,519.4,521.5,5009,left
51,1,continuous,34,27,trial,15192226.0,15197576.0,5350.0,34,L,15197259,15197609,352,1482.7,520.4,4711,right
51,1,continuous,34,27,trial,15192226.0,15197576.0,5350.0,34,L,15197621,15197817,198,1524.7,505.7,4688,right
51,1,continuous,35,40,fixationCross,15198710.0,15206310.0,7600.0,35,L,15198001,15198399,400,1073.1,493.1,5018,NA
51,1,continuous,35,40,trial,15198710.0,15206310.0,7600.0,35,L,15198421,15198907,488,1005.1,564.9,5252,NA
51,1,continuous,35,40,trial,15198710.0,15206310.0,7600.0,35,L,15198961,15199099,140,522.2,571.6,5124,left
51,1,continuous,35,40,trial,15198710.0,15206310.0,7600.0,35,L,15199117,15199307,192,452.9,574.5,5001,left
51,1,continuous,35,40,trial,15198710.0,15206310.0,7600.0,35,L,15199377,15199991,616,1409.9,536.9,4700,right
51,1,continuous,35,40,trial,15198710.0,15206310.0,7600.0,35,L,15200003,15200515,514,1385.6,546.5,5007,right
51,1,continuous,35,40,trial,15198710.0,15206310.0,7600.0,35,L,15200579,15200847,270,591.0,588.1,5262,left
51,1,continuous,35,40,trial,15198710.0,15206310.0,7600.0,35,L,15200987,15201201,216,1325.9,568.7,5173,right
51,1,continuous,35,40,trial,15198710.0,15206310.0,7600.0,35,L,15201259,15201425,168,1801.6,995.5,5156,NA
51,1,continuous,35,40,trial,15198710.0,15206310.0,7600.0,35,L,15201459,15201843,386,1516.4,1040.3,5396,NA
51,1,continuous,35,40,trial,15198710.0,15206310.0,7600.0,35,L,15201889,15201981,94,1509.5,596.6,5393,right
51,1,continuous,35,40,trial,15198710.0,15206310.0,7600.0,35,L,15202987,15203199,214,1463.2,621.0,5590,right
51,1,continuous,35,40,trial,15198710.0,15206310.0,7600.0,35,L,15203209,15203335,128,1421.3,597.4,5510,right
51,1,continuous,35,40,trial,15198710.0,15206310.0,7600.0,35,L,15203477,15203651,176,555.4,609.6,5333,left
51,1,continuous,35,40,trial,15198710.0,15206310.0,7600.0,35,L,15203673,15204043,372,478.3,555.3,5216,left
51,1,continuous,35,40,trial,15198710.0,15206310.0,7600.0,35,L,15204071,15204521,452,667.1,663.0,5002,left
51,1,continuous,35,40,trial,15198710.0,15206310.0,7600.0,35,L,15204547,15205081,536,507.5,595.6,5105,left
51,1,continuous,35,40,trial,15198710.0,15206310.0,7600.0,35,L,15205137,15205257,122,716.9,903.4,5348,NA
51,1,continuous,35,40,trial,15198710.0,15206310.0,7600.0,35,L,15205301,15205583,284,547.7,543.8,5309,left
51,1,continuous,35,40,trial,15198710.0,15206310.0,7600.0,35,L,15205643,15205847,206,1338.1,553.6,5267,right
51,1,continuous,35,40,trial,15198710.0,15206310.0,7600.0,35,L,15205869,15206133,266,1414.7,535.0,5159,right
51,1,continuous,35,40,trial,15198710.0,15206310.0,7600.0,35,L,15206199,15206297,100,2268.5,608.3,4878,NA
51,1,continuous,35,40,trial,15198710.0,15206310.0,7600.0,35,L,15206357,15206617,262,1500.5,540.4,5198,right
51,1,continuous,36,38,fixationCross,15207243.0,15210576.0,3333.0,36,L,15206787,15206921,136,1121.3,514.7,5136,NA
51,1,continuous,36,38,fixationCross,15207243.0,15210576.0,3333.0,36,L,15206957,15207175,220,883.7,534.2,5335,NA
51,1,continuous,36,38,trial,15207243.0,15210576.0,3333.0,36,L,15207201,15207401,202,1002.2,568.7,5501,NA
51,1,continuous,36,38,trial,15207243.0,15210576.0,3333.0,36,L,15207453,15207759,308,572.7,543.9,5318,left
51,1,continuous,36,38,trial,15207243.0,15210576.0,3333.0,36,L,15207897,15208381,486,1573.4,574.1,4747,right
51,1,continuous,36,38,trial,15207243.0,15210576.0,3333.0,36,L,15208407,15208577,172,1438.2,498.2,4824,right
51,1,continuous,36,38,trial,15207243.0,15210576.0,3333.0,36,L,15208639,15209055,418,661.9,537.8,5018,left
51,1,continuous,36,38,trial,15207243.0,15210576.0,3333.0,36,L,15209087,15209419,334,483.3,513.1,5250,left
51,1,continuous,36,38,trial,15207243.0,15210576.0,3333.0,36,L,15209457,15210253,798,697.1,566.6,5116,left
51,1,continuous,36,38,postResponse,15207243.0,15210576.0,3333.0,36,L,15210279,15210909,632,579.0,532.7,5052,left
51,1,continuous,37,75,fixationCross,15211776.0,15213993.0,2217.0,37,L,15211011,15211461,452,1118.8,528.5,4907,NA
51,1,continuous,37,75,trial,15211776.0,15213993.0,2217.0,37,L,15211487,15211923,438,1016.5,566.9,5189,NA
51,1,continuous,37,75,trial,15211776.0,15213993.0,2217.0,37,L,15211971,15212205,236,532.6,522.2,5246,left
51,1,continuous,37,75,trial,15211776.0,15213993.0,2217.0,37,L,15212219,15212567,350,550.4,485.0,4866,left
51,1,continuous,37,75,trial,15211776.0,15213993.0,2217.0,37,L,15212631,15212915,286,1452.7,496.5,4425,right
51,1,continuous,37,75,trial,15211776.0,15213993.0,2217.0,37,L,15212931,15213383,454,1394.0,514.1,4368,right
51,1,continuous,37,75,trial,15211776.0,15213993.0,2217.0,37,L,15213397,15213985,590,1372.6,534.0,4504,right
51,1,continuous,37,75,trial,15211776.0,15213993.0,2217.0,37,L,15214003,15214241,240,1434.2,501.1,4459,right
51,1,continuous,38,28,fixationCross,15215060.0,15216926.0,1866.0,38,L,15214465,15214749,286,905.6,634.7,4804,NA
51,1,continuous,38,28,trial,15215060.0,15216926.0,1866.0,38,L,15214773,15215277,506,1004.0,566.6,5043,NA
51,1,continuous,38,28,trial,15215060.0,15216926.0,1866.0,38,L,15215327,15215747,422,535.0,573.7,4669,left
51,1,continuous,38,28,trial,15215060.0,15216926.0,1866.0,38,L,15215815,15216233,420,1477.0,516.0,4144,right
51,1,continuous,38,28,trial,15215060.0,15216926.0,1866.0,38,L,15216295,15216547,254,790.7,636.9,4333,NA
51,1,continuous,38,28,postResponse,15215060.0,15216926.0,1866.0,38,L,15216715,15217261,548,605.4,555.4,4783,left
51,1,continuous,39,74,fixationCross,15218193.0,15222927.0,4734.0,39,L,15217361,15217561,202,575.0,567.0,4694,left
51,1,continuous,39,74,fixationCross,15218193.0,15222927.0,4734.0,39,L,15217737,15217879,144,700.5,537.5,4739,left
51,1,continuous,39,74,trial,15218193.0,15222927.0,4734.0,39,L,15217911,15218353,444,1005.7,568.9,4988,NA
51,1,continuous,39,74,trial,15218193.0,15222927.0,4734.0,39,L,15218399,15218783,386,581.6,536.1,5116,left
51,1,continuous,39,74,trial,15218193.0,15222927.0,4734.0,39,L,15218841,15219171,332,1347.9,552.2,4873,right
51,1,continuous,39,74,trial,15218193.0,15222927.0,4734.0,39,L,15219195,15219823,630,1504.5,517.4,4797,right
51,1,continuous,39,74,trial,15218193.0,15222927.0,4734.0,39,L,15219841,15220417,578,1428.0,498.5,4826,right
51,1,continuous,39,74,trial,15218193.0,15222927.0,4734.0,39,L,15220483,15221223,742,562.9,532.6,4865,left
51,1,continuous,39,74,trial,15218193.0,15222927.0,4734.0,39,L,15221245,15221619,376,447.2,530.8,4762,left
51,1,continuous,39,74,trial,15218193.0,15222927.0,4734.0,39,L,15221705,15221837,134,1243.8,517.0,4720,right
51,1,continuous,39,74,trial,15218193.0,15222927.0,4734.0,39,L,15221873,15222281,410,1518.6,514.4,4719,right
51,1,continuous,39,74,trial,15218193.0,15222927.0,4734.0,39,L,15222303,15222463,162,1394.3,479.6,4880,right
51,1,continuous,39,74,trial,15218193.0,15222927.0,4734.0,39,L,15222525,15223201,678,528.2,525.9,4793,left
51,1,continuous,40,29,fixationCross,15224010.0,15225843.0,1833.0,40,L,15223369,15223717,350,877.0,451.9,4766,NA
51,1,continuous,40,29,trial,15224010.0,15225843.0,1833.0,40,L,15223745,15224183,440,989.9,563.9,5017,NA
51,1,continuous,40,29,trial,15224010.0,15225843.0,1833.0,40,L,15224229,15224511,284,581.5,520.7,4940,left
51,1,continuous,40,29,trial,15224010.0,15225843.0,1833.0,40,L,15224539,15224699,162,453.0,553.5,4787,left
51,1,continuous,40,29,trial,15224010.0,15225843.0,1833.0,40,L,15224763,15225117,356,1435.4,525.1,4691,right
51,1,continuous,40,29,trial,15224010.0,15225843.0,1833.0,40,L,15225141,15225279,140,1334.9,436.8,4824,right
51,1,continuous,40,29,trial,15224010.0,15225843.0,1833.0,40,L,15225339,15225605,268,528.3,518.1,4934,left
51,1,continuous,40,29,trial,15224010.0,15225843.0,1833.0,40,L,15225625,15225847,224,451.8,519.8,4927,left
51,1,continuous,40,29,trial,15224010.0,15225843.0,1833.0,40,L,15225871,15226141,272,418.4,421.9,4911,left
51,1,continuous,41,31,fixationCross,15226776.0,15228793.0,2017.0,41,L,15226449,15226731,284,1018.1,491.3,4971,NA
51,1,continuous,41,31,trial,15226776.0,15228793.0,2017.0,41,L,15226751,15226935,186,983.4,554.9,5214,NA
51,1,continuous,41,31,trial,15226776.0,15228793.0,2017.0,41,L,15226979,15227153,176,590.5,532.0,5323,left
51,1,continuous,41,31,trial,15226776.0,15228793.0,2017.0,41,L,15227173,15227283,112,637.3,490.2,5185,left
51,1,continuous,41,31,trial,15226776.0,15228793.0,2017.0,41,L,15227343,15227593,252,1401.2,553.5,4868,right
51,1,continuous,41,31,trial,15226776.0,15228793.0,2017.0,41,L,15227611,15227789,180,1466.2,562.8,4734,right
51,1,continuous,41,31,trial,15226776.0,15228793.0,2017.0,41,L,15227853,15228115,264,576.9,495.1,4745,left
51,1,continuous,41,31,postResponse,15226776.0,15228793.0,2017.0,41,L,15228133,15229139,1008,643.6,501.3,4687,left
51,1,continuous,42,64,fixationCross,15229926.0,15233593.0,3667.0,42,L,15229383,15229619,238,703.1,492.4,4658,left
51,1,continuous,42,64,trial,15229926.0,15233593.0,3667.0,42,L,15229653,15230109,458,997.9,565.9,4867,NA
51,1,continuous,42,64,trial,15229926.0,15233593.0,3667.0,42,L,15230157,15230307,152,527.0,504.8,4869,left
51,1,continuous,42,64,trial,15229926.0,15233593.0,3667.0,42,L,15230367,15230571,206,1428.8,562.0,4718,right
51,1,continuous,42,64,trial,15229926.0,15233593.0,3667.0,42,L,15230591,15230805,216,1493.0,537.0,4627,right
51,1,continuous,42,64,trial,15229926.0,15233593.0,3667.0,42,L,15230827,15231027,202,1460.3,476.7,4708,right
51,1,continuous,42,64,trial,15229926.0,15233593.0,3667.0,42,L,15231101,15231239,140,475.4,520.2,4922,left
51,1,continuous,42,64,trial,15229926.0,15233593.0,3667.0,42,L,15231269,15231529,262,366.8,406.9,4831,left
51,1,continuous,42,64,trial,15229926.0,15233593.0,3667.0,42,L,15231569,15231959,392,597.9,632.2,4761,left
51,1,continuous,42,64,trial,15229926.0,15233593.0,3667.0,42,L,15232003,15232357,356,427.6,450.0,4645,left
51,1,continuous,42,64,trial,15229926.0,15233593.0,3667.0,42,L,15232415,15232577,164,1021.0,985.7,4770,likertHorizontal
51,1,continuous,42,64,trial,15229926.0,15233593.0,3667.0,42,L,15232631,15232917,288,1453.0,613.0,4594,right
51,1,continuous,42,64,postResponse,15229926.0,15233593.0,3667.0,42,L,15232943,15233931,990,1476.2,509.8,4776,right
51,1,continuous,43,27,fixationCross,15234793.0,15236760.0,1967.0,43,L,15234037,15234189,154,762.3,508.1,5029,NA
51,1,continuous,43,27,fixationCross,15234793.0,15236760.0,1967.0,43,L,15234355,15234481,128,723.2,472.0,5209,left
51,1,continuous,43,27,trial,15234793.0,15236760.0,1967.0,43,L,15234513,15234947,436,983.5,546.8,5415,NA
51,1,continuous,43,27,trial,15234793.0,15236760.0,1967.0,43,L,15234989,15235125,138,590.8,538.8,5329,left
51,1,continuous,43,27,trial,15234793.0,15236760.0,1967.0,43,L,15235151,15235409,260,429.6,488.8,5041,left
51,1,continuous,43,27,trial,15234793.0,15236760.0,1967.0,43,L,15235439,15235795,358,574.7,594.6,4686,left
51,1,continuous,43,27,trial,15234793.0,15236760.0,1967.0,43,L,15235853,15236145,294,1427.8,576.8,4435,right
51,1,continuous,43,27,trial,15234793.0,15236760.0,1967.0,43,L,15236169,15236269,102,1430.0,480.6,4399,right
51,1,continuous,43,27,trial,15234793.0,15236760.0,1967.0,43,L,15236339,15236465,128,553.1,517.8,4599,left
51,1,continuous,43,27,trial,15234793.0,15236760.0,1967.0,43,L,15236487,15236797,312,450.2,490.1,4730,left
51,1,continuous,43,27,postResponse,15234793.0,15236760.0,1967.0,43,L,15236821,15237093,274,503.1,553.4,4784,left
51,1,continuous,44,30,fixationCross,15237826.0,15239776.0,1950.0,44,L,15237195,15237501,308,495.7,553.5,4892,left
51,1,continuous,44,30,fixationCross,15237826.0,15239776.0,1950.0,44,L,15237539,15237671,134,903.1,528.4,4921,NA
51,1,continuous,44,30,trial,15237826.0,15239776.0,1950.0,44,L,15237685,15237975,292,964.2,539.7,4958,NA
51,1,continuous,44,30,trial,15237826.0,15239776.0,1950.0,44,L,15238017,15238323,308,567.3,536.3,5056,left
51,1,continuous,44,30,trial,15237826.0,15239776.0,1950.0,44,L,15238343,15238483,142,468.0,538.4,5020,left
51,1,continuous,44,30,trial,15237826.0,15239776.0,1950.0,44,L,15238549,15238721,174,1444.1,559.8,4778,right
51,1,continuous,44,30,trial,15237826.0,15239776.0,1950.0,44,L,15238747,15239041,296,1551.3,459.9,4582,right
51,1,continuous,44,30,trial,15237826.0,15239776.0,1950.0,44,L,15239063,15239277,216,1438.6,493.0,4622,right
51,1,continuous,44,30,postResponse,15237826.0,15239776.0,1950.0,44,L,15239347,15240123,778,551.6,527.4,4791,left
51,1,continuous,45,40,fixationCross,15240826.0,15243276.0,2450.0,45,L,15240317,15240545,230,1064.8,501.5,4705,NA
51,1,continuous,45,40,trial,15240826.0,15243276.0,2450.0,45,L,15240571,15241027,458,984.1,567.8,5043,NA
51,1,continuous,45,40,trial,15240826.0,15243276.0,2450.0,45,L,15241073,15241435,364,486.7,559.3,4864,left
51,1,continuous,45,40,trial,15240826.0,15243276.0,2450.0,45,L,15241503,15241767,266,1542.1,509.2,4474,right
51,1,continuous,45,40,trial,15240826.0,15243276.0,2450.0,45,L,15241785,15242021,238,1488.9,477.8,4475,right
51,1,continuous,45,40,trial,15240826.0,15243276.0,2450.0,45,L,15242053,15242437,386,1503.2,644.8,4568,right
51,1,continuous,45,40,trial,15240826.0,15243276.0,2450.0,45,L,15242525,15242569,46,864.3,540.4,4701,NA
51,1,continuous,45,40,trial,15240826.0,15243276.0,2450.0,45,L,15242613,15242721,110,416.0,536.7,4666,left
51,1,continuous,45,40,trial,15240826.0,15243276.0,2450.0,45,L,15242729,15243063,336,418.2,542.0,4743,left
51,1,continuous,45,40,postResponse,15240826.0,15243276.0,2450.0,45,L,15243087,15243621,536,604.4,541.2,4875,left
51,1,continuous,46,71,fixationCross,15244393.0,15248459.0,4066.0,46,L,15243723,15244073,352,610.2,538.7,5098,left
51,1,continuous,46,71,trial,15244393.0,15248459.0,4066.0,46,L,15244107,15244885,780,993.6,562.5,5421,NA
51,1,continuous,46,71,trial,15244393.0,15248459.0,4066.0,46,L,15244933,15245139,208,498.2,556.2,5558,left
51,1,continuous,46,71,trial,15244393.0,15248459.0,4066.0,46,L,15245159,15245655,498,436.6,608.3,5378,left
51,1,continuous,46,71,trial,15244393.0,15248459.0,4066.0,46,L,15245721,15245937,218,1465.3,581.2,4869,right
51,1,continuous,46,71,trial,15244393.0,15248459.0,4066.0,46,L,15245951,15246241,292,1509.2,571.3,4840,right
51,1,continuous,46,71,trial,15244393.0,15248459.0,4066.0,46,L,15246263,15246661,400,1417.0,595.2,5092,right
51,1,continuous,46,71,trial,15244393.0,15248459.0,4066.0,46,L,15246683,15246965,284,1510.1,566.2,5271,right
51,1,continuous,46,71,trial,15244393.0,15248459.0,4066.0,46,L,15247031,15247215,186,585.5,573.1,5437,left
51,1,continuous,46,71,trial,15244393.0,15248459.0,4066.0,46,L,15247239,15247395,158,495.8,580.3,5372,left
51,1,continuous,46,71,trial,15244393.0,15248459.0,4066.0,46,L,15247411,15247909,500,436.0,610.8,4991,left
51,1,continuous,46,71,trial,15244393.0,15248459.0,4066.0,46,L,15247933,15248041,110,566.8,608.5,4646,left
51,1,continuous,46,71,trial,15244393.0,15248459.0,4066.0,46,L,15248101,15248331,232,1406.7,536.4,4488,right
51,1,continuous,46,71,trial,15244393.0,15248459.0,4066.0,46,L,15248351,15248751,402,1480.0,526.3,4627,right
51,1,continuous,47,77,fixationCross,15249576.0,15252877.0,3301.0,47,L,15248965,15249283,320,839.9,512.7,5243,NA
51,1,continuous,47,77,trial,15249576.0,15252877.0,3301.0,47,L,15249309,15249733,426,982.0,547.0,5438,NA
51,1,continuous,47,77,trial,15249576.0,15252877.0,3301.0,47,L,15249781,15250179,400,516.6,559.7,5174,left
51,1,continuous,47,77,trial,15249576.0,15252877.0,3301.0,47,L,15250239,15250497,260,1315.9,511.4,4749,right
51,1,continuous,47,77,trial,15249576.0,15252877.0,3301.0,47,L,15250527,15250955,430,1488.2,526.7,4787,right
51,1,continuous,47,77,trial,15249576.0,15252877.0,3301.0,47,L,15250977,15251147,172,1378.4,520.7,4983,right
51,1,continuous,47,77,trial,15249576.0,15252877.0,3301.0,47,L,15251215,15251487,274,446.2,518.2,5108,left
51,1,continuous,47,77,trial,15249576.0,15252877.0,3301.0,47,L,15251513,15251813,302,604.4,569.6,5082,left
51,1,continuous,47,77,trial,15249576.0,15252877.0,3301.0,47,L,15251825,15252269,446,619.8,559.8,4997,left
51,1,continuous,47,77,trial,15249576.0,15252877.0,3301.0,47,L,15252321,15253103,784,1311.2,557.0,5065,right
51,1,continuous,48,27,fixationCross,15253776.0,15255477.0,1701.0,48,L,15253341,15253657,318,885.4,487.2,5198,NA
51,1,continuous,48,27,trial,15253776.0,15255477.0,1701.0,48,L,15253683,15253943,262,981.5,552.0,5385,NA
51,1,continuous,48,27,trial,15253776.0,15255477.0,1701.0,48,L,15253999,15254273,276,504.6,626.3,5245,left
51,1,continuous,48,27,trial,15253776.0,15255477.0,1701.0,48,L,15254291,15254485,196,459.8,563.8,4901,left
51,1,continuous,48,27,trial,15253776.0,15255477.0,1701.0,48,L,15254505,15254621,118,532.3,578.1,4674,left
51,1,continuous,48,27,trial,15253776.0,15255477.0,1701.0,48,L,15254683,15255021,340,1444.1,511.3,4542,right
51,1,continuous,48,27,trial,15253776.0,15255477.0,1701.0,48,L,15255073,15255207,136,865.8,831.5,4909,likertHorizontal
51,1,continuous,48,27,postResponse,15253776.0,15255477.0,1701.0,48,L,15255241,15255825,586,577.3,563.7,5134,left
51,1,continuous,49,19,fixationCross,15256560.0,15259559.0,2999.0,49,L,15255901,15256223,324,580.6,579.7,5377,left
51,1,continuous,49,19,fixationCross,15256560.0,15259559.0,2999.0,49,L,15256255,15256367,114,928.6,566.1,5356,NA
51,1,continuous,49,19,trial,15256560.0,15259559.0,2999.0,49,L,15256381,15256721,342,981.4,577.0,5278,NA
51,1,continuous,49,19,trial,15256560.0,15259559.0,2999.0,49,L,15256775,15256995,222,562.7,539.2,5302,left
51,1,continuous,49,19,trial,15256560.0,15259559.0,2999.0,49,L,15257021,15257171,152,434.7,526.9,5108,left
51,1,continuous,49,19,trial,15256560.0,15259559.0,2999.0,49,L,15257193,15257487,296,505.0,458.8,4698,left
51,1,continuous,49,19,trial,15256560.0,15259559.0,2999.0,49,L,15257549,15257851,304,1358.7,584.3,4403,right
51,1,continuous,49,19,trial,15256560.0,15259559.0,2999.0,49,L,15257875,15258057,184,1467.7,655.2,4411,right
51,1,continuous,49,19,trial,15256560.0,15259559.0,2999.0,49,L,15258091,15258299,210,1501.9,468.0,4530,right
51,1,continuous,49,19,trial,15256560.0,15259559.0,2999.0,49,L,15258365,15258629,266,548.4,531.8,4756,left
51,1,continuous,49,19,trial,15256560.0,15259559.0,2999.0,49,L,15258655,15259005,352,642.7,603.0,4959,left
51,1,continuous,49,19,postResponse,15256560.0,15259559.0,2999.0,49,L,15259031,15259905,876,503.5,449.2,4996,left
51,1,continuous,50,12,fixationCross,15260627.0,15262810.0,2183.0,50,L,15259979,15260323,346,844.0,551.5,4868,NA
51,1,continuous,50,12,trial,15260627.0,15262810.0,2183.0,50,L,15260349,15260843,496,988.0,545.6,5173,NA
51,1,continuous,50,12,trial,15260627.0,15262810.0,2183.0,50,L,15260875,15261111,238,1344.3,556.9,5289,right
51,1,continuous,50,12,trial,15260627.0,15262810.0,2183.0,50,L,15261135,15261353,220,1432.5,456.7,5033,right
51,1,continuous,50,12,trial,15260627.0,15262810.0,2183.0,50,L,15261373,15261633,262,1378.8,396.5,4921,right
51,1,continuous,50,12,trial,15260627.0,15262810.0,2183.0,50,L,15261695,15262113,420,545.3,572.7,5094,left
51,1,continuous,50,12,trial,15260627.0,15262810.0,2183.0,50,L,15262135,15262495,362,609.9,618.4,5274,left
51,1,continuous,50,12,trial,15260627.0,15262810.0,2183.0,50,L,15262533,15262817,286,437.1,470.4,5354,left
51,1,continuous,50,12,postResponse,15260627.0,15262810.0,2183.0,50,L,15262845,15263153,310,633.8,423.0,5267,left
51,2,binary,1,1,fixationCross,15393595.0,15396195.0,2600.0,51,R,15393143,15393331,190,1049.9,590.2,5064,NA
51,2,binary,1,1,fixationCross,15393595.0,15396195.0,2600.0,51,R,15393349,15393503,156,971.2,638.2,5120,NA
51,2,binary,1,1,trial,15393595.0,15396195.0,2600.0,51,R,15393525,15393839,316,982.2,569.4,5138,NA
51,2,binary,1,1,trial,15393595.0,15396195.0,2600.0,51,R,15393883,15394313,432,558.7,578.7,4926,left
51,2,binary,1,1,trial,15393595.0,15396195.0,2600.0,51,R,15394377,15394787,412,1445.6,569.7,4416,right
51,2,binary,1,1,trial,15393595.0,15396195.0,2600.0,51,R,15394827,15394957,132,1080.0,702.6,4549,NA
51,2,binary,1,1,trial,15393595.0,15396195.0,2600.0,51,R,15394999,15395139,142,1371.4,962.5,4629,NA
51,2,binary,1,1,trial,15393595.0,15396195.0,2600.0,51,R,15395157,15395269,114,1415.9,1001.2,4734,NA
51,2,binary,1,1,trial,15393595.0,15396195.0,2600.0,51,R,15395331,15395497,168,922.7,562.6,4989,NA
51,2,binary,1,1,trial,15393595.0,15396195.0,2600.0,51,R,15395545,15395807,264,1427.8,589.5,5096,right
51,2,binary,1,1,trial,15393595.0,15396195.0,2600.0,51,R,15395869,15396099,232,577.2,596.8,5156,left
51,2,binary,1,1,trial,15393595.0,15396195.0,2600.0,51,R,15396125,15396501,378,423.3,541.5,4891,left
51,2,binary,2,1,fixationCross,15397295.0,15399995.0,2700.0,52,R,15396615,15396979,366,856.2,499.6,4701,NA
51,2,binary,2,1,trial,15397295.0,15399995.0,2700.0,52,R,15397003,15397463,462,984.4,551.9,4961,NA
51,2,binary,2,1,trial,15397295.0,15399995.0,2700.0,52,R,15397509,15397845,338,526.8,515.2,4964,left
51,2,binary,2,1,trial,15397295.0,15399995.0,2700.0,52,R,15397907,15398163,258,1425.1,600.5,4525,right
51,2,binary,2,1,trial,15397295.0,15399995.0,2700.0,52,R,15398223,15399315,1094,545.2,478.2,4579,left
51,2,binary,2,1,trial,15397295.0,15399995.0,2700.0,52,R,15399369,15399543,176,899.8,978.6,5030,likertHorizontal
51,2,binary,2,1,trial,15397295.0,15399995.0,2700.0,52,R,15399583,15399925,344,585.4,578.3,4990,left
51,2,binary,2,1,postResponse,15397295.0,15399995.0,2700.0,52,R,15399953,15400327,376,519.9,483.5,5017,left
51,2,binary,3,2,fixationCross,15401062.0,15403012.0,1950.0,53,R,15400445,15400747,304,1230.1,509.2,4884,right
51,2,binary,3,2,trial,15401062.0,15403012.0,1950.0,53,R,15400781,15401241,462,980.3,571.3,5001,NA
51,2,binary,3,2,trial,15401062.0,15403012.0,1950.0,53,R,15401283,15401419,138,1370.2,605.1,4925,right
51,2,binary,3,2,trial,15401062.0,15403012.0,1950.0,53,R,15401443,15401641,200,1526.1,534.0,4765,right
51,2,binary,3,2,trial,15401062.0,15403012.0,1950.0,53,R,15401705,15402097,394,565.8,548.3,4696,left
51,2,binary,3,2,trial,15401062.0,15403012.0,1950.0,53,R,15402161,15402359,200,1488.4,534.4,4522,right
51,2,binary,3,2,trial,15401062.0,15403012.0,1950.0,53,R,15402375,15402673,300,1510.2,495.2,4475,right
51,2,binary,3,2,trial,15401062.0,15403012.0,1950.0,53,R,15402719,15402929,212,1435.3,910.0,4667,NA
51,2,binary,3,2,postResponse,15401062.0,15403012.0,1950.0,53,R,15402981,15403361,382,1216.4,464.3,4792,right
51,2,binary,4,2,fixationCross,15404078.0,15405962.0,1884.0,54,R,15403435,15403595,162,1213.0,470.4,4992,right
51,2,binary,4,2,fixationCross,15404078.0,15405962.0,1884.0,54,R,15403615,15403767,154,1170.4,534.4,5114,NA
51,2,binary,4,2,fixationCross,15404078.0,15405962.0,1884.0,54,R,15403797,15403951,156,984.7,576.4,5126,NA
51,2,binary,4,2,trial,15404078.0,15405962.0,1884.0,54,R,15403961,15404247,288,985.1,556.7,5035,NA
51,2,binary,4,2,trial,15404078.0,15405962.0,1884.0,54,R,15404291,15404415,126,594.9,564.4,4918,left
51,2,binary,4,2,trial,15404078.0,15405962.0,1884.0,54,R,15404451,15404711,262,340.6,435.3,4662,left
51,2,binary,4,2,trial,15404078.0,15405962.0,1884.0,54,R,15404775,15404953,180,1400.5,487.5,4411,right
51,2,binary,4,2,postResponse,15404078.0,15405962.0,1884.0,54,R,15404973,15406309,1338,1392.8,451.5,4436,right
51,2,binary,5,2,fixationCross,15406878.0,15410429.0,3551.0,55,R,15406429,15406431,4,1303.7,452.8,4695,right
51,2,binary,5,2,fixationCross,15406878.0,15410429.0,3551.0,55,R,15406545,15406729,186,917.8,546.0,4737,NA
51,2,binary,5,2,trial,15406878.0,15410429.0,3551.0,55,R,15406747,15407037,292,993.0,561.6,4812,NA
51,2,binary,5,2,trial,15406878.0,15410429.0,3551.0,55,R,15407083,15407309,228,559.7,516.9,4988,left
51,2,binary,5,2,trial,15406878.0,15410429.0,3551.0,55,R,15407369,15407507,140,1416.7,488.6,4849,right
51,2,binary,5,2,trial,15406878.0,15410429.0,3551.0,55,R,15407525,15407767,244,1459.9,449.6,4663,right
51,2,binary,5,2,trial,15406878.0,15410429.0,3551.0,55,R,15407799,15408075,278,1605.0,600.7,4616,right
51,2,binary,5,2,trial,15406878.0,15410429.0,3551.0,55,R,15408149,15408303,156,512.7,513.6,4849,left
51,2,binary,5,2,trial,15406878.0,15410429.0,3551.0,55,R,15408323,15408755,434,520.1,447.9,4902,left
51,2,binary,5,2,trial,15406878.0,15410429.0,3551.0,55,R,15408793,15408857,66,440.0,684.8,4986,left
51,2,binary,5,2,trial,15406878.0,15410429.0,3551.0,55,R,15408971,15409121,152,482.2,621.0,5119,left
51,2,binary,5,2,trial,15406878.0,15410429.0,3551.0,55,R,15409147,15409403,258,532.9,468.1,5259,left
51,2,binary,5,2,trial,15406878.0,15410429.0,3551.0,55,R,15409463,15409745,284,1419.8,518.3,5149,right
51,2,binary,5,2,trial,15406878.0,15410429.0,3551.0,55,R,15409775,15410079,306,1601.3,638.3,4998,right
51,2,binary,5,2,postResponse,15406878.0,15410429.0,3551.0,55,R,15410107,15410771,666,1433.4,490.6,5257,right
51,2,binary,6,1,fixationCross,15411479.0,15412979.0,1500.0,56,R,15410845,15411163,320,1424.1,498.6,5195,right
51,2,binary,6,1,fixationCross,15411479.0,15412979.0,1500.0,56,R,15411205,15411327,124,1037.1,555.5,5202,NA
51,2,binary,6,1,trial,15411479.0,15412979.0,1500.0,56,R,15411343,15411637,296,986.0,550.3,5167,NA
51,2,binary,6,1,trial,15411479.0,15412979.0,1500.0,56,R,15411683,15411937,256,580.7,529.5,5053,left
51,2,binary,6,1,trial,15411479.0,15412979.0,1500.0,56,R,15411951,15412109,160,520.3,510.9,4796,left
51,2,binary,6,1,trial,15411479.0,15412979.0,1500.0,56,R,15412173,15412509,338,1483.2,534.9,4369,right
51,2,binary,6,1,trial,15411479.0,15412979.0,1500.0,56,R,15412577,15412759,184,581.8,551.2,4457,left
51,2,binary,6,1,postResponse,15411479.0,15412979.0,1500.0,56,R,15412779,15413321,544,509.3,509.6,4587,left
51,2,binary,7,1,fixationCross,15414179.0,15416562.0,2383.0,57,R,15413421,15413839,420,511.0,508.6,4642,left
51,2,binary,7,1,trial,15414179.0,15416562.0,2383.0,57,R,15413885,15414367,484,986.1,549.9,4792,NA
51,2,binary,7,1,trial,15414179.0,15416562.0,2383.0,57,R,15414411,15414597,188,617.3,562.6,4969,left
51,2,binary,7,1,trial,15414179.0,15416562.0,2383.0,57,R,15414623,15414763,142,484.8,493.1,4873,left
51,2,binary,7,1,trial,15414179.0,15416562.0,2383.0,57,R,15414829,15414971,144,1489.8,498.0,4618,right
51,2,binary,7,1,trial,15414179.0,15416562.0,2383.0,57,R,15414989,15415447,460,1502.6,441.6,4511,right
51,2,binary,7,1,trial,15414179.0,15416562.0,2383.0,57,R,15415513,15415819,308,469.7,537.0,4771,left
51,2,binary,7,1,trial,15414179.0,15416562.0,2383.0,57,R,15415847,15416207,362,645.0,485.9,4774,left
51,2,binary,7,1,trial,15414179.0,15416562.0,2383.0,57,R,15416241,15416507,268,430.4,444.7,4618,left
51,2,binary,7,1,trial,15414179.0,15416562.0,2383.0,57,R,15416529,15416833,306,502.5,521.3,4622,left
51,2,binary,8,1,fixationCross,15417695.0,15420228.0,2533.0,58,R,15417135,15417387,254,851.6,540.0,4857,NA
51,2,binary,8,1,trial,15417695.0,15420228.0,2533.0,58,R,15417413,15417861,450,1000.7,563.4,5065,NA
51,2,binary,8,1,trial,15417695.0,15420228.0,2533.0,58,R,15417909,15418059,152,461.3,496.3,4876,left
51,2,binary,8,1,trial,15417695.0,15420228.0,2533.0,58,R,15418071,15418389,320,450.6,447.2,4704,left
51,2,binary,8,1,trial,15417695.0,15420228.0,2533.0,58,R,15418413,15418783,372,483.9,547.8,4583,left
51,2,binary,8,1,trial,15417695.0,15420228.0,2533.0,58,R,15418803,15418945,144,561.4,513.1,4689,left
51,2,binary,8,1,trial,15417695.0,15420228.0,2533.0,58,R,15419007,15419273,268,1430.1,558.1,4710,right
51,2,binary,8,1,trial,15417695.0,15420228.0,2533.0,58,R,15419299,15419445,148,1550.7,518.0,4719,right
51,2,binary,8,1,trial,15417695.0,15420228.0,2533.0,58,R,15419461,15419715,256,1605.1,495.9,4769,right
51,2,binary,8,1,trial,15417695.0,15420228.0,2533.0,58,R,15419787,15420021,236,531.4,584.0,4913,left
51,2,binary,8,1,postResponse,15417695.0,15420228.0,2533.0,58,R,15420047,15420575,530,452.4,464.6,4870,left
51,2,binary,9,1,fixationCross,15421295.0,15423946.0,2651.0,59,R,15420651,15420967,318,449.1,460.6,4893,left
51,2,binary,9,1,fixationCross,15421295.0,15423946.0,2651.0,59,R,15421007,15421113,108,889.5,529.2,5150,NA
51,2,binary,9,1,trial,15421295.0,15423946.0,2651.0,59,R,15421131,15421475,346,970.7,535.4,5238,NA
51,2,binary,9,1,trial,15421295.0,15423946.0,2651.0,59,R,15421521,15421657,138,520.4,505.4,5363,left
51,2,binary,9,1,trial,15421295.0,15423946.0,2651.0,59,R,15421681,15421825,146,401.5,476.5,5338,left
51,2,binary,9,1,trial,15421295.0,15423946.0,2651.0,59,R,15421891,15422145,256,1462.4,511.3,5002,right
51,2,binary,9,1,trial,15421295.0,15423946.0,2651.0,59,R,15422161,15422349,190,1414.4,540.5,4862,right
51,2,binary,9,1,trial,15421295.0,15423946.0,2651.0,59,R,15422375,15422529,156,1401.4,418.5,4858,right
51,2,binary,9,1,trial,15421295.0,15423946.0,2651.0,59,R,15422589,15422689,102,542.5,496.2,5000,left
51,2,binary,9,1,trial,15421295.0,15423946.0,2651.0,59,R,15422903,15423035,134,423.3,473.3,5028,left
51,2,binary,9,1,trial,15421295.0,15423946.0,2651.0,59,R,15423095,15423491,398,1393.9,452.1,5070,right
51,2,binary,9,1,trial,15421295.0,15423946.0,2651.0,59,R,15423513,15423757,246,1480.1,443.3,4948,right
51,2,binary,9,1,trial,15421295.0,15423946.0,2651.0,59,R,15423787,15423961,176,1469.0,539.5,5003,right
51,2,binary,9,1,postResponse,15421295.0,15423946.0,2651.0,59,R,15423979,15424293,316,1401.1,531.8,5150,right
51,2,binary,10,2,fixationCross,15425029.0,15430212.0,5183.0,60,R,15424393,15424725,334,857.0,465.2,5420,NA
51,2,binary,10,2,trial,15425029.0,15430212.0,5183.0,60,R,15424749,15425199,452,973.4,532.0,5511,NA
51,2,binary,10,2,trial,15425029.0,15430212.0,5183.0,60,R,15425245,15425443,200,551.9,562.0,5404,left
51,2,binary,10,2,trial,15425029.0,15430212.0,5183.0,60,R,15425469,15425701,234,388.9,509.6,5064,left
51,2,binary,10,2,trial,15425029.0,15430212.0,5183.0,60,R,15425717,15425821,106,431.2,472.8,4815,left
51,2,binary,10,2,trial,15425029.0,15430212.0,5183.0,60,R,15425883,15426173,292,1387.5,618.3,4588,right
51,2,binary,10,2,trial,15425029.0,15430212.0,5183.0,60,R,15426199,15426441,244,1548.0,626.7,4558,right
51,2,binary,10,2,trial,15425029.0,15430212.0,5183.0,60,R,15426467,15426751,286,1368.9,574.1,4812,right
51,2,binary,10,2,trial,15425029.0,15430212.0,5183.0,60,R,15426783,15426953,172,1558.8,567.9,4858,right
51,2,binary,10,2,trial,15425029.0,15430212.0,5183.0,60,R,15426975,15427261,288,1396.0,593.1,5085,right
51,2,binary,10,2,trial,15425029.0,15430212.0,5183.0,60,R,15427285,15427653,370,1548.8,586.7,5067,right
51,2,binary,10,2,trial,15425029.0,15430212.0,5183.0,60,R,15427675,15428049,376,1422.3,634.1,5000,right
51,2,binary,10,2,trial,15425029.0,15430212.0,5183.0,60,R,15428065,15428323,260,1372.7,596.6,5038,right
51,2,binary,10,2,trial,15425029.0,15430212.0,5183.0,60,R,15428351,15428501,152,1587.7,627.9,4951,right
51,2,binary,10,2,trial,15425029.0,15430212.0,5183.0,60,R,15428533,15428735,204,1587.9,444.4,4949,right
51,2,binary,10,2,trial,15425029.0,15430212.0,5183.0,60,R,15428771,15428919,150,1323.0,448.7,5083,right
51,2,binary,10,2,trial,15425029.0,15430212.0,5183.0,60,R,15428981,15429277,298,510.9,516.6,5182,left
51,2,binary,10,2,trial,15425029.0,15430212.0,5183.0,60,R,15429307,15429571,266,400.2,605.7,5140,left
51,2,binary,10,2,trial,15425029.0,15430212.0,5183.0,60,R,15429601,15429717,118,650.9,615.0,4988,left
51,2,binary,10,2,postResponse,15425029.0,15430212.0,5183.0,60,R,15429775,15430545,772,1431.6,569.9,4867,right
51,2,binary,11,2,fixationCross,15431295.0,15432612.0,1317.0,61,R,15430619,15430975,358,1429.3,573.2,4991,right
51,2,binary,11,2,trial,15431295.0,15432612.0,1317.0,61,R,15431023,15431493,472,984.0,547.2,5122,NA
51,2,binary,11,2,trial,15431295.0,15432612.0,1317.0,61,R,15431543,15431923,382,432.4,541.7,5093,left
51,2,binary,11,2,postResponse,15431295.0,15432612.0,1317.0,61,R,15431987,15432955,970,1395.0,549.7,4681,right
51,2,binary,12,2,fixationCross,15433511.0,15434979.0,1468.0,62,R,15433077,15433391,316,910.4,582.1,5055,NA
51,2,binary,12,2,trial,15433511.0,15434979.0,1468.0,62,R,15433409,15433665,258,977.6,561.7,5170,NA
51,2,binary,12,2,trial,15433511.0,15434979.0,1468.0,62,R,15433713,15433997,286,484.6,554.7,5051,left
51,2,binary,12,2,trial,15433511.0,15434979.0,1468.0,62,R,15434021,15434173,154,583.8,535.1,4807,left
51,2,binary,12,2,trial,15433511.0,15434979.0,1468.0,62,R,15434231,15434623,394,1417.6,566.3,4534,right
51,2,binary,12,2,trial,15433511.0,15434979.0,1468.0,62,R,15434643,15435039,398,1323.7,541.2,4676,right
51,2,binary,12,2,postResponse,15433511.0,15434979.0,1468.0,62,R,15435059,15435319,262,1298.9,495.0,4858,right
51,2,binary,13,1,fixationCross,15436046.0,15438729.0,2683.0,63,R,15435393,15435605,214,1302.4,500.4,4971,right
51,2,binary,13,1,fixationCross,15436046.0,15438729.0,2683.0,63,R,15435661,15435795,136,889.5,672.1,5104,NA
51,2,binary,13,1,trial,15436046.0,15438729.0,2683.0,63,R,15435821,15436267,448,996.5,554.8,5051,NA
51,2,binary,13,1,trial,15436046.0,15438729.0,2683.0,63,R,15436313,15436549,238,537.9,573.3,4926,left
51,2,binary,13,1,trial,15436046.0,15438729.0,2683.0,63,R,15436565,15436735,172,493.9,514.5,4662,left
51,2,binary,13,1,trial,15436046.0,15438729.0,2683.0,63,R,15436803,15437165,364,1463.4,524.4,4327,right
51,2,binary,13,1,trial,15436046.0,15438729.0,2683.0,63,R,15437185,15437743,560,1492.0,471.6,4307,right
51,2,binary,13,1,trial,15436046.0,15438729.0,2683.0,63,R,15437813,15438103,292,450.0,526.7,4491,left
51,2,binary,13,1,trial,15436046.0,15438729.0,2683.0,63,R,15438125,15438731,608,577.6,535.0,4525,left
51,2,binary,13,1,postResponse,15436046.0,15438729.0,2683.0,63,R,15438751,15439075,326,488.7,517.4,4572,left
51,2,binary,14,2,fixationCross,15439779.0,15442479.0,2700.0,64,R,15439151,15439307,158,476.7,511.4,4481,left
51,2,binary,14,2,fixationCross,15439779.0,15442479.0,2700.0,64,R,15439371,15439515,146,1192.2,518.1,4473,right
51,2,binary,14,2,trial,15439779.0,15442479.0,2700.0,64,R,15439547,15439977,432,992.4,543.6,4592,NA
51,2,binary,14,2,trial,15439779.0,15442479.0,2700.0,64,R,15440023,15440211,190,573.5,568.3,4785,left
51,2,binary,14,2,trial,15439779.0,15442479.0,2700.0,64,R,15440235,15440479,246,453.2,514.9,4544,left
51,2,binary,14,2,trial,15439779.0,15442479.0,2700.0,64,R,15440547,15440681,136,1471.6,491.2,4205,right
51,2,binary,14,2,trial,15439779.0,15442479.0,2700.0,64,R,15440699,15441469,772,1435.8,434.0,4205,right
51,2,binary,14,2,trial,15439779.0,15442479.0,2700.0,64,R,15441537,15441969,434,529.4,484.9,4439,left
51,2,binary,14,2,trial,15439779.0,15442479.0,2700.0,64,R,15441987,15442161,176,498.0,549.7,4439,left
51,2,binary,14,2,trial,15439779.0,15442479.0,2700.0,64,R,15442227,15442487,262,1465.0,481.2,4261,right
51,2,binary,14,2,postResponse,15439779.0,15442479.0,2700.0,64,R,15442503,15442815,314,1442.6,442.4,4212,right
51,2,binary,15,2,fixationCross,15443529.0,15444763.0,1234.0,65,R,15442915,15443213,300,636.8,549.7,4438,left
51,2,binary,15,2,trial,15443529.0,15444763.0,1234.0,65,R,15443247,15443735,490,977.5,546.1,4669,NA
51,2,binary,15,2,trial,15443529.0,15444763.0,1234.0,65,R,15443777,15444007,232,625.3,540.7,4835,left
51,2,binary,15,2,trial,15443529.0,15444763.0,1234.0,65,R,15444029,15444145,118,493.4,517.8,4828,left
51,2,binary,15,2,trial,15443529.0,15444763.0,1234.0,65,R,15444207,15444495,290,1435.1,525.3,4605,right
51,2,binary,15,2,postResponse,15443529.0,15444763.0,1234.0,65,R,15444513,15445111,600,1472.1,496.4,4608,right
51,2,binary,16,1,fixationCross,15445696.0,15447279.0,1583.0,66,R,15445211,15445311,102,1413.3,558.3,4631,right
51,2,binary,16,1,fixationCross,15445696.0,15447279.0,1583.0,66,R,15445353,15445555,204,917.5,579.7,4749,NA
51,2,binary,16,1,trial,15445696.0,15447279.0,1583.0,66,R,15445573,15445859,288,982.1,564.3,4813,NA
51,2,binary,16,1,trial,15445696.0,15447279.0,1583.0,66,R,15445905,15446175,272,541.5,488.9,4807,left
51,2,binary,16,1,trial,15445696.0,15447279.0,1583.0,66,R,15446197,15446383,188,413.7,538.6,4545,left
51,2,binary,16,1,trial,15445696.0,15447279.0,1583.0,66,R,15446407,15446535,130,508.7,456.1,4333,left
51,2,binary,16,1,trial,15445696.0,15447279.0,1583.0,66,R,15446599,15446869,272,1461.6,507.2,4195,right
51,2,binary,16,1,trial,15445696.0,15447279.0,1583.0,66,R,15446931,15447183,254,562.3,486.1,4362,left
51,2,binary,16,1,postResponse,15445696.0,15447279.0,1583.0,66,R,15447215,15447619,406,373.2,565.9,4466,left
51,2,binary,17,2,fixationCross,15448329.0,15449695.0,1366.0,67,R,15447693,15447719,28,376.6,569.1,4689,left
51,2,binary,17,2,fixationCross,15448329.0,15449695.0,1366.0,67,R,15447755,15448031,278,726.7,505.4,4859,left
51,2,binary,17,2,trial,15448329.0,15449695.0,1366.0,67,R,15448063,15448549,488,977.1,543.5,4921,NA
51,2,binary,17,2,trial,15448329.0,15449695.0,1366.0,67,R,15448597,15448837,242,559.5,576.6,4884,left
51,2,binary,17,2,trial,15448329.0,15449695.0,1366.0,67,R,15448855,15449099,246,496.2,605.0,4687,left
51,2,binary,17,2,trial,15448329.0,15449695.0,1366.0,67,R,15449125,15449199,76,422.5,483.0,4479,left
51,2,binary,17,2,trial,15448329.0,15449695.0,1366.0,67,R,15449265,15449603,340,1411.4,602.3,4353,right
51,2,binary,17,2,postResponse,15448329.0,15449695.0,1366.0,67,R,15449625,15450043,420,1499.3,560.0,4434,right
51,2,binary,18,2,fixationCross,15450713.0,15453629.0,2916.0,68,R,15450117,15450211,96,1495.7,555.4,4519,right
51,2,binary,18,2,fixationCross,15450713.0,15453629.0,2916.0,68,R,15450233,15450411,180,1367.9,569.9,4633,right
51,2,binary,18,2,trial,15450713.0,15453629.0,2916.0,68,R,15450451,15450887,438,967.7,550.5,4892,NA
51,2,binary,18,2,trial,15450713.0,15453629.0,2916.0,68,R,15450931,15451213,284,604.4,553.8,5091,left
51,2,binary,18,2,trial,15450713.0,15453629.0,2916.0,68,R,15451235,15451341,108,661.7,495.1,4952,left
51,2,binary,18,2,trial,15450713.0,15453629.0,2916.0,68,R,15451401,15451539,140,1492.8,548.3,4675,right
51,2,binary,18,2,trial,15450713.0,15453629.0,2916.0,68,R,15451557,15451863,308,1429.2,538.5,4569,right
51,2,binary,18,2,trial,15450713.0,15453629.0,2916.0,68,R,15451887,15452195,310,1554.1,582.4,4484,right
51,2,binary,18,2,trial,15450713.0,15453629.0,2916.0,68,R,15452217,15452427,212,1439.8,531.5,4506,right
51,2,binary,18,2,trial,15450713.0,15453629.0,2916.0,68,R,15452487,15452711,226,619.0,539.3,4584,left
51,2,binary,18,2,trial,15450713.0,15453629.0,2916.0,68,R,15452727,15452997,272,643.8,482.0,4558,left
51,2,binary,18,2,trial,15450713.0,15453629.0,2916.0,68,R,15453031,15453211,182,421.5,459.7,4505,left
51,2,binary,18,2,trial,15450713.0,15453629.0,2916.0,68,R,15453277,15453431,156,1472.0,514.2,4483,right
51,2,binary,18,2,trial,15450713.0,15453629.0,2916.0,68,R,15453443,15453625,184,1433.9,515.2,4443,right
51,2,binary,18,2,postResponse,15450713.0,15453629.0,2916.0,68,R,15453651,15453971,322,1556.1,559.9,4507,right
51,2,binary,19,2,fixationCross,15454745.0,15456679.0,1934.0,69,R,15454047,15454435,390,944.1,428.6,4693,NA
51,2,binary,19,2,fixationCross,15454745.0,15456679.0,1934.0,69,R,15454457,15454725,270,976.4,533.3,4871,NA
51,2,binary,19,2,trial,15454745.0,15456679.0,1934.0,69,R,15454733,15454973,242,975.0,548.6,5002,NA
51,2,binary,19,2,trial,15454745.0,15456679.0,1934.0,69,R,15455021,15455135,116,521.7,515.8,5064,left
51,2,binary,19,2,trial,15454745.0,15456679.0,1934.0,69,R,15455159,15455467,310,417.2,451.0,4802,left
51,2,binary,19,2,trial,15454745.0,15456679.0,1934.0,69,R,15455535,15455651,118,1496.5,484.5,4487,right
51,2,binary,19,2,postResponse,15454745.0,15456679.0,1934.0,69,R,15455675,15457025,1352,1628.8,437.3,4468,right
51,2,binary,20,2,fixationCross,15457812.0,15460079.0,2267.0,70,R,15457101,15457457,358,1626.4,447.5,4662,right
51,2,binary,20,2,fixationCross,15457812.0,15460079.0,2267.0,70,R,15457511,15457625,116,1025.5,537.2,4875,NA
51,2,binary,20,2,trial,15457812.0,15460079.0,2267.0,70,R,15457639,15457973,336,981.3,546.2,4862,NA
51,2,binary,20,2,trial,15457812.0,15460079.0,2267.0,70,R,15458021,15458133,114,441.6,511.7,4846,left
51,2,binary,20,2,trial,15457812.0,15460079.0,2267.0,70,R,15458153,15458535,384,396.1,431.3,4641,left
51,2,binary,20,2,trial,15457812.0,15460079.0,2267.0,70,R,15458603,15458875,274,1448.0,552.8,4331,right
51,2,binary,20,2,trial,15457812.0,15460079.0,2267.0,70,R,15458893,15459291,400,1412.8,609.9,4449,right
51,2,binary,20,2,trial,15457812.0,15460079.0,2267.0,70,R,15459355,15459593,240,553.8,522.9,4679,left
51,2,binary,20,2,trial,15457812.0,15460079.0,2267.0,70,R,15459623,15459803,182,388.0,417.6,4687,left
51,2,binary,20,2,trial,15457812.0,15460079.0,2267.0,70,R,15459871,15460067,198,1364.6,875.7,4885,NA
51,2,binary,20,2,trial,15457812.0,15460079.0,2267.0,70,R,15460103,15460393,292,1456.3,567.3,4868,right
51,2,binary,21,1,fixationCross,15461162.0,15464729.0,3567.0,71,R,15460523,15460839,318,698.3,500.4,5192,left
51,2,binary,21,1,trial,15461162.0,15464729.0,3567.0,71,R,15460873,15461367,496,994.4,538.4,5237,NA
51,2,binary,21,1,trial,15461162.0,15464729.0,3567.0,71,R,15461409,15461579,172,578.3,573.4,5229,left
51,2,binary,21,1,trial,15461162.0,15464729.0,3567.0,71,R,15461597,15461911,316,520.8,534.3,5097,left
51,2,binary,21,1,trial,15461162.0,15464729.0,3567.0,71,R,15461921,15463029,1110,510.7,506.0,4801,left
51,2,binary,21,1,trial,15461162.0,15464729.0,3567.0,71,R,15463041,15463373,334,519.3,491.6,4805,left
51,2,binary,21,1,trial,15461162.0,15464729.0,3567.0,71,R,15463439,15463615,178,1436.4,545.1,4752,right
51,2,binary,21,1,trial,15461162.0,15464729.0,3567.0,71,R,15463633,15463803,172,1514.7,533.7,4758,right
51,2,binary,21,1,trial,15461162.0,15464729.0,3567.0,71,R,15463939,15464133,196,1514.9,588.2,4940,right
51,2,binary,21,1,trial,15461162.0,15464729.0,3567.0,71,R,15464205,15464573,370,556.9,539.3,5228,left
51,2,binary,21,1,postResponse,15461162.0,15464729.0,3567.0,71,R,15464589,15465063,476,495.8,547.0,4989,left
51,2,binary,22,1,fixationCross,15465829.0,15468013.0,2184.0,72,R,15465189,15465551,364,1068.4,525.7,4944,NA
51,2,binary,22,1,trial,15465829.0,15468013.0,2184.0,72,R,15465571,15466027,458,986.7,561.8,5272,NA
51,2,binary,22,1,trial,15465829.0,15468013.0,2184.0,72,R,15466071,15466237,168,619.9,575.3,5255,left
51,2,binary,22,1,trial,15465829.0,15468013.0,2184.0,72,R,15466277,15466443,168,423.3,459.4,4977,left
51,2,binary,22,1,trial,15465829.0,15468013.0,2184.0,72,R,15466505,15466761,258,1413.1,448.4,4717,right
51,2,binary,22,1,trial,15465829.0,15468013.0,2184.0,72,R,15466787,15467091,306,1528.0,508.5,4725,right
51,2,binary,22,1,trial,15465829.0,15468013.0,2184.0,72,R,15467161,15467403,244,484.0,486.3,4915,left
51,2,binary,22,1,trial,15465829.0,15468013.0,2184.0,72,R,15467431,15467667,238,366.2,385.3,4902,left
51,2,binary,22,1,trial,15465829.0,15468013.0,2184.0,72,R,15467707,15467925,220,647.0,711.4,5064,left
51,2,binary,22,1,postResponse,15465829.0,15468013.0,2184.0,72,R,15467951,15468349,400,711.2,599.1,5193,left
51,2,binary,23,1,fixationCross,15469096.0,15471530.0,2434.0,73,R,15468449,15468783,336,704.6,599.0,5269,left
51,2,binary,23,1,trial,15469096.0,15471530.0,2434.0,73,R,15468815,15469297,484,987.6,566.6,4965,NA
51,2,binary,23,1,trial,15469096.0,15471530.0,2434.0,73,R,15469349,15469535,188,504.6,596.4,4873,left
51,2,binary,23,1,trial,15469096.0,15471530.0,2434.0,73,R,15469565,15469815,252,341.7,493.9,4631,left
51,2,binary,23,1,trial,15469096.0,15471530.0,2434.0,73,R,15469825,15469985,162,319.8,462.6,4463,left
51,2,binary,23,1,trial,15469096.0,15471530.0,2434.0,73,R,15470017,15470213,198,542.4,632.5,4408,left
51,2,binary,23,1,trial,15469096.0,15471530.0,2434.0,73,R,15470279,15470597,320,1454.7,554.0,4261,right
51,2,binary,23,1,trial,15469096.0,15471530.0,2434.0,73,R,15470609,15470915,308,1417.7,536.6,4267,right
51,2,binary,23,1,trial,15469096.0,15471530.0,2434.0,73,R,15470983,15471083,102,484.3,396.5,4317,left
51,2,binary,23,1,trial,15469096.0,15471530.0,2434.0,73,R,15471109,15471413,306,300.5,391.2,4356,left
51,2,binary,23,1,postResponse,15469096.0,15471530.0,2434.0,73,R,15471433,15471879,448,308.3,474.5,4488,left
51,2,binary,24,2,fixationCross,15472629.0,15474579.0,1950.0,74,R,15471979,15472163,186,635.7,507.2,4663,left
51,2,binary,24,2,fixationCross,15472629.0,15474579.0,1950.0,74,R,15472203,15472365,164,1095.2,549.4,4759,NA
51,2,binary,24,2,trial,15472629.0,15474579.0,1950.0,74,R,15472385,15472797,414,992.5,563.3,4915,NA
51,2,binary,24,2,trial,15472629.0,15474579.0,1950.0,74,R,15472845,15473083,240,486.4,499.8,4935,left
51,2,binary,24,2,trial,15472629.0,15474579.0,1950.0,74,R,15473147,15473367,222,1429.0,514.7,4596,right
51,2,binary,24,2,trial,15472629.0,15474579.0,1950.0,74,R,15473387,15473721,336,1498.9,466.9,4498,right
51,2,binary,24,2,trial,15472629.0,15474579.0,1950.0,74,R,15473767,15473899,134,1463.8,907.8,4756,NA
51,2,binary,24,2,trial,15472629.0,15474579.0,1950.0,74,R,15473971,15474333,364,431.7,465.8,4896,left
51,2,binary,24,2,postResponse,15472629.0,15474579.0,1950.0,74,R,15474399,15474911,514,1450.9,470.1,4631,right
51,2,binary,25,2,fixationCross,15475563.0,15477713.0,2150.0,75,R,15475019,15475243,226,732.8,577.8,4792,left
51,2,binary,25,2,fixationCross,15475563.0,15477713.0,2150.0,75,R,15475275,15475419,146,1026.4,520.2,4913,NA
51,2,binary,25,2,trial,15475563.0,15477713.0,2150.0,75,R,15475441,15475717,278,984.3,561.2,5068,NA
51,2,binary,25,2,trial,15475563.0,15477713.0,2150.0,75,R,15475763,15475961,200,519.1,514.4,5224,left
51,2,binary,25,2,trial,15475563.0,15477713.0,2150.0,75,R,15475981,15476117,138,442.0,538.5,5082,left
51,2,binary,25,2,trial,15475563.0,15477713.0,2150.0,75,R,15476177,15476325,150,1373.0,483.4,4782,right
51,2,binary,25,2,trial,15475563.0,15477713.0,2150.0,75,R,15476347,15476675,330,1454.5,434.6,4624,right
51,2,binary,25,2,trial,15475563.0,15477713.0,2150.0,75,R,15476703,15476993,292,1388.7,584.9,4843,right
51,2,binary,25,2,trial,15475563.0,15477713.0,2150.0,75,R,15477061,15477249,190,482.7,515.3,5076,left
51,2,binary,25,2,trial,15475563.0,15477713.0,2150.0,75,R,15477399,15478025,628,1419.0,571.3,4856,right
51,2,binary,26,1,trial,15503129.0,15506713.0,3584.0,76,R,15502639,15503461,824,961.3,555.7,5669,NA
51,2,binary,26,1,trial,15503129.0,15506713.0,3584.0,76,R,15503507,15503677,172,533.5,524.9,5279,left
51,2,binary,26,1,trial,15503129.0,15506713.0,3584.0,76,R,15503699,15503837,140,495.5,461.4,5073,left
51,2,binary,26,1,trial,15503129.0,15506713.0,3584.0,76,R,15503847,15504089,244,480.1,445.7,4965,left
51,2,binary,26,1,trial,15503129.0,15506713.0,3584.0,76,R,15504151,15504373,224,1328.3,548.2,4747,right
51,2,binary,26,1,trial,15503129.0,15506713.0,3584.0,76,R,15504395,15504461,68,1452.1,577.5,4670,right
51,2,binary,26,1,trial,15503129.0,15506713.0,3584.0,76,R,15504561,15504981,422,1502.6,591.5,4674,right
51,2,binary,26,1,trial,15503129.0,15506713.0,3584.0,76,R,15505051,15505239,190,511.0,500.4,4784,left
51,2,binary,26,1,trial,15503129.0,15506713.0,3584.0,76,R,15505261,15505829,570,466.4,429.0,4811,left
51,2,binary,26,1,trial,15503129.0,15506713.0,3584.0,76,R,15505845,15506157,314,534.2,432.5,5160,left
51,2,binary,26,1,trial,15503129.0,15506713.0,3584.0,76,R,15506219,15506647,430,1385.8,550.6,5270,right
51,2,binary,26,1,postResponse,15503129.0,15506713.0,3584.0,76,R,15506709,15507059,352,512.6,495.1,5072,left
51,2,binary,27,2,fixationCross,15507796.0,15509463.0,1667.0,77,R,15507161,15507469,310,519.0,492.7,5017,left
51,2,binary,27,2,fixationCross,15507796.0,15509463.0,1667.0,77,R,15507511,15507625,116,927.1,551.4,5179,NA
51,2,binary,27,2,trial,15507796.0,15509463.0,1667.0,77,R,15507643,15507955,314,986.7,570.2,5319,NA
51,2,binary,27,2,trial,15507796.0,15509463.0,1667.0,77,R,15507999,15508249,252,532.1,512.9,5542,left
51,2,binary,27,2,trial,15507796.0,15509463.0,1667.0,77,R,15508275,15508395,122,638.7,577.6,5473,left
51,2,binary,27,2,trial,15507796.0,15509463.0,1667.0,77,R,15508451,15508655,206,1435.1,562.6,5168,right
51,2,binary,27,2,trial,15507796.0,15509463.0,1667.0,77,R,15508681,15508973,294,1456.4,689.0,5123,right
51,2,binary,27,2,trial,15507796.0,15509463.0,1667.0,77,R,15509003,15509369,368,1483.1,516.6,5210,right
51,2,binary,27,2,postResponse,15507796.0,15509463.0,1667.0,77,R,15509401,15509807,408,1466.1,710.4,5315,right
51,2,binary,28,1,fixationCross,15510580.0,15512213.0,1633.0,78,R,15509883,15510189,308,1464.2,705.5,5399,right
51,2,binary,28,1,fixationCross,15510580.0,15512213.0,1633.0,78,R,15510227,15510343,118,1048.8,592.0,5528,NA
51,2,binary,28,1,trial,15510580.0,15512213.0,1633.0,78,R,15510359,15510765,408,985.5,562.2,5578,NA
51,2,binary,28,1,trial,15510580.0,15512213.0,1633.0,78,R,15510819,15510967,150,481.6,558.9,5564,left
51,2,binary,28,1,trial,15510580.0,15512213.0,1633.0,78,R,15510983,15511147,166,421.1,527.1,5399,left
51,2,binary,28,1,trial,15510580.0,15512213.0,1633.0,78,R,15511163,15511349,188,402.8,471.5,5147,left
51,2,binary,28,1,trial,15510580.0,15512213.0,1633.0,78,R,15511415,15511563,150,1444.3,598.4,4868,right
51,2,binary,28,1,trial,15510580.0,15512213.0,1633.0,78,R,15511695,15511805,112,1415.6,626.5,4754,right
51,2,binary,28,1,postResponse,15510580.0,15512213.0,1633.0,78,R,15511871,15512561,692,598.7,690.1,5054,left
51,2,binary,29,1,fixationCross,15513312.0,15515396.0,2084.0,79,R,15512663,15512921,260,1105.4,421.3,5115,NA
51,2,binary,29,1,fixationCross,15513312.0,15515396.0,2084.0,79,R,15512955,15513069,116,1049.1,590.2,5205,NA
51,2,binary,29,1,trial,15513312.0,15515396.0,2084.0,79,R,15513091,15513521,432,993.8,556.8,5427,NA
51,2,binary,29,1,trial,15513312.0,15515396.0,2084.0,79,R,15513561,15513833,274,1374.5,531.5,5407,right
51,2,binary,29,1,trial,15513312.0,15515396.0,2084.0,79,R,15513857,15514079,224,1478.6,506.7,5195,right
51,2,binary,29,1,trial,15513312.0,15515396.0,2084.0,79,R,15514101,15514321,222,1363.7,464.4,5120,right
51,2,binary,29,1,trial,15513312.0,15515396.0,2084.0,79,R,15514381,15514557,178,514.3,519.0,5186,left
51,2,binary,29,1,postResponse,15513312.0,15515396.0,2084.0,79,R,15514575,15515745,1172,489.1,467.8,4806,left
51,2,binary,30,1,fixationCross,15516529.0,15518047.0,1518.0,80,R,15515867,15516227,362,1097.8,540.5,5054,NA
51,2,binary,30,1,trial,15516529.0,15518047.0,1518.0,80,R,15516251,15516725,476,986.5,559.7,5447,NA
51,2,binary,30,1,trial,15516529.0,15518047.0,1518.0,80,R,15516775,15516887,114,460.2,581.3,5554,left
51,2,binary,30,1,trial,15516529.0,15518047.0,1518.0,80,R,15517075,15517331,258,418.5,576.6,5106,left
51,2,binary,30,1,trial,15516529.0,15518047.0,1518.0,80,R,15517399,15517697,300,1456.8,487.6,5008,right
51,2,binary,30,1,trial,15516529.0,15518047.0,1518.0,80,R,15517761,15517915,156,555.6,705.1,5104,left
51,2,binary,30,1,postResponse,15516529.0,15518047.0,1518.0,80,R,15517945,15518393,450,417.8,552.3,5052,left
51,2,binary,31,2,fixationCross,15519163.0,15520747.0,1584.0,81,R,15518495,15518587,94,410.4,557.7,5186,left
51,2,binary,31,2,fixationCross,15519163.0,15520747.0,1584.0,81,R,15518639,15518865,228,833.2,546.9,5248,NA
51,2,binary,31,2,trial,15519163.0,15520747.0,1584.0,81,R,15518891,15519319,430,988.8,564.1,5395,NA
51,2,binary,31,2,trial,15519163.0,15520747.0,1584.0,81,R,15519365,15519497,134,561.6,533.2,5631,left
51,2,binary,31,2,trial,15519163.0,15520747.0,1584.0,81,R,15519523,15519655,134,379.6,512.3,5511,left
51,2,binary,31,2,trial,15519163.0,15520747.0,1584.0,81,R,15519719,15519937,220,1369.2,542.7,5119,right
51,2,binary,31,2,trial,15519163.0,15520747.0,1584.0,81,R,15519959,15520343,386,1476.1,534.2,4846,right
51,2,binary,31,2,trial,15519163.0,15520747.0,1584.0,81,R,15520365,15520649,286,1379.6,514.8,4677,right
51,2,binary,31,2,postResponse,15519163.0,15520747.0,1584.0,81,R,15520675,15521093,420,1596.5,557.4,4588,right
51,2,binary,32,2,fixationCross,15521697.0,15524946.0,3249.0,82,R,15521337,15521597,262,967.8,561.7,5117,NA
51,2,binary,32,2,trial,15521697.0,15524946.0,3249.0,82,R,15521609,15521859,252,995.8,561.4,5384,NA
51,2,binary,32,2,trial,15521697.0,15524946.0,3249.0,82,R,15521915,15522101,188,538.5,561.5,5590,left
51,2,binary,32,2,trial,15521697.0,15524946.0,3249.0,82,R,15522125,15522295,172,420.7,522.9,5368,left
51,2,binary,32,2,trial,15521697.0,15524946.0,3249.0,82,R,15522359,15522641,284,1417.1,494.2,4913,right
51,2,binary,32,2,trial,15521697.0,15524946.0,3249.0,82,R,15522653,15522911,260,1455.7,497.4,4840,right
51,2,binary,32,2,trial,15521697.0,15524946.0,3249.0,82,R,15522939,15523315,378,1447.3,642.7,5065,right
51,2,binary,32,2,trial,15521697.0,15524946.0,3249.0,82,R,15523341,15523843,504,1462.8,506.8,5127,right
51,2,binary,32,2,trial,15521697.0,15524946.0,3249.0,82,R,15523913,15524391,480,509.6,551.5,5105,left
51,2,binary,32,2,trial,15521697.0,15524946.0,3249.0,82,R,15524415,15524519,106,614.1,563.1,4944,left
51,2,binary,32,2,trial,15521697.0,15524946.0,3249.0,82,R,15524575,15524959,386,1348.4,518.4,4704,right
51,2,binary,32,2,trial,15521697.0,15524946.0,3249.0,82,R,15524981,15525133,154,1458.3,509.6,4831,right
51,2,binary,33,1,fixationCross,15526163.0,15530447.0,4284.0,83,R,15525399,15525855,458,1089.5,528.6,5474,NA
51,2,binary,33,1,trial,15526163.0,15530447.0,4284.0,83,R,15525873,15526341,470,1005.8,563.2,5707,NA
51,2,binary,33,1,trial,15526163.0,15530447.0,4284.0,83,R,15526389,15526503,116,571.7,510.9,5659,left
51,2,binary,33,1,trial,15526163.0,15530447.0,4284.0,83,R,15526521,15526641,122,505.8,510.5,5634,left
51,2,binary,33,1,trial,15526163.0,15530447.0,4284.0,83,R,15526707,15527195,490,1551.9,544.8,5485,right
51,2,binary,33,1,trial,15526163.0,15530447.0,4284.0,83,R,15527217,15527597,382,1463.3,546.7,5609,right
51,2,binary,33,1,trial,15526163.0,15530447.0,4284.0,83,R,15527625,15527917,294,1533.9,456.1,5495,right
51,2,binary,33,1,trial,15526163.0,15530447.0,4284.0,83,R,15527943,15528097,156,1429.1,560.9,5465,right
51,2,binary,33,1,trial,15526163.0,15530447.0,4284.0,83,R,15528169,15528337,170,546.8,512.2,5604,left
51,2,binary,33,1,trial,15526163.0,15530447.0,4284.0,83,R,15528351,15529231,882,510.0,498.7,5766,left
51,2,binary,33,1,trial,15526163.0,15530447.0,4284.0,83,R,15529241,15529569,330,486.1,509.9,5641,left
51,2,binary,33,1,trial,15526163.0,15530447.0,4284.0,83,R,15529639,15529809,172,1544.2,527.3,5467,right
51,2,binary,33,1,trial,15526163.0,15530447.0,4284.0,83,R,15529827,15530375,550,1528.1,456.5,5341,right
51,2,binary,33,1,postResponse,15526163.0,15530447.0,4284.0,83,R,15530451,15530783,334,483.7,527.3,5550,left
51,2,binary,34,1,fixationCross,15531430.0,15533413.0,1983.0,84,R,15530925,15531249,326,1057.6,520.1,5440,NA
51,2,binary,34,1,trial,15531430.0,15533413.0,1983.0,84,R,15531269,15531613,346,1006.2,563.1,5611,NA
51,2,binary,34,1,trial,15531430.0,15533413.0,1983.0,84,R,15531659,15531807,150,549.0,550.1,5785,left
51,2,binary,34,1,trial,15531430.0,15533413.0,1983.0,84,R,15531827,15531943,118,434.2,494.2,5628,left
51,2,binary,34,1,trial,15531430.0,15533413.0,1983.0,84,R,15531965,15532139,176,437.4,430.1,5466,left
51,2,binary,34,1,trial,15531430.0,15533413.0,1983.0,84,R,15532205,15532489,286,1464.1,540.1,5161,right
51,2,binary,34,1,trial,15531430.0,15533413.0,1983.0,84,R,15532513,15532771,260,1417.4,458.5,5050,right
51,2,binary,34,1,trial,15531430.0,15533413.0,1983.0,84,R,15532911,15533163,254,438.1,490.4,5011,left
51,2,binary,34,1,postResponse,15531430.0,15533413.0,1983.0,84,R,15533181,15533761,582,423.5,438.2,5025,left
51,2,binary,35,1,fixationCross,15534313.0,15535497.0,1184.0,85,R,15533835,15533911,78,422.2,435.7,4951,left
51,2,binary,35,1,fixationCross,15534313.0,15535497.0,1184.0,85,R,15533967,15534143,178,913.9,573.4,5054,NA
51,2,binary,35,1,trial,15534313.0,15535497.0,1184.0,85,R,15534165,15534461,298,1007.2,577.6,5276,NA
51,2,binary,35,1,trial,15534313.0,15535497.0,1184.0,85,R,15534511,15534707,198,472.0,544.9,5593,left
51,2,binary,35,1,trial,15534313.0,15535497.0,1184.0,85,R,15534729,15534991,264,411.2,492.8,5420,left
51,2,binary,35,1,trial,15534313.0,15535497.0,1184.0,85,R,15535055,15535699,646,1386.3,557.6,4993,right
51,2,binary,36,2,fixationCross,15536580.0,15538714.0,2134.0,86,R,15535995,15536259,266,756.0,496.3,5265,NA
51,2,binary,36,2,trial,15536580.0,15538714.0,2134.0,86,R,15536291,15536731,442,1005.6,557.2,5493,NA
51,2,binary,36,2,trial,15536580.0,15538714.0,2134.0,86,R,15536777,15536911,136,534.1,575.5,5488,left
51,2,binary,36,2,trial,15536580.0,15538714.0,2134.0,86,R,15536933,15537119,188,438.2,532.2,5348,left
51,2,binary,36,2,trial,15536580.0,15538714.0,2134.0,86,R,15537183,15537719,538,1416.5,573.3,4981,right
