participantNo,block,task,blockTrial,response,trialStage,trialStartTime,trialFinishTime,rt,trial,eye,fixStart,fixEnd,fixLength,fixPosX,fixPosY,dilation,aoi
21,1,continuous,1,50,fixationCross,14479029.0,14481812.0,2783.0,1,R,14478472,14478676,206,973.8,863.0,6247,likertHorizontal
21,1,continuous,1,50,fixationCross,14479029.0,14481812.0,2783.0,1,R,14478724,14478974,252,937.2,510.3,6125,NA
21,1,continuous,1,50,trial,14479029.0,14481812.0,2783.0,1,R,14478996,14479188,194,954.9,559.8,6354,NA
21,1,continuous,1,50,trial,14479029.0,14481812.0,2783.0,1,R,14479230,14479592,364,652.4,552.0,6019,left
21,1,continuous,1,50,trial,14479029.0,14481812.0,2783.0,1,R,14479614,14479740,128,562.7,500.4,5236,left
21,1,continuous,1,50,trial,14479029.0,14481812.0,2783.0,1,R,14479802,14480332,532,1436.5,501.0,4784,right
21,1,continuous,1,50,trial,14479029.0,14481812.0,2783.0,1,R,14480400,14480702,304,548.4,508.7,5257,left
21,1,continuous,1,50,trial,14479029.0,14481812.0,2783.0,1,R,14480720,14480846,128,470.1,502.5,5353,left
21,1,continuous,1,50,trial,14479029.0,14481812.0,2783.0,1,R,14480912,14481350,440,1412.3,517.5,5121,right
21,1,continuous,1,50,trial,14479029.0,14481812.0,2783.0,1,R,14481386,14481644,260,1249.7,587.2,5474,right
21,1,continuous,1,50,postResponse,14479029.0,14481812.0,2783.0,1,R,14481670,14482516,848,1344.4,519.6,5703,right
21,1,continuous,1,50,postResponse,14479029.0,14481812.0,2783.0,1,R,14482546,14482708,164,1158.9,458.3,6243,NA
21,1,continuous,2,20,fixationCross,14483478.0,14487645.0,4167.0,2,R,14482810,14482850,42,1159.0,453.0,6401,NA
21,1,continuous,2,20,fixationCross,14483478.0,14487645.0,4167.0,2,R,14482884,14483172,290,999.7,427.2,6554,NA
21,1,continuous,2,20,fixationCross,14483478.0,14487645.0,4167.0,2,R,14483198,14483358,162,975.0,520.5,6820,NA
21,1,continuous,2,20,trial,14483478.0,14487645.0,4167.0,2,R,14483370,14483650,282,968.6,543.7,6950,NA
21,1,continuous,2,20,trial,14483478.0,14487645.0,4167.0,2,R,14483700,14483922,224,675.0,537.8,6419,left
21,1,continuous,2,20,trial,14483478.0,14487645.0,4167.0,2,R,14483980,14484536,558,1441.4,467.4,4904,right
21,1,continuous,2,20,trial,14483478.0,14487645.0,4167.0,2,R,14484556,14485118,564,1455.4,412.3,5156,right
21,1,continuous,2,20,trial,14483478.0,14487645.0,4167.0,2,R,14485168,14485226,60,1021.5,444.6,5500,NA
21,1,continuous,2,20,trial,14483478.0,14487645.0,4167.0,2,R,14485282,14485400,120,599.9,468.8,5482,left
21,1,continuous,2,20,trial,14483478.0,14487645.0,4167.0,2,R,14485428,14485826,400,442.7,514.3,5496,left
21,1,continuous,2,20,trial,14483478.0,14487645.0,4167.0,2,R,14485848,14486230,384,410.8,584.2,5623,left
21,1,continuous,2,20,trial,14483478.0,14487645.0,4167.0,2,R,14486252,14486526,276,398.7,512.1,5785,left
21,1,continuous,2,20,postResponse,14483478.0,14487645.0,4167.0,2,R,14486608,14487998,1392,1503.4,458.6,5337,right
21,1,continuous,3,13,fixationCross,14489412.0,14492278.0,2866.0,3,R,14488074,14488156,84,1487.7,471.9,5864,right
21,1,continuous,3,13,fixationCross,14489412.0,14492278.0,2866.0,3,R,14488188,14488218,32,1256.8,416.9,6118,right
21,1,continuous,3,13,fixationCross,14489412.0,14492278.0,2866.0,3,R,14488352,14489158,808,1027.3,454.9,6507,NA
21,1,continuous,3,13,trial,14489412.0,14492278.0,2866.0,3,R,14489176,14489604,430,968.6,494.5,6254,NA
21,1,continuous,3,13,trial,14489412.0,14492278.0,2866.0,3,R,14489664,14489880,218,521.1,505.2,6005,left
21,1,continuous,3,13,trial,14489412.0,14492278.0,2866.0,3,R,14489900,14490160,262,476.4,449.7,5230,left
21,1,continuous,3,13,trial,14489412.0,14492278.0,2866.0,3,R,14490230,14490542,314,1455.4,482.8,4781,right
21,1,continuous,3,13,trial,14489412.0,14492278.0,2866.0,3,R,14490560,14490932,374,1467.9,520.5,4948,right
21,1,continuous,3,13,trial,14489412.0,14492278.0,2866.0,3,R,14491004,14491278,276,489.8,483.1,5394,left
21,1,continuous,3,13,trial,14489412.0,14492278.0,2866.0,3,R,14491294,14491698,406,467.3,446.6,5373,left
21,1,continuous,3,13,trial,14489412.0,14492278.0,2866.0,3,R,14491710,14492594,886,465.5,423.3,5643,left
21,1,continuous,4,86,fixationCross,14495562.0,14499278.0,3716.0,4,R,14492778,14493288,512,1056.6,411.6,6099,NA
21,1,continuous,4,86,fixationCross,14495562.0,14499278.0,3716.0,4,R,14493470,14494422,954,1031.6,453.9,6220,NA
21,1,continuous,4,86,fixationCross,14495562.0,14499278.0,3716.0,4,R,14494446,14494858,414,1153.0,488.4,6143,NA
21,1,continuous,4,86,fixationCross,14495562.0,14499278.0,3716.0,4,R,14494876,14495348,474,1080.5,494.8,6520,NA
21,1,continuous,4,86,trial,14495562.0,14499278.0,3716.0,4,R,14495366,14495716,352,1005.7,494.6,6516,NA
21,1,continuous,4,86,trial,14495562.0,14499278.0,3716.0,4,R,14495758,14495950,194,1263.2,488.0,5950,right
21,1,continuous,4,86,trial,14495562.0,14499278.0,3716.0,4,R,14495978,14496116,140,1432.8,488.0,4989,right
21,1,continuous,4,86,trial,14495562.0,14499278.0,3716.0,4,R,14496184,14496334,152,537.0,510.7,4989,left
21,1,continuous,4,86,trial,14495562.0,14499278.0,3716.0,4,R,14496356,14496566,212,643.7,548.2,4874,left
21,1,continuous,4,86,trial,14495562.0,14499278.0,3716.0,4,R,14496580,14496808,230,643.9,581.4,5031,left
21,1,continuous,4,86,trial,14495562.0,14499278.0,3716.0,4,R,14496842,14497020,180,384.4,467.1,5263,left
21,1,continuous,4,86,trial,14495562.0,14499278.0,3716.0,4,R,14497136,14497180,46,443.0,474.3,5334,left
21,1,continuous,4,86,trial,14495562.0,14499278.0,3716.0,4,R,14497214,14497566,354,660.8,581.7,5516,left
21,1,continuous,4,86,trial,14495562.0,14499278.0,3716.0,4,R,14497628,14497892,266,1398.6,514.1,5116,right
21,1,continuous,4,86,postResponse,14495562.0,14499278.0,3716.0,4,R,14497912,14499638,1728,1465.8,533.6,5116,right
21,1,continuous,5,73,fixationCross,14500645.0,14502879.0,2234.0,5,R,14499740,14499926,188,1464.5,544.1,5516,right
21,1,continuous,5,73,fixationCross,14500645.0,14502879.0,2234.0,5,R,14499946,14500078,134,1352.2,526.5,5900,right
21,1,continuous,5,73,fixationCross,14500645.0,14502879.0,2234.0,5,R,14500118,14500362,246,1064.3,507.1,6367,NA
21,1,continuous,5,73,trial,14500645.0,14502879.0,2234.0,5,R,14500380,14500798,420,992.3,493.0,6529,NA
21,1,continuous,5,73,trial,14500645.0,14502879.0,2234.0,5,R,14500854,14501106,254,1409.4,504.7,5789,right
21,1,continuous,5,73,trial,14500645.0,14502879.0,2234.0,5,R,14501122,14501386,266,1380.4,524.2,4957,right
21,1,continuous,5,73,trial,14500645.0,14502879.0,2234.0,5,R,14501448,14501636,190,618.7,489.9,5261,left
21,1,continuous,5,73,postResponse,14500645.0,14502879.0,2234.0,5,R,14501698,14503218,1522,1402.5,570.2,5629,right
21,1,continuous,6,1,fixationCross,14504495.0,14507579.0,3084.0,6,R,14503292,14503332,42,1394.7,540.5,6124,right
21,1,continuous,6,1,fixationCross,14504495.0,14507579.0,3084.0,6,R,14503440,14503610,172,1372.6,448.2,6307,right
21,1,continuous,6,1,fixationCross,14504495.0,14507579.0,3084.0,6,R,14503650,14504304,656,1047.2,481.8,6605,NA
21,1,continuous,6,1,trial,14504495.0,14507579.0,3084.0,6,R,14504320,14504630,312,969.0,472.6,6287,NA
21,1,continuous,6,1,trial,14504495.0,14507579.0,3084.0,6,R,14504688,14505132,446,1474.3,482.5,5269,right
21,1,continuous,6,1,trial,14504495.0,14507579.0,3084.0,6,R,14505206,14505360,156,485.3,537.5,5026,left
21,1,continuous,6,1,trial,14504495.0,14507579.0,3084.0,6,R,14505382,14505752,372,408.2,568.5,5216,left
21,1,continuous,6,1,trial,14504495.0,14507579.0,3084.0,6,R,14505826,14506242,418,1512.2,507.6,5020,right
21,1,continuous,6,1,trial,14504495.0,14507579.0,3084.0,6,R,14506262,14506412,152,1522.2,440.7,4997,right
21,1,continuous,6,1,trial,14504495.0,14507579.0,3084.0,6,R,14506438,14506570,134,1448.5,526.5,5017,right
21,1,continuous,6,1,trial,14504495.0,14507579.0,3084.0,6,R,14506630,14506726,98,760.2,532.4,5387,NA
21,1,continuous,6,1,trial,14504495.0,14507579.0,3084.0,6,R,14506780,14506976,198,395.6,535.5,5585,left
21,1,continuous,6,1,postResponse,14504495.0,14507579.0,3084.0,6,R,14506992,14507912,922,401.5,569.5,5807,left
21,1,continuous,7,100,fixationCross,14508745.0,14511962.0,3217.0,7,R,14508012,14508212,202,408.8,563.0,6004,left
21,1,continuous,7,100,fixationCross,14508745.0,14511962.0,3217.0,7,R,14508266,14508446,182,829.9,541.3,6241,NA
21,1,continuous,7,100,trial,14508745.0,14511962.0,3217.0,7,R,14508474,14508876,404,969.3,535.2,6361,NA
21,1,continuous,7,100,trial,14508745.0,14511962.0,3217.0,7,R,14508922,14509084,164,1374.8,488.9,6090,right
21,1,continuous,7,100,trial,14508745.0,14511962.0,3217.0,7,R,14509116,14509272,158,1579.4,522.0,5117,right
21,1,continuous,7,100,trial,14508745.0,14511962.0,3217.0,7,R,14509286,14509504,220,1628.7,547.4,4762,right
21,1,continuous,7,100,trial,14508745.0,14511962.0,3217.0,7,R,14509530,14509650,122,1456.0,484.8,4828,right
21,1,continuous,7,100,trial,14508745.0,14511962.0,3217.0,7,R,14509676,14509762,88,1308.6,464.1,4989,right
21,1,continuous,7,100,trial,14508745.0,14511962.0,3217.0,7,R,14509824,14510140,318,529.1,486.6,5363,left
21,1,continuous,7,100,trial,14508745.0,14511962.0,3217.0,7,R,14510162,14510354,194,564.7,550.1,5486,left
21,1,continuous,7,100,trial,14508745.0,14511962.0,3217.0,7,R,14510428,14510546,120,1466.4,504.9,5289,right
21,1,continuous,7,100,trial,14508745.0,14511962.0,3217.0,7,R,14510578,14510754,178,1639.1,553.9,5157,right
21,1,continuous,7,100,trial,14508745.0,14511962.0,3217.0,7,R,14510798,14511464,668,1292.6,472.1,5195,right
21,1,continuous,7,100,trial,14508745.0,14511962.0,3217.0,7,R,14511488,14511904,418,1416.0,461.3,5579,right
21,1,continuous,7,100,postResponse,14508745.0,14511962.0,3217.0,7,R,14511926,14512296,372,1332.0,447.3,5709,right
21,1,continuous,8,20,fixationCross,14512996.0,14515413.0,2417.0,8,R,14512370,14512514,146,1341.9,442.8,5624,right
21,1,continuous,8,20,fixationCross,14512996.0,14515413.0,2417.0,8,R,14512536,14512684,150,1186.6,449.0,5861,right
21,1,continuous,8,20,trial,14512996.0,14515413.0,2417.0,8,R,14512716,14513148,434,983.5,507.8,6222,NA
21,1,continuous,8,20,trial,14512996.0,14515413.0,2417.0,8,R,14513192,14513306,116,671.3,488.6,6319,left
21,1,continuous,8,20,trial,14512996.0,14515413.0,2417.0,8,R,14513338,14513642,306,476.9,494.0,5375,left
21,1,continuous,8,20,trial,14512996.0,14515413.0,2417.0,8,R,14513708,14514116,410,1438.7,543.2,4998,right
21,1,continuous,8,20,trial,14512996.0,14515413.0,2417.0,8,R,14514190,14514452,264,435.3,507.6,5489,left
21,1,continuous,8,20,postResponse,14512996.0,14515413.0,2417.0,8,R,14514468,14515748,1282,454.8,550.6,5887,left
21,1,continuous,9,26,fixationCross,14520046.0,14523162.0,3116.0,9,R,14515822,14515860,40,463.6,553.5,6010,left
21,1,continuous,9,26,fixationCross,14520046.0,14523162.0,3116.0,9,R,14516010,14516156,148,1331.9,442.0,5974,right
21,1,continuous,9,26,fixationCross,14520046.0,14523162.0,3116.0,9,R,14516188,14518810,2624,1092.5,468.2,6473,NA
21,1,continuous,9,26,fixationCross,14520046.0,14523162.0,3116.0,9,R,14518936,14519572,638,1061.0,472.8,6599,NA
21,1,continuous,9,26,fixationCross,14520046.0,14523162.0,3116.0,9,R,14519736,14519858,124,1095.7,436.6,5896,NA
21,1,continuous,9,26,trial,14520046.0,14523162.0,3116.0,9,R,14519880,14520046,168,1000.5,480.1,5958,NA
21,1,continuous,9,26,trial,14520046.0,14523162.0,3116.0,9,R,14520066,14520180,116,961.3,526.6,6033,NA
21,1,continuous,9,26,trial,14520046.0,14523162.0,3116.0,9,R,14520234,14520534,302,1398.3,482.8,5389,right
21,1,continuous,9,26,trial,14520046.0,14523162.0,3116.0,9,R,14520596,14520894,300,535.6,494.7,4876,left
21,1,continuous,9,26,trial,14520046.0,14523162.0,3116.0,9,R,14520914,14521132,220,559.4,428.2,4994,left
21,1,continuous,9,26,trial,14520046.0,14523162.0,3116.0,9,R,14521168,14521330,164,346.6,408.6,5154,left
21,1,continuous,9,26,trial,14520046.0,14523162.0,3116.0,9,R,14521344,14521424,82,295.3,407.9,5198,left
21,1,continuous,9,26,trial,14520046.0,14523162.0,3116.0,9,R,14521496,14521712,218,1418.6,482.5,5006,right
21,1,continuous,9,26,trial,14520046.0,14523162.0,3116.0,9,R,14521734,14522228,496,1469.2,497.8,5035,right
21,1,continuous,9,26,trial,14520046.0,14523162.0,3116.0,9,R,14522298,14522590,294,541.8,494.2,5509,left
21,1,continuous,9,26,trial,14520046.0,14523162.0,3116.0,9,R,14522640,14522966,328,690.8,933.3,5785,NA
21,1,continuous,9,26,trial,14520046.0,14523162.0,3116.0,9,R,14522984,14523344,362,726.9,973.9,5881,NA
21,1,continuous,9,26,postResponse,14520046.0,14523162.0,3116.0,9,R,14523442,14523494,54,1458.6,454.4,5790,right
21,1,continuous,10,15,fixationCross,14524229.0,14528479.0,4250.0,10,R,14523594,14523646,54,1442.1,456.3,5906,right
21,1,continuous,10,15,fixationCross,14524229.0,14528479.0,4250.0,10,R,14523674,14523914,242,1196.0,463.5,6213,right
21,1,continuous,10,15,trial,14524229.0,14528479.0,4250.0,10,R,14523948,14524358,412,992.9,503.0,6622,NA
21,1,continuous,10,15,trial,14524229.0,14528479.0,4250.0,10,R,14524416,14524616,202,1414.7,503.1,6204,right
21,1,continuous,10,15,trial,14524229.0,14528479.0,4250.0,10,R,14524638,14524904,268,1421.7,552.5,5133,right
21,1,continuous,10,15,trial,14524229.0,14528479.0,4250.0,10,R,14524968,14525120,154,560.2,515.4,5254,left
21,1,continuous,10,15,trial,14524229.0,14528479.0,4250.0,10,R,14525146,14525390,246,439.4,525.0,5462,left
21,1,continuous,10,15,trial,14524229.0,14528479.0,4250.0,10,R,14525458,14526176,720,1432.0,559.2,5316,right
21,1,continuous,10,15,trial,14524229.0,14528479.0,4250.0,10,R,14526250,14526512,264,444.5,523.4,5818,left
21,1,continuous,10,15,trial,14524229.0,14528479.0,4250.0,10,R,14526534,14526830,298,389.3,521.1,5601,left
21,1,continuous,10,15,trial,14524229.0,14528479.0,4250.0,10,R,14526852,14527088,238,449.8,580.0,5578,left
21,1,continuous,10,15,trial,14524229.0,14528479.0,4250.0,10,R,14527158,14527508,352,1426.5,602.8,5333,right
21,1,continuous,10,15,trial,14524229.0,14528479.0,4250.0,10,R,14527530,14527604,76,1461.9,542.2,5256,right
21,1,continuous,10,15,trial,14524229.0,14528479.0,4250.0,10,R,14527672,14528268,598,473.0,491.1,5779,left
21,1,continuous,10,15,trial,14524229.0,14528479.0,4250.0,10,R,14528288,14528672,386,414.9,492.1,5900,left
21,1,continuous,10,15,postResponse,14524229.0,14528479.0,4250.0,10,R,14528692,14528812,122,543.1,425.3,5831,left
21,1,continuous,11,1,fixationCross,14529562.0,14530929.0,1367.0,11,R,14528912,14529234,324,617.3,428.4,5967,left
21,1,continuous,11,1,trial,14529562.0,14530929.0,1367.0,11,R,14529272,14529726,456,919.8,471.4,5968,NA
21,1,continuous,11,1,trial,14529562.0,14530929.0,1367.0,11,R,14529782,14529912,132,1320.9,502.3,5605,right
21,1,continuous,11,1,trial,14529562.0,14530929.0,1367.0,11,R,14529946,14530194,250,1535.7,532.6,4718,right
21,1,continuous,11,1,trial,14529562.0,14530929.0,1367.0,11,R,14530260,14530564,306,523.6,520.8,5113,left
21,1,continuous,11,1,postResponse,14529562.0,14530929.0,1367.0,11,R,14530586,14531262,678,451.1,531.8,5312,left
21,1,continuous,12,100,fixationCross,14532112.0,14534146.0,2034.0,12,R,14531362,14531448,88,458.3,524.5,5403,left
21,1,continuous,12,100,fixationCross,14532112.0,14534146.0,2034.0,12,R,14531686,14531870,186,1064.0,513.0,5909,NA
21,1,continuous,12,100,trial,14532112.0,14534146.0,2034.0,12,R,14531892,14532266,376,958.6,515.2,6161,NA
21,1,continuous,12,100,trial,14532112.0,14534146.0,2034.0,12,R,14532318,14532484,168,608.2,474.5,5907,left
21,1,continuous,12,100,trial,14532112.0,14534146.0,2034.0,12,R,14532510,14532816,308,485.6,477.6,5155,left
21,1,continuous,12,100,trial,14532112.0,14534146.0,2034.0,12,R,14532882,14533296,416,1442.7,545.2,4765,right
21,1,continuous,12,100,trial,14532112.0,14534146.0,2034.0,12,R,14533310,14534394,1086,1414.3,532.0,5197,right
21,1,continuous,13,100,fixationCross,14535279.0,14536879.0,1600.0,13,R,14534560,14534718,160,546.5,384.6,5847,left
21,1,continuous,13,100,fixationCross,14535279.0,14536879.0,1600.0,13,R,14534760,14534972,214,783.3,460.4,6143,NA
21,1,continuous,13,100,trial,14535279.0,14536879.0,1600.0,13,R,14535000,14535392,394,914.6,484.8,6318,NA
21,1,continuous,13,100,trial,14535279.0,14536879.0,1600.0,13,R,14535434,14535574,142,589.5,475.7,6275,left
21,1,continuous,13,100,trial,14535279.0,14536879.0,1600.0,13,R,14535600,14535790,192,467.4,535.6,5531,left
21,1,continuous,13,100,trial,14535279.0,14536879.0,1600.0,13,R,14535856,14536190,336,1413.6,532.3,4679,right
21,1,continuous,13,100,trial,14535279.0,14536879.0,1600.0,13,R,14536208,14536764,558,1386.5,589.0,4721,right
21,1,continuous,13,100,postResponse,14535279.0,14536879.0,1600.0,13,R,14536792,14537212,422,1541.0,474.9,5065,right
21,1,continuous,14,15,fixationCross,14538012.0,14539796.0,1784.0,14,R,14537286,14537330,46,1534.3,473.6,5199,right
21,1,continuous,14,15,fixationCross,14538012.0,14539796.0,1784.0,14,R,14537404,14537718,316,790.9,425.0,5852,NA
21,1,continuous,14,15,fixationCross,14538012.0,14539796.0,1784.0,14,R,14537742,14537992,252,906.5,467.6,6106,NA
21,1,continuous,14,15,trial,14538012.0,14539796.0,1784.0,14,R,14538028,14538174,148,744.7,466.7,6200,NA
21,1,continuous,14,15,trial,14538012.0,14539796.0,1784.0,14,R,14538214,14538524,312,502.9,555.8,6048,left
21,1,continuous,14,15,trial,14538012.0,14539796.0,1784.0,14,R,14538592,14538962,372,1433.7,549.5,5369,right
21,1,continuous,14,15,trial,14538012.0,14539796.0,1784.0,14,R,14539028,14539280,254,571.9,578.6,5563,left
21,1,continuous,14,15,postResponse,14538012.0,14539796.0,1784.0,14,R,14539300,14540130,832,516.9,597.6,6078,left
21,1,continuous,15,24,fixationCross,14540863.0,14543929.0,3066.0,15,R,14540204,14540290,88,526.2,599.4,6198,left
21,1,continuous,15,24,fixationCross,14540863.0,14543929.0,3066.0,15,R,14540372,14540536,166,1210.2,492.8,6163,right
21,1,continuous,15,24,fixationCross,14540863.0,14543929.0,3066.0,15,R,14540564,14540762,200,1046.2,496.8,6387,NA
21,1,continuous,15,24,trial,14540863.0,14543929.0,3066.0,15,R,14540946,14541046,102,1045.0,480.0,6507,NA
21,1,continuous,15,24,trial,14540863.0,14543929.0,3066.0,15,R,14541094,14541226,134,667.9,494.5,6635,left
21,1,continuous,15,24,trial,14540863.0,14543929.0,3066.0,15,R,14541258,14541448,192,478.8,527.9,6216,left
21,1,continuous,15,24,trial,14540863.0,14543929.0,3066.0,15,R,14541520,14542030,512,1445.6,550.2,4942,right
21,1,continuous,15,24,trial,14540863.0,14543929.0,3066.0,15,R,14542098,14542330,234,484.8,543.6,5323,left
21,1,continuous,15,24,trial,14540863.0,14543929.0,3066.0,15,R,14542350,14542518,170,427.4,575.6,5385,left
21,1,continuous,15,24,trial,14540863.0,14543929.0,3066.0,15,R,14542536,14542658,124,381.7,610.0,5381,left
21,1,continuous,15,24,trial,14540863.0,14543929.0,3066.0,15,R,14542732,14543050,320,1497.2,567.7,4919,right
21,1,continuous,15,24,trial,14540863.0,14543929.0,3066.0,15,R,14543140,14543312,174,304.0,591.8,5235,left
21,1,continuous,15,24,postResponse,14540863.0,14543929.0,3066.0,15,R,14543338,14544264,928,433.3,569.7,5416,left
21,1,continuous,16,27,fixationCross,14544829.0,14549512.0,4683.0,16,R,14544364,14544420,58,440.4,558.7,5710,left
21,1,continuous,16,27,fixationCross,14544829.0,14549512.0,4683.0,16,R,14544474,14544740,268,879.2,525.8,5883,NA
21,1,continuous,16,27,trial,14544829.0,14549512.0,4683.0,16,R,14544762,14545002,242,980.7,538.4,6160,NA
21,1,continuous,16,27,trial,14544829.0,14549512.0,4683.0,16,R,14545046,14545222,178,639.6,507.9,6113,left
21,1,continuous,16,27,trial,14544829.0,14549512.0,4683.0,16,R,14545250,14545560,312,488.6,532.4,5311,left
21,1,continuous,16,27,trial,14544829.0,14549512.0,4683.0,16,R,14545626,14545860,236,1411.0,553.4,5083,right
21,1,continuous,16,27,trial,14544829.0,14549512.0,4683.0,16,R,14545884,14546238,356,1520.7,528.0,5127,right
21,1,continuous,16,27,trial,14544829.0,14549512.0,4683.0,16,R,14546262,14546496,236,1574.5,602.9,5269,right
21,1,continuous,16,27,trial,14544829.0,14549512.0,4683.0,16,R,14546506,14546858,354,1583.8,631.1,5412,right
21,1,continuous,16,27,trial,14544829.0,14549512.0,4683.0,16,R,14546878,14547024,148,1600.8,560.9,5486,right
21,1,continuous,16,27,trial,14544829.0,14549512.0,4683.0,16,R,14547088,14547220,134,699.2,544.8,5861,left
21,1,continuous,16,27,trial,14544829.0,14549512.0,4683.0,16,R,14547244,14547346,104,639.9,553.4,5798,left
21,1,continuous,16,27,trial,14544829.0,14549512.0,4683.0,16,R,14547372,14548008,638,469.7,584.6,5519,left
21,1,continuous,16,27,trial,14544829.0,14549512.0,4683.0,16,R,14548080,14548404,326,1463.7,557.9,5257,right
21,1,continuous,16,27,trial,14544829.0,14549512.0,4683.0,16,R,14548438,14548634,198,1444.5,404.2,5417,right
21,1,continuous,16,27,trial,14544829.0,14549512.0,4683.0,16,R,14548708,14549174,468,653.8,511.1,5955,left
21,1,continuous,16,27,postResponse,14544829.0,14549512.0,4683.0,16,R,14549198,14549864,668,549.0,521.6,5856,left
21,1,continuous,17,3,fixationCross,14552963.0,14554746.0,1783.0,17,R,14549938,14549974,38,560.2,511.2,6087,left
21,1,continuous,17,3,fixationCross,14552963.0,14554746.0,1783.0,17,R,14550132,14550278,148,1198.2,388.8,6128,right
21,1,continuous,17,3,fixationCross,14552963.0,14554746.0,1783.0,17,R,14550312,14550644,334,991.5,442.3,6409,NA
21,1,continuous,17,3,fixationCross,14552963.0,14554746.0,1783.0,17,R,14550664,14551012,350,892.6,451.3,6391,NA
21,1,continuous,17,3,fixationCross,14552963.0,14554746.0,1783.0,17,R,14551048,14551570,524,739.8,506.8,6228,NA
21,1,continuous,17,3,fixationCross,14552963.0,14554746.0,1783.0,17,R,14551586,14551936,352,684.5,508.8,6214,left
21,1,continuous,17,3,fixationCross,14552963.0,14554746.0,1783.0,17,R,14551958,14552836,880,811.7,506.8,6381,NA
21,1,continuous,17,3,trial,14552963.0,14554746.0,1783.0,17,R,14552854,14552988,136,886.5,508.4,6515,NA
21,1,continuous,17,3,trial,14552963.0,14554746.0,1783.0,17,R,14553008,14553140,134,958.6,530.6,6516,NA
21,1,continuous,17,3,trial,14552963.0,14554746.0,1783.0,17,R,14553196,14553348,154,584.9,504.9,6255,left
21,1,continuous,17,3,trial,14552963.0,14554746.0,1783.0,17,R,14553384,14553624,242,369.5,525.7,5374,left
21,1,continuous,17,3,trial,14552963.0,14554746.0,1783.0,17,R,14553696,14553986,292,1420.5,500.3,4854,right
21,1,continuous,17,3,trial,14552963.0,14554746.0,1783.0,17,R,14554006,14554180,176,1325.8,504.8,4874,right
21,1,continuous,17,3,trial,14552963.0,14554746.0,1783.0,17,R,14554246,14554534,290,440.6,591.5,5264,left
21,1,continuous,17,3,trial,14552963.0,14554746.0,1783.0,17,R,14554558,14554952,396,326.9,520.3,5594,left
21,1,continuous,18,78,fixationCross,14555796.0,14558530.0,2734.0,18,R,14555166,14555280,116,928.9,406.4,5597,NA
21,1,continuous,18,78,trial,14555796.0,14558530.0,2734.0,18,R,14555500,14555956,458,986.6,483.3,6241,NA
21,1,continuous,18,78,trial,14555796.0,14558530.0,2734.0,18,R,14556012,14556266,256,574.1,527.7,5676,left
21,1,continuous,18,78,trial,14555796.0,14558530.0,2734.0,18,R,14556330,14556650,322,1432.7,536.0,4614,right
21,1,continuous,18,78,trial,14555796.0,14558530.0,2734.0,18,R,14556676,14556844,170,1610.4,529.4,4661,right
21,1,continuous,18,78,trial,14555796.0,14558530.0,2734.0,18,R,14556874,14557140,268,1396.4,531.2,5240,right
21,1,continuous,18,78,trial,14555796.0,14558530.0,2734.0,18,R,14557218,14557692,476,536.1,553.4,5610,left
21,1,continuous,18,78,trial,14555796.0,14558530.0,2734.0,18,R,14557754,14558380,628,1415.5,520.6,4927,right
21,1,continuous,18,78,trial,14555796.0,14558530.0,2734.0,18,R,14558414,14558762,350,1325.8,446.6,5711,right
21,1,continuous,19,96,fixationCross,14561896.0,14564580.0,2684.0,19,R,14558954,14559102,150,889.2,283.1,5991,NA
21,1,continuous,19,96,fixationCross,14561896.0,14564580.0,2684.0,19,R,14559312,14559594,284,878.4,338.1,6389,NA
21,1,continuous,19,96,fixationCross,14561896.0,14564580.0,2684.0,19,R,14559632,14559996,366,796.2,464.2,6361,NA
21,1,continuous,19,96,fixationCross,14561896.0,14564580.0,2684.0,19,R,14560016,14561334,1320,722.7,464.1,6372,left
21,1,continuous,19,96,fixationCross,14561896.0,14564580.0,2684.0,19,R,14561354,14561666,314,828.0,474.3,6544,NA
21,1,continuous,19,96,trial,14561896.0,14564580.0,2684.0,19,R,14561686,14561954,270,921.6,488.3,6465,NA
21,1,continuous,19,96,trial,14561896.0,14564580.0,2684.0,19,R,14562170,14562400,232,658.2,495.4,5854,left
21,1,continuous,19,96,trial,14561896.0,14564580.0,2684.0,19,R,14562468,14562774,308,1480.6,519.5,4871,right
21,1,continuous,19,96,trial,14561896.0,14564580.0,2684.0,19,R,14562790,14563540,752,1424.1,546.4,4718,right
21,1,continuous,19,96,trial,14561896.0,14564580.0,2684.0,19,R,14563608,14563798,192,550.5,529.0,5152,left
21,1,continuous,19,96,trial,14561896.0,14564580.0,2684.0,19,R,14563818,14564024,208,455.4,545.5,5155,left
21,1,continuous,19,96,trial,14561896.0,14564580.0,2684.0,19,R,14564092,14564786,696,1481.8,474.3,4819,right
21,1,continuous,20,77,fixationCross,14565862.0,14567813.0,1951.0,20,R,14565000,14565122,124,1283.4,335.3,5323,NA
21,1,continuous,20,77,fixationCross,14565862.0,14567813.0,1951.0,20,R,14565400,14565610,212,947.1,368.0,5940,NA
21,1,continuous,20,77,trial,14565862.0,14567813.0,1951.0,20,R,14565644,14565990,348,977.1,483.5,5949,NA
21,1,continuous,20,77,trial,14565862.0,14567813.0,1951.0,20,R,14566048,14566210,164,544.0,440.1,5587,left
21,1,continuous,20,77,trial,14565862.0,14567813.0,1951.0,20,R,14566232,14566378,148,502.3,453.6,4988,left
21,1,continuous,20,77,trial,14565862.0,14567813.0,1951.0,20,R,14566444,14566704,262,1477.8,515.2,4498,right
21,1,continuous,20,77,trial,14565862.0,14567813.0,1951.0,20,R,14566724,14566948,226,1566.4,489.3,4508,right
21,1,continuous,20,77,trial,14565862.0,14567813.0,1951.0,20,R,14566976,14567442,468,1469.2,598.4,4679,right
21,1,continuous,20,77,trial,14565862.0,14567813.0,1951.0,20,R,14567464,14567642,180,1495.2,522.6,4950,right
21,1,continuous,20,77,trial,14565862.0,14567813.0,1951.0,20,R,14567662,14568036,376,1565.7,479.9,5040,right
21,1,continuous,21,82,fixationCross,14572063.0,14574130.0,2067.0,21,R,14568224,14568356,134,671.3,425.0,5502,left
21,1,continuous,21,82,fixationCross,14572063.0,14574130.0,2067.0,21,R,14568504,14568678,176,644.8,361.7,5857,left
21,1,continuous,21,82,fixationCross,14572063.0,14574130.0,2067.0,21,R,14568716,14569076,362,879.1,429.4,6062,NA
21,1,continuous,21,82,fixationCross,14572063.0,14574130.0,2067.0,21,R,14569096,14569702,608,757.0,441.8,5954,NA
21,1,continuous,21,82,fixationCross,14572063.0,14574130.0,2067.0,21,R,14569722,14570244,524,671.1,460.3,6391,left
21,1,continuous,21,82,fixationCross,14572063.0,14574130.0,2067.0,21,R,14570258,14570714,458,640.7,475.0,6584,left
21,1,continuous,21,82,fixationCross,14572063.0,14574130.0,2067.0,21,R,14570726,14571102,378,615.1,469.1,6620,left
21,1,continuous,21,82,fixationCross,14572063.0,14574130.0,2067.0,21,R,14571142,14571340,200,818.9,496.8,6553,NA
21,1,continuous,21,82,fixationCross,14572063.0,14574130.0,2067.0,21,R,14571364,14571722,360,689.0,465.7,6486,left
21,1,continuous,21,82,fixationCross,14572063.0,14574130.0,2067.0,21,R,14571764,14571826,64,936.5,496.0,6514,NA
21,1,continuous,21,82,fixationCross,14572063.0,14574130.0,2067.0,21,R,14571888,14571952,66,961.2,529.6,6563,NA
21,1,continuous,21,82,trial,14572063.0,14574130.0,2067.0,21,R,14572116,14572250,136,960.3,515.2,6522,NA
21,1,continuous,21,82,trial,14572063.0,14574130.0,2067.0,21,R,14572302,14572500,200,610.6,516.4,6466,left
21,1,continuous,21,82,trial,14572063.0,14574130.0,2067.0,21,R,14572522,14572710,190,531.2,536.8,5671,left
21,1,continuous,21,82,trial,14572063.0,14574130.0,2067.0,21,R,14572774,14573082,310,1398.2,555.2,4911,right
21,1,continuous,21,82,trial,14572063.0,14574130.0,2067.0,21,R,14573102,14573434,334,1477.5,549.0,4699,right
21,1,continuous,21,82,trial,14572063.0,14574130.0,2067.0,21,R,14573508,14573752,246,473.9,515.2,5188,left
21,1,continuous,21,82,postResponse,14572063.0,14574130.0,2067.0,21,R,14573836,14574488,654,1468.4,546.4,5129,right
21,1,continuous,22,86,fixationCross,14575396.0,14577113.0,1717.0,22,R,14574602,14574818,218,1161.0,446.6,5590,NA
21,1,continuous,22,86,fixationCross,14575396.0,14577113.0,1717.0,22,R,14574854,14574866,14,960.9,384.0,5921,NA
21,1,continuous,22,86,fixationCross,14575396.0,14577113.0,1717.0,22,R,14574962,14575118,158,885.8,340.0,6151,NA
21,1,continuous,22,86,trial,14575396.0,14577113.0,1717.0,22,R,14575154,14575532,380,1002.0,457.5,6328,NA
21,1,continuous,22,86,trial,14575396.0,14577113.0,1717.0,22,R,14575588,14575728,142,562.3,476.0,6066,left
21,1,continuous,22,86,trial,14575396.0,14577113.0,1717.0,22,R,14575756,14575904,150,460.9,545.0,5295,left
21,1,continuous,22,86,trial,14575396.0,14577113.0,1717.0,22,R,14575970,14576204,236,1419.3,475.0,4503,right
21,1,continuous,22,86,trial,14575396.0,14577113.0,1717.0,22,R,14576220,14576424,206,1469.6,503.5,4453,right
21,1,continuous,22,86,trial,14575396.0,14577113.0,1717.0,22,R,14576446,14576746,302,1365.3,509.7,4710,right
21,1,continuous,22,86,trial,14575396.0,14577113.0,1717.0,22,R,14576794,14576866,74,859.7,493.7,5161,NA
21,1,continuous,22,86,trial,14575396.0,14577113.0,1717.0,22,R,14576926,14577388,464,1414.2,446.0,5115,right
21,1,continuous,22,86,postResponse,14575396.0,14577113.0,1717.0,22,R,14577402,14577448,48,1403.0,401.1,5248,right
21,1,continuous,23,89,fixationCross,14578862.0,14581413.0,2551.0,23,R,14577522,14577654,134,1393.8,370.4,5425,right
21,1,continuous,23,89,fixationCross,14578862.0,14581413.0,2551.0,23,R,14577828,14578046,220,1065.1,360.1,6082,NA
21,1,continuous,23,89,fixationCross,14578862.0,14581413.0,2551.0,23,R,14578072,14578612,542,921.7,428.5,6244,NA
21,1,continuous,23,89,trial,14578862.0,14581413.0,2551.0,23,R,14578630,14578906,278,887.3,478.5,6033,NA
21,1,continuous,23,89,trial,14578862.0,14581413.0,2551.0,23,R,14578938,14579046,110,706.4,502.4,6186,left
21,1,continuous,23,89,trial,14578862.0,14581413.0,2551.0,23,R,14579078,14579350,274,515.2,537.7,5843,left
21,1,continuous,23,89,trial,14578862.0,14581413.0,2551.0,23,R,14579420,14579684,266,1518.0,515.4,4824,right
21,1,continuous,23,89,trial,14578862.0,14581413.0,2551.0,23,R,14579704,14579948,246,1588.2,498.0,4983,right
21,1,continuous,23,89,trial,14578862.0,14581413.0,2551.0,23,R,14580030,14580272,244,538.8,526.1,5599,left
21,1,continuous,23,89,trial,14578862.0,14581413.0,2551.0,23,R,14580290,14580640,352,496.1,510.8,5729,left
21,1,continuous,23,89,trial,14578862.0,14581413.0,2551.0,23,R,14580710,14580920,212,1538.7,509.1,5448,right
21,1,continuous,23,89,trial,14578862.0,14581413.0,2551.0,23,R,14580936,14581616,682,1580.8,504.1,5451,right
21,1,continuous,24,29,fixationCross,14582513.0,14585662.0,3149.0,24,R,14581820,14581912,94,1119.0,378.9,5832,NA
21,1,continuous,24,29,fixationCross,14582513.0,14585662.0,3149.0,24,R,14582086,14582270,186,922.3,396.0,6239,NA
21,1,continuous,24,29,trial,14582513.0,14585662.0,3149.0,24,R,14582292,14582654,364,981.6,473.8,6394,NA
21,1,continuous,24,29,trial,14582513.0,14585662.0,3149.0,24,R,14582708,14582918,212,596.2,464.0,5850,left
21,1,continuous,24,29,trial,14582513.0,14585662.0,3149.0,24,R,14582940,14583084,146,529.6,529.3,5207,left
21,1,continuous,24,29,trial,14582513.0,14585662.0,3149.0,24,R,14583148,14583618,472,1426.4,524.9,4844,right
21,1,continuous,24,29,trial,14582513.0,14585662.0,3149.0,24,R,14583628,14584206,580,1422.8,501.5,5026,right
21,1,continuous,24,29,trial,14582513.0,14585662.0,3149.0,24,R,14584278,14584500,224,482.8,516.9,5579,left
21,1,continuous,24,29,trial,14582513.0,14585662.0,3149.0,24,R,14584522,14585122,602,580.5,500.6,5630,left
21,1,continuous,24,29,trial,14582513.0,14585662.0,3149.0,24,R,14585146,14585404,260,481.9,516.4,5869,left
21,1,continuous,24,29,trial,14582513.0,14585662.0,3149.0,24,R,14585484,14585834,352,1490.7,540.0,5523,right
21,1,continuous,25,19,fixationCross,14587479.0,14588613.0,1134.0,25,R,14586096,14586320,226,1103.8,342.9,5554,NA
21,1,continuous,25,19,fixationCross,14587479.0,14588613.0,1134.0,25,R,14586534,14587040,508,921.8,373.3,6286,NA
21,1,continuous,25,19,trial,14587479.0,14588613.0,1134.0,25,R,14587076,14587610,536,859.2,542.6,5989,NA
21,1,continuous,25,19,trial,14587479.0,14588613.0,1134.0,25,R,14587650,14587880,232,583.6,519.6,5739,left
21,1,continuous,25,19,trial,14587479.0,14588613.0,1134.0,25,R,14587942,14588190,250,1431.4,533.2,4391,right
21,1,continuous,25,19,trial,14587479.0,14588613.0,1134.0,25,R,14588260,14588598,340,478.2,529.4,4652,left
21,1,continuous,25,19,trial,14587479.0,14588613.0,1134.0,25,R,14588662,14588888,228,1448.1,545.8,4673,right
21,1,continuous,26,96,fixationCross,14613946.0,14615530.0,1584.0,26,R,14613182,14613340,160,189.8,68.6,5663,NA
21,1,continuous,26,96,fixationCross,14613946.0,14615530.0,1584.0,26,R,14613416,14613564,150,878.4,422.3,5568,NA
21,1,continuous,26,96,trial,14613946.0,14615530.0,1584.0,26,R,14613714,14614106,394,959.8,536.1,5956,NA
21,1,continuous,26,96,trial,14613946.0,14615530.0,1584.0,26,R,14614144,14614264,122,742.3,529.0,6252,NA
21,1,continuous,26,96,trial,14613946.0,14615530.0,1584.0,26,R,14614298,14614476,180,546.0,513.8,5511,left
21,1,continuous,26,96,trial,14613946.0,14615530.0,1584.0,26,R,14614546,14614696,152,1447.4,519.2,4808,right
21,1,continuous,26,96,trial,14613946.0,14615530.0,1584.0,26,R,14614718,14614912,196,1518.9,546.7,4704,right
21,1,continuous,26,96,postResponse,14613946.0,14615530.0,1584.0,26,R,14614942,14615868,928,1577.3,417.7,5169,right
21,1,continuous,27,1,fixationCross,14616446.0,14617797.0,1351.0,27,R,14615970,14616110,142,1373.2,437.5,5719,right
21,1,continuous,27,1,trial,14616446.0,14617797.0,1351.0,27,R,14616160,14616606,448,1003.9,456.4,6296,NA
21,1,continuous,27,1,trial,14616446.0,14617797.0,1351.0,27,R,14616660,14616898,240,1406.2,484.8,5983,right
21,1,continuous,27,1,trial,14616446.0,14617797.0,1351.0,27,R,14616968,14617148,182,562.9,518.8,5685,left
21,1,continuous,27,1,trial,14616446.0,14617797.0,1351.0,27,R,14617172,14617718,548,474.6,522.6,5701,left
21,1,continuous,27,1,postResponse,14616446.0,14617797.0,1351.0,27,R,14617784,14618128,346,1456.9,506.3,5410,right
21,1,continuous,28,32,fixationCross,14618896.0,14619996.0,1100.0,28,R,14618328,14618594,268,1045.1,404.7,6060,NA
21,1,continuous,28,32,trial,14618896.0,14619996.0,1100.0,28,R,14618616,14619030,416,949.9,464.9,6394,NA
21,1,continuous,28,32,trial,14618896.0,14619996.0,1100.0,28,R,14619084,14619252,170,633.7,495.1,6267,left
21,1,continuous,28,32,trial,14618896.0,14619996.0,1100.0,28,R,14619288,14619564,278,555.0,563.1,5359,left
21,1,continuous,28,32,trial,14618896.0,14619996.0,1100.0,28,R,14619628,14619994,368,1495.3,458.1,4707,right
21,1,continuous,28,32,postResponse,14618896.0,14619996.0,1100.0,28,R,14620012,14620330,320,1493.9,396.1,4900,right
21,1,continuous,29,100,fixationCross,14621180.0,14622463.0,1283.0,29,R,14620404,14620486,84,1488.5,401.6,5120,right
21,1,continuous,29,100,fixationCross,14621180.0,14622463.0,1283.0,29,R,14620656,14620898,244,1003.3,406.1,5938,NA
21,1,continuous,29,100,trial,14621180.0,14622463.0,1283.0,29,R,14620918,14621260,344,917.4,452.8,6338,NA
21,1,continuous,29,100,trial,14621180.0,14622463.0,1283.0,29,R,14621292,14621414,124,818.4,525.3,6308,NA
21,1,continuous,29,100,trial,14621180.0,14622463.0,1283.0,29,R,14621464,14621568,106,549.0,558.9,6009,left
21,1,continuous,29,100,trial,14621180.0,14622463.0,1283.0,29,R,14621640,14621898,260,1451.3,508.3,5006,right
21,1,continuous,29,100,trial,14621180.0,14622463.0,1283.0,29,R,14621922,14622168,248,1569.9,439.8,4657,right
21,1,continuous,29,100,trial,14621180.0,14622463.0,1283.0,29,R,14622242,14622468,228,582.7,524.8,4794,left
21,1,continuous,29,100,trial,14621180.0,14622463.0,1283.0,29,R,14622488,14622670,184,511.7,524.3,4971,left
21,1,continuous,30,67,fixationCross,14623347.0,14625664.0,2317.0,30,R,14622878,14623290,414,983.5,469.7,5756,NA
21,1,continuous,30,67,trial,14623347.0,14625664.0,2317.0,30,R,14623310,14623496,188,924.3,502.2,6126,NA
21,1,continuous,30,67,trial,14623347.0,14625664.0,2317.0,30,R,14623560,14623776,218,503.7,496.1,5960,left
21,1,continuous,30,67,trial,14623347.0,14625664.0,2317.0,30,R,14623846,14624048,204,1406.1,497.1,5079,right
21,1,continuous,30,67,trial,14623347.0,14625664.0,2317.0,30,R,14624076,14624256,182,1525.1,549.1,5017,right
21,1,continuous,30,67,trial,14623347.0,14625664.0,2317.0,30,R,14624278,14624438,162,1610.8,605.8,5298,right
21,1,continuous,30,67,trial,14623347.0,14625664.0,2317.0,30,R,14624520,14624726,208,542.3,532.0,5800,left
21,1,continuous,30,67,trial,14623347.0,14625664.0,2317.0,30,R,14624766,14624876,112,477.5,611.7,5695,left
21,1,continuous,30,67,trial,14623347.0,14625664.0,2317.0,30,R,14624902,14625074,174,508.8,694.2,5662,left
21,1,continuous,30,67,trial,14623347.0,14625664.0,2317.0,30,R,14625148,14625386,240,1451.3,579.2,5428,right
21,1,continuous,30,67,trial,14623347.0,14625664.0,2317.0,30,R,14625412,14625882,472,1584.1,606.3,5321,right
21,1,continuous,31,63,fixationCross,14626929.0,14628596.0,1667.0,31,R,14626100,14626448,350,1075.3,410.9,6176,NA
21,1,continuous,31,63,trial,14626929.0,14628596.0,1667.0,31,R,14626472,14627090,620,979.4,442.2,6370,NA
21,1,continuous,31,63,trial,14626929.0,14628596.0,1667.0,31,R,14627144,14627324,182,1322.2,496.3,5825,right
21,1,continuous,31,63,trial,14626929.0,14628596.0,1667.0,31,R,14627348,14627540,194,1460.8,512.9,5073,right
21,1,continuous,31,63,trial,14626929.0,14628596.0,1667.0,31,R,14627620,14627948,330,475.5,491.3,5393,left
21,1,continuous,31,63,trial,14626929.0,14628596.0,1667.0,31,R,14627972,14628066,96,601.4,475.2,5424,left
21,1,continuous,31,63,trial,14626929.0,14628596.0,1667.0,31,R,14628134,14628382,250,1445.7,475.1,5065,right
21,1,continuous,31,63,trial,14626929.0,14628596.0,1667.0,31,R,14628406,14628806,402,1320.8,469.4,5540,right
21,1,continuous,31,63,postResponse,14626929.0,14628596.0,1667.0,31,R,14628902,14628932,32,920.5,390.7,6317,NA
21,1,continuous,32,100,fixationCross,14633914.0,14634981.0,1067.0,32,R,14629006,14629442,438,899.1,394.5,6707,NA
21,1,continuous,32,100,fixationCross,14633914.0,14634981.0,1067.0,32,R,14629466,14629730,266,798.0,450.7,6988,NA
21,1,continuous,32,100,fixationCross,14633914.0,14634981.0,1067.0,32,R,14629768,14630244,478,613.0,474.6,6825,left
21,1,continuous,32,100,fixationCross,14633914.0,14634981.0,1067.0,32,R,14630260,14631226,968,555.4,464.2,6727,left
21,1,continuous,32,100,fixationCross,14633914.0,14634981.0,1067.0,32,R,14631248,14632902,1656,691.0,465.7,6708,left
21,1,continuous,32,100,fixationCross,14633914.0,14634981.0,1067.0,32,R,14632920,14633240,322,782.4,471.7,6689,NA
21,1,continuous,32,100,fixationCross,14633914.0,14634981.0,1067.0,32,R,14633352,14633620,270,832.8,468.9,6865,NA
21,1,continuous,32,100,fixationCross,14633914.0,14634981.0,1067.0,32,R,14633644,14633788,146,941.7,506.5,7007,NA
21,1,continuous,32,100,trial,14633914.0,14634981.0,1067.0,32,R,14633802,14634050,250,950.1,541.0,6837,NA
21,1,continuous,32,100,trial,14633914.0,14634981.0,1067.0,32,R,14634106,14634270,166,566.6,508.9,6540,left
21,1,continuous,32,100,trial,14633914.0,14634981.0,1067.0,32,R,14634330,14634598,270,1381.6,523.7,5235,right
21,1,continuous,32,100,trial,14633914.0,14634981.0,1067.0,32,R,14634616,14635174,560,1367.6,575.8,5120,right
21,1,continuous,33,29,fixationCross,14638280.0,14641081.0,2801.0,33,R,14635388,14635552,166,883.9,429.1,6211,NA
21,1,continuous,33,29,fixationCross,14638280.0,14641081.0,2801.0,33,R,14635704,14635952,250,868.0,456.1,6531,NA
21,1,continuous,33,29,fixationCross,14638280.0,14641081.0,2801.0,33,R,14636130,14636446,318,821.1,464.8,6504,NA
21,1,continuous,33,29,fixationCross,14638280.0,14641081.0,2801.0,33,R,14636482,14636792,312,644.2,439.2,6232,left
21,1,continuous,33,29,fixationCross,14638280.0,14641081.0,2801.0,33,R,14636814,14637628,816,548.4,445.2,6132,left
21,1,continuous,33,29,fixationCross,14638280.0,14641081.0,2801.0,33,R,14637814,14638068,256,741.0,474.8,6240,NA
21,1,continuous,33,29,trial,14638280.0,14641081.0,2801.0,33,R,14638092,14638424,334,871.1,503.7,6281,NA
21,1,continuous,33,29,trial,14638280.0,14641081.0,2801.0,33,R,14638466,14638688,224,561.0,514.9,5964,left
21,1,continuous,33,29,trial,14638280.0,14641081.0,2801.0,33,R,14638758,14639072,316,1508.1,525.3,4541,right
21,1,continuous,33,29,trial,14638280.0,14641081.0,2801.0,33,R,14639092,14639368,278,1412.5,508.5,4632,right
21,1,continuous,33,29,trial,14638280.0,14641081.0,2801.0,33,R,14639392,14639568,178,1511.5,448.7,4882,right
21,1,continuous,33,29,trial,14638280.0,14641081.0,2801.0,33,R,14639584,14639718,136,1542.2,404.6,4934,right
21,1,continuous,33,29,trial,14638280.0,14641081.0,2801.0,33,R,14639786,14639930,146,612.5,517.0,5294,left
21,1,continuous,33,29,trial,14638280.0,14641081.0,2801.0,33,R,14639956,14640256,302,467.1,541.1,5124,left
21,1,continuous,33,29,trial,14638280.0,14641081.0,2801.0,33,R,14640272,14640640,370,536.0,555.0,4835,left
21,1,continuous,33,29,trial,14638280.0,14641081.0,2801.0,33,R,14640712,14641024,314,1540.9,493.8,4680,right
21,1,continuous,33,29,trial,14638280.0,14641081.0,2801.0,33,R,14641042,14641296,256,1445.4,470.1,5045,right
21,1,continuous,34,23,fixationCross,14643714.0,14644897.0,1183.0,34,R,14641524,14641610,88,1191.0,426.5,5661,right
21,1,continuous,34,23,fixationCross,14643714.0,14644897.0,1183.0,34,R,14641828,14642352,526,1025.1,397.2,6131,NA
21,1,continuous,34,23,fixationCross,14643714.0,14644897.0,1183.0,34,R,14642372,14643694,1324,943.3,435.1,5854,NA
21,1,continuous,34,23,trial,14643714.0,14644897.0,1183.0,34,R,14643714,14643858,146,973.0,498.6,6340,NA
21,1,continuous,34,23,trial,14643714.0,14644897.0,1183.0,34,R,14643900,14644128,230,656.3,534.0,6354,left
21,1,continuous,34,23,trial,14643714.0,14644897.0,1183.0,34,R,14644196,14644498,304,1468.5,541.4,5277,right
21,1,continuous,34,23,trial,14643714.0,14644897.0,1183.0,34,R,14644572,14645076,506,581.8,592.4,5568,left
21,1,continuous,35,10,fixationCross,14647163.0,14648897.0,1734.0,35,R,14645336,14646514,1180,1035.3,396.1,6046,NA
21,1,continuous,35,10,fixationCross,14647163.0,14648897.0,1734.0,35,R,14646532,14646870,340,951.0,425.0,6295,NA
21,1,continuous,35,10,trial,14647163.0,14648897.0,1734.0,35,R,14646894,14647312,420,925.4,546.9,6316,NA
21,1,continuous,35,10,trial,14647163.0,14648897.0,1734.0,35,R,14647354,14647554,202,626.5,527.0,5949,left
21,1,continuous,35,10,trial,14647163.0,14648897.0,1734.0,35,R,14647612,14647844,234,1405.3,464.6,4794,right
21,1,continuous,35,10,trial,14647163.0,14648897.0,1734.0,35,R,14647858,14648262,406,1362.0,455.0,4634,right
21,1,continuous,35,10,trial,14647163.0,14648897.0,1734.0,35,R,14648326,14648490,166,538.0,484.8,5023,left
21,1,continuous,35,10,postResponse,14647163.0,14648897.0,1734.0,35,R,14648506,14649230,726,527.5,453.2,5442,left
21,1,continuous,36,5,fixationCross,14650114.0,14652664.0,2550.0,36,R,14649330,14649402,74,539.4,456.6,5904,left
21,1,continuous,36,5,fixationCross,14650114.0,14652664.0,2550.0,36,R,14649584,14649798,216,1226.6,372.1,6084,right
21,1,continuous,36,5,trial,14650114.0,14652664.0,2550.0,36,R,14649836,14650268,434,988.1,455.1,6466,NA
21,1,continuous,36,5,trial,14650114.0,14652664.0,2550.0,36,R,14650322,14650590,270,1383.2,489.4,5712,right
21,1,continuous,36,5,trial,14650114.0,14652664.0,2550.0,36,R,14650612,14650798,188,1494.2,453.4,4914,right
21,1,continuous,36,5,trial,14650114.0,14652664.0,2550.0,36,R,14650812,14650924,114,1448.4,428.0,4876,right
21,1,continuous,36,5,trial,14650114.0,14652664.0,2550.0,36,R,14650998,14651364,368,560.7,510.5,5388,left
21,1,continuous,36,5,trial,14650114.0,14652664.0,2550.0,36,R,14651380,14651454,76,612.1,525.6,5353,left
21,1,continuous,36,5,trial,14650114.0,14652664.0,2550.0,36,R,14651512,14651760,250,1367.6,540.9,5096,right
21,1,continuous,36,5,trial,14650114.0,14652664.0,2550.0,36,R,14651784,14652240,458,1454.4,539.9,5074,right
21,1,continuous,36,5,postResponse,14650114.0,14652664.0,2550.0,36,R,14652272,14652994,724,1430.1,430.4,5610,right
21,1,continuous,37,88,fixationCross,14653847.0,14655547.0,1700.0,37,R,14653094,14653228,136,1422.7,419.1,6113,right
21,1,continuous,37,88,fixationCross,14653847.0,14655547.0,1700.0,37,R,14653286,14653526,242,909.9,378.7,6661,NA
21,1,continuous,37,88,trial,14653847.0,14655547.0,1700.0,37,R,14653558,14653996,440,962.4,489.8,6825,NA
21,1,continuous,37,88,trial,14653847.0,14655547.0,1700.0,37,R,14654050,14654216,168,1309.8,458.2,6164,right
21,1,continuous,37,88,trial,14653847.0,14655547.0,1700.0,37,R,14654248,14654608,362,1484.1,584.7,5007,right
21,1,continuous,37,88,trial,14653847.0,14655547.0,1700.0,37,R,14654676,14654936,262,527.0,504.7,5171,left
21,1,continuous,37,88,trial,14653847.0,14655547.0,1700.0,37,R,14654952,14655100,150,512.6,543.8,5110,left
21,1,continuous,37,88,trial,14653847.0,14655547.0,1700.0,37,R,14655160,14655744,586,1327.0,491.3,4958,right
21,1,continuous,38,100,fixationCross,14656497.0,14657497.0,1000.0,38,R,14655956,14656036,82,929.1,456.9,5800,NA
21,1,continuous,38,100,trial,14656497.0,14657497.0,1000.0,38,R,14656236,14656628,394,898.8,460.4,6268,NA
21,1,continuous,38,100,trial,14656497.0,14657497.0,1000.0,38,R,14656680,14656780,102,566.5,492.3,6377,left
21,1,continuous,38,100,trial,14656497.0,14657497.0,1000.0,38,R,14656850,14657156,308,1471.6,472.4,5058,right
21,1,continuous,38,100,trial,14656497.0,14657497.0,1000.0,38,R,14657174,14657428,256,1421.3,455.0,4793,right
21,1,continuous,38,100,postResponse,14656497.0,14657497.0,1000.0,38,R,14657504,14657832,330,492.2,503.5,5453,left
21,1,continuous,39,25,fixationCross,14658897.0,14660247.0,1350.0,39,R,14657908,14658094,188,508.0,506.3,5822,left
21,1,continuous,39,25,fixationCross,14658897.0,14660247.0,1350.0,39,R,14658142,14658618,478,839.5,431.3,6259,NA
21,1,continuous,39,25,trial,14658897.0,14660247.0,1350.0,39,R,14658644,14659026,384,964.6,501.6,6758,NA
21,1,continuous,39,25,trial,14658897.0,14660247.0,1350.0,39,R,14659066,14659258,194,689.7,473.2,6816,left
21,1,continuous,39,25,trial,14658897.0,14660247.0,1350.0,39,R,14659316,14659610,296,1398.7,509.9,5488,right
21,1,continuous,39,25,trial,14658897.0,14660247.0,1350.0,39,R,14659630,14659698,70,1403.5,574.1,5356,right
21,1,continuous,39,25,trial,14658897.0,14660247.0,1350.0,39,R,14659774,14660428,656,483.2,537.2,6032,left
21,1,continuous,40,100,fixationCross,14661514.0,14664230.0,2716.0,40,R,14660682,14661204,524,966.6,399.4,6413,NA
21,1,continuous,40,100,trial,14661514.0,14664230.0,2716.0,40,R,14661226,14661532,308,894.6,477.6,6367,NA
21,1,continuous,40,100,trial,14661514.0,14664230.0,2716.0,40,R,14661568,14661704,138,753.0,499.6,6297,NA
21,1,continuous,40,100,trial,14661514.0,14664230.0,2716.0,40,R,14661722,14661908,188,698.6,498.7,6217,left
21,1,continuous,40,100,trial,14661514.0,14664230.0,2716.0,40,R,14661934,14662070,138,558.6,501.5,5633,left
21,1,continuous,40,100,trial,14661514.0,14664230.0,2716.0,40,R,14662142,14662592,452,1428.8,485.0,5062,right
21,1,continuous,40,100,trial,14661514.0,14664230.0,2716.0,40,R,14662668,14662864,198,509.4,490.6,5807,left
21,1,continuous,40,100,trial,14661514.0,14664230.0,2716.0,40,R,14662888,14663066,180,464.7,539.6,5816,left
21,1,continuous,40,100,trial,14661514.0,14664230.0,2716.0,40,R,14663132,14663524,394,1438.6,515.3,4933,right
21,1,continuous,40,100,trial,14661514.0,14664230.0,2716.0,40,R,14663546,14664096,552,1426.0,418.0,5356,right
21,1,continuous,40,100,trial,14661514.0,14664230.0,2716.0,40,R,14664112,14664434,324,1445.1,464.4,5870,right
21,1,continuous,41,80,fixationCross,14665514.0,14667497.0,1983.0,41,R,14664664,14664738,76,1212.1,363.1,5926,right
21,1,continuous,41,80,fixationCross,14665514.0,14667497.0,1983.0,41,R,14664950,14665200,252,1076.4,428.8,6405,NA
21,1,continuous,41,80,trial,14665514.0,14667497.0,1983.0,41,R,14665218,14665670,454,992.2,446.7,6268,NA
21,1,continuous,41,80,trial,14665514.0,14667497.0,1983.0,41,R,14665720,14665962,244,1363.8,475.3,5383,right
21,1,continuous,41,80,trial,14665514.0,14667497.0,1983.0,41,R,14665984,14666088,106,1486.2,477.7,4824,right
21,1,continuous,41,80,trial,14665514.0,14667497.0,1983.0,41,R,14666154,14666596,444,579.4,538.4,5244,left
21,1,continuous,41,80,trial,14665514.0,14667497.0,1983.0,41,R,14666662,14666932,272,1521.5,517.1,4864,right
21,1,continuous,41,80,trial,14665514.0,14667497.0,1983.0,41,R,14666954,14667462,510,1451.1,573.7,5262,right
21,1,continuous,41,80,trial,14665514.0,14667497.0,1983.0,41,R,14667492,14667716,226,1356.0,470.5,5504,right
21,1,continuous,42,32,fixationCross,14669214.0,14671064.0,1850.0,42,R,14667904,14668172,270,1079.8,376.6,5904,NA
21,1,continuous,42,32,fixationCross,14669214.0,14671064.0,1850.0,42,R,14668198,14668894,698,896.6,425.9,6183,NA
21,1,continuous,42,32,trial,14669214.0,14671064.0,1850.0,42,R,14668918,14669358,442,880.4,492.0,6313,NA
21,1,continuous,42,32,trial,14669214.0,14671064.0,1850.0,42,R,14669402,14669640,240,588.0,493.3,6055,left
21,1,continuous,42,32,trial,14669214.0,14671064.0,1850.0,42,R,14669666,14669796,132,709.3,539.1,5183,left
21,1,continuous,42,32,trial,14669214.0,14671064.0,1850.0,42,R,14669812,14670008,198,646.1,552.5,4914,left
21,1,continuous,42,32,trial,14669214.0,14671064.0,1850.0,42,R,14670066,14670266,202,1425.0,533.9,4662,right
21,1,continuous,42,32,trial,14669214.0,14671064.0,1850.0,42,R,14670280,14670660,382,1473.0,531.2,4840,right
21,1,continuous,42,32,trial,14669214.0,14671064.0,1850.0,42,R,14670730,14670966,238,565.8,503.8,5581,left
21,1,continuous,42,32,trial,14669214.0,14671064.0,1850.0,42,R,14670990,14671312,324,655.2,531.5,5358,left
21,1,continuous,43,27,fixationCross,14672314.0,14674414.0,2100.0,43,R,14671478,14671678,202,1131.5,391.5,5451,NA
21,1,continuous,43,27,fixationCross,14672314.0,14674414.0,2100.0,43,R,14671846,14671994,150,819.0,411.9,6187,NA
21,1,continuous,43,27,trial,14672314.0,14674414.0,2100.0,43,R,14672024,14672438,416,951.2,470.6,6411,NA
21,1,continuous,43,27,trial,14672314.0,14674414.0,2100.0,43,R,14672486,14672662,178,1407.4,482.1,5821,right
21,1,continuous,43,27,trial,14672314.0,14674414.0,2100.0,43,R,14672686,14672868,184,1387.9,541.9,5077,right
21,1,continuous,43,27,trial,14672314.0,14674414.0,2100.0,43,R,14672932,14673106,176,510.7,511.3,5135,left
21,1,continuous,43,27,trial,14672314.0,14674414.0,2100.0,43,R,14673130,14673262,134,595.4,557.7,5170,left
21,1,continuous,43,27,trial,14672314.0,14674414.0,2100.0,43,R,14673280,14673544,266,665.2,577.0,5233,left
21,1,continuous,43,27,trial,14672314.0,14674414.0,2100.0,43,R,14673602,14674124,524,1386.2,539.7,5189,right
21,1,continuous,43,27,trial,14672314.0,14674414.0,2100.0,43,R,14674198,14674424,228,581.6,535.5,5898,left
21,1,continuous,43,27,postResponse,14672314.0,14674414.0,2100.0,43,R,14674450,14674744,296,660.7,581.7,5729,left
21,1,continuous,44,73,fixationCross,14679130.0,14680847.0,1717.0,44,R,14674844,14674946,104,664.0,568.7,5748,left
21,1,continuous,44,73,fixationCross,14679130.0,14680847.0,1717.0,44,R,14674998,14675480,484,1046.4,479.4,6110,NA
21,1,continuous,44,73,fixationCross,14679130.0,14680847.0,1717.0,44,R,14675512,14677996,2486,1237.5,475.3,6450,right
21,1,continuous,44,73,fixationCross,14679130.0,14680847.0,1717.0,44,R,14678012,14678354,344,1154.1,458.8,6571,NA
21,1,continuous,44,73,fixationCross,14679130.0,14680847.0,1717.0,44,R,14678372,14678874,504,1065.7,470.3,6528,NA
21,1,continuous,44,73,trial,14679130.0,14680847.0,1717.0,44,R,14678888,14679162,276,994.6,478.9,6489,NA
21,1,continuous,44,73,trial,14679130.0,14680847.0,1717.0,44,R,14679308,14679464,158,989.3,465.4,6488,NA
21,1,continuous,44,73,trial,14679130.0,14680847.0,1717.0,44,R,14679526,14679808,284,509.4,510.1,5860,left
21,1,continuous,44,73,trial,14679130.0,14680847.0,1717.0,44,R,14679882,14680108,228,1457.2,518.2,4829,right
21,1,continuous,44,73,trial,14679130.0,14680847.0,1717.0,44,R,14680124,14680826,704,1496.9,552.9,4910,right
21,1,continuous,44,73,postResponse,14679130.0,14680847.0,1717.0,44,R,14680840,14681204,366,1460.1,520.6,5710,right
21,1,continuous,45,68,fixationCross,14683447.0,14685381.0,1934.0,45,R,14681280,14681476,198,1459.0,512.9,6030,right
21,1,continuous,45,68,fixationCross,14683447.0,14685381.0,1934.0,45,R,14681710,14682080,372,1294.3,407.4,6480,right
21,1,continuous,45,68,fixationCross,14683447.0,14685381.0,1934.0,45,R,14682106,14682492,388,1101.8,424.2,6394,NA
21,1,continuous,45,68,fixationCross,14683447.0,14685381.0,1934.0,45,R,14682508,14682892,386,1042.3,429.0,6038,NA
21,1,continuous,45,68,fixationCross,14683447.0,14685381.0,1934.0,45,R,14682914,14683110,198,1159.6,444.0,6171,NA
21,1,continuous,45,68,fixationCross,14683447.0,14685381.0,1934.0,45,R,14683134,14683414,282,1001.1,453.5,6473,NA
21,1,continuous,45,68,trial,14683447.0,14685381.0,1934.0,45,R,14683436,14683572,138,860.2,475.2,6464,NA
21,1,continuous,45,68,trial,14683447.0,14685381.0,1934.0,45,R,14683618,14683844,228,540.2,455.7,6283,left
21,1,continuous,45,68,trial,14683447.0,14685381.0,1934.0,45,R,14683906,14684144,240,1416.1,471.1,5030,right
21,1,continuous,45,68,trial,14683447.0,14685381.0,1934.0,45,R,14684168,14684484,318,1545.4,476.4,4856,right
21,1,continuous,45,68,trial,14683447.0,14685381.0,1934.0,45,R,14684498,14684740,244,1581.1,479.8,5050,right
21,1,continuous,45,68,trial,14683447.0,14685381.0,1934.0,45,R,14684758,14684956,200,1496.7,458.0,5294,right
21,1,continuous,45,68,trial,14683447.0,14685381.0,1934.0,45,R,14684976,14685276,302,1419.1,449.7,5416,right
21,1,continuous,45,68,trial,14683447.0,14685381.0,1934.0,45,R,14685302,14685588,288,1551.1,473.7,5542,right
21,1,continuous,46,72,fixationCross,14686698.0,14688197.0,1499.0,46,R,14685792,14685952,162,1331.6,368.0,5667,right
21,1,continuous,46,72,fixationCross,14686698.0,14688197.0,1499.0,46,R,14686118,14686380,264,878.7,420.9,6347,NA
21,1,continuous,46,72,trial,14686698.0,14688197.0,1499.0,46,R,14686402,14686736,336,949.4,472.8,6363,NA
21,1,continuous,46,72,trial,14686698.0,14688197.0,1499.0,46,R,14686758,14686868,112,836.2,484.4,6042,NA
21,1,continuous,46,72,trial,14686698.0,14688197.0,1499.0,46,R,14686904,14687114,212,608.6,533.7,5754,left
21,1,continuous,46,72,trial,14686698.0,14688197.0,1499.0,46,R,14687174,14687360,188,1457.8,499.6,4675,right
21,1,continuous,46,72,trial,14686698.0,14688197.0,1499.0,46,R,14687382,14687784,404,1574.9,519.6,4540,right
21,1,continuous,46,72,trial,14686698.0,14688197.0,1499.0,46,R,14687822,14688368,548,1343.7,453.6,5149,right
21,1,continuous,47,20,fixationCross,14689797.0,14691514.0,1717.0,47,R,14688608,14689490,884,961.0,413.8,5951,NA
21,1,continuous,47,20,trial,14689797.0,14691514.0,1717.0,47,R,14689514,14689840,328,984.7,516.5,6083,NA
21,1,continuous,47,20,trial,14689797.0,14691514.0,1717.0,47,R,14689856,14690034,180,922.4,516.1,6208,NA
21,1,continuous,47,20,trial,14689797.0,14691514.0,1717.0,47,R,14690094,14690312,220,1479.1,512.6,5194,right
21,1,continuous,47,20,trial,14689797.0,14691514.0,1717.0,47,R,14690382,14690690,310,501.4,554.1,5002,left
21,1,continuous,47,20,trial,14689797.0,14691514.0,1717.0,47,R,14690708,14691690,984,473.4,590.8,5009,left
21,1,continuous,48,10,fixationCross,14692714.0,14693714.0,1000.0,48,R,14691920,14692096,178,1182.5,537.1,5427,NA
21,1,continuous,48,10,fixationCross,14692714.0,14693714.0,1000.0,48,R,14692304,14692638,336,1006.7,447.2,6047,NA
21,1,continuous,48,10,trial,14692714.0,14693714.0,1000.0,48,R,14692658,14692848,192,908.9,471.5,6122,NA
21,1,continuous,48,10,trial,14692714.0,14693714.0,1000.0,48,R,14692904,14693092,190,509.5,494.9,5688,left
21,1,continuous,48,10,trial,14692714.0,14693714.0,1000.0,48,R,14693118,14693236,120,438.6,556.3,5117,left
21,1,continuous,48,10,trial,14692714.0,14693714.0,1000.0,48,R,14693308,14693692,386,1385.1,513.4,4618,right
21,1,continuous,48,10,postResponse,14692714.0,14693714.0,1000.0,48,R,14693714,14694060,348,1473.4,468.1,4934,right
21,1,continuous,49,100,fixationCross,14694864.0,14696265.0,1401.0,49,R,14694136,14694202,68,1472.1,469.3,5247,right
21,1,continuous,49,100,fixationCross,14694864.0,14696265.0,1401.0,49,R,14694280,14694550,272,794.5,416.5,5938,NA
21,1,continuous,49,100,trial,14694864.0,14696265.0,1401.0,49,R,14694576,14694990,416,940.8,463.0,6327,NA
21,1,continuous,49,100,trial,14694864.0,14696265.0,1401.0,49,R,14695032,14695182,152,606.3,451.8,6501,left
21,1,continuous,49,100,trial,14694864.0,14696265.0,1401.0,49,R,14695212,14695336,126,445.5,461.9,5781,left
21,1,continuous,49,100,trial,14694864.0,14696265.0,1401.0,49,R,14695402,14695658,258,1461.0,500.2,4835,right
21,1,continuous,49,100,trial,14694864.0,14696265.0,1401.0,49,R,14695680,14696476,798,1587.9,512.8,4765,right
21,1,continuous,49,100,trial,14694864.0,14696265.0,1401.0,49,R,14696492,14696528,38,1467.9,467.2,5241,right
21,1,continuous,50,21,fixationCross,14697464.0,14699214.0,1750.0,50,R,14696698,14697162,466,884.7,424.6,5896,NA
21,1,continuous,50,21,fixationCross,14697464.0,14699214.0,1750.0,50,R,14697180,14697416,238,939.9,475.0,6140,NA
21,1,continuous,50,21,trial,14697464.0,14699214.0,1750.0,50,R,14697446,14697602,158,778.8,453.8,6060,NA
21,1,continuous,50,21,trial,14697464.0,14699214.0,1750.0,50,R,14697638,14697958,322,545.1,465.8,5896,left
21,1,continuous,50,21,trial,14697464.0,14699214.0,1750.0,50,R,14698032,14698358,328,1431.2,511.3,5296,right
21,1,continuous,50,21,trial,14697464.0,14699214.0,1750.0,50,R,14698384,14698606,224,1574.1,540.8,5162,right
21,1,continuous,50,21,trial,14697464.0,14699214.0,1750.0,50,R,14698678,14698938,262,630.7,486.6,5643,left
21,1,continuous,50,21,postResponse,14697464.0,14699214.0,1750.0,50,R,14698962,14699548,588,514.3,491.9,6122,left
21,2,binary,1,1,fixationCross,14763282.0,14764815.0,1533.0,51,R,14762556,14762838,284,1135.0,673.1,5965,NA
21,2,binary,1,1,fixationCross,14763282.0,14764815.0,1533.0,51,R,14762876,14762962,88,1040.2,810.9,6248,likertHorizontal
21,2,binary,1,1,fixationCross,14763282.0,14764815.0,1533.0,51,R,14763008,14763160,154,1008.4,452.7,6234,NA
21,2,binary,1,1,trial,14763282.0,14764815.0,1533.0,51,R,14763182,14763440,260,957.1,497.3,6389,NA
21,2,binary,1,1,trial,14763282.0,14764815.0,1533.0,51,R,14763488,14763748,262,586.9,538.0,6304,left
21,2,binary,1,1,trial,14763282.0,14764815.0,1533.0,51,R,14763818,14764188,372,1455.6,485.3,5084,right
21,2,binary,1,1,trial,14763282.0,14764815.0,1533.0,51,R,14764242,14764364,124,1069.9,767.7,5133,likertHorizontal
21,2,binary,1,1,trial,14763282.0,14764815.0,1533.0,51,R,14764398,14764494,98,942.2,976.8,5239,likertHorizontal
21,2,binary,1,1,trial,14763282.0,14764815.0,1533.0,51,R,14764542,14764752,212,462.1,975.2,5585,NA
21,2,binary,1,1,trial,14763282.0,14764815.0,1533.0,51,R,14764812,14765066,256,482.0,564.7,6022,left
21,2,binary,1,1,postResponse,14763282.0,14764815.0,1533.0,51,R,14765114,14765150,38,751.9,460.8,5888,NA
21,2,binary,2,1,fixationCross,14765915.0,14767532.0,1617.0,52,R,14765256,14765264,10,851.0,441.7,5738,NA
21,2,binary,2,1,fixationCross,14765915.0,14767532.0,1617.0,52,R,14765386,14765614,230,961.6,389.5,6002,NA
21,2,binary,2,1,trial,14765915.0,14767532.0,1617.0,52,R,14765644,14766076,434,971.7,529.8,6551,NA
21,2,binary,2,1,trial,14765915.0,14767532.0,1617.0,52,R,14766122,14766268,148,1341.2,527.7,6001,right
21,2,binary,2,1,trial,14765915.0,14767532.0,1617.0,52,R,14766298,14766478,182,1548.6,483.8,5080,right
21,2,binary,2,1,trial,14765915.0,14767532.0,1617.0,52,R,14766546,14766956,412,551.0,520.8,5003,left
21,2,binary,2,1,trial,14765915.0,14767532.0,1617.0,52,R,14766974,14767112,140,638.3,549.2,5000,left
21,2,binary,2,1,trial,14765915.0,14767532.0,1617.0,52,R,14767178,14767444,268,1547.0,490.1,4875,right
21,2,binary,2,1,postResponse,14765915.0,14767532.0,1617.0,52,R,14767462,14767864,404,1554.0,439.0,5201,right
21,2,binary,3,2,fixationCross,14768715.0,14770248.0,1533.0,53,R,14767964,14768132,170,1350.3,425.2,5783,right
21,2,binary,3,2,fixationCross,14768715.0,14770248.0,1533.0,53,R,14768178,14768408,232,1053.1,423.0,6142,NA
21,2,binary,3,2,fixationCross,14768715.0,14770248.0,1533.0,53,R,14768430,14768620,192,996.5,470.4,6213,NA
21,2,binary,3,2,trial,14768715.0,14770248.0,1533.0,53,R,14768640,14768856,218,917.5,491.2,6309,NA
21,2,binary,3,2,trial,14768715.0,14770248.0,1533.0,53,R,14768900,14768990,92,593.5,507.3,6480,left
21,2,binary,3,2,trial,14768715.0,14770248.0,1533.0,53,R,14769056,14769456,402,1465.4,492.2,5139,right
21,2,binary,3,2,trial,14768715.0,14770248.0,1533.0,53,R,14769472,14769608,138,1418.6,518.6,4993,right
21,2,binary,3,2,trial,14768715.0,14770248.0,1533.0,53,R,14769676,14769858,184,465.9,464.8,5595,left
21,2,binary,3,2,trial,14768715.0,14770248.0,1533.0,53,R,14769878,14770246,370,395.7,446.2,5378,left
21,2,binary,3,2,trial,14768715.0,14770248.0,1533.0,53,R,14770318,14770546,230,1382.7,414.3,5049,right
21,2,binary,4,2,fixationCross,14771981.0,14773449.0,1468.0,54,R,14770656,14770724,70,1093.7,424.0,5537,NA
21,2,binary,4,2,fixationCross,14771981.0,14773449.0,1468.0,54,R,14770748,14770770,24,1034.0,387.9,5632,NA
21,2,binary,4,2,fixationCross,14771981.0,14773449.0,1468.0,54,R,14770860,14771082,224,1087.3,391.7,5955,NA
21,2,binary,4,2,fixationCross,14771981.0,14773449.0,1468.0,54,R,14771106,14771686,582,951.3,427.4,6260,NA
21,2,binary,4,2,trial,14771981.0,14773449.0,1468.0,54,R,14771710,14772062,354,954.2,535.5,6155,NA
21,2,binary,4,2,trial,14771981.0,14773449.0,1468.0,54,R,14772096,14772184,90,806.6,513.3,6160,NA
21,2,binary,4,2,trial,14771981.0,14773449.0,1468.0,54,R,14772222,14772476,256,501.2,551.9,5721,left
21,2,binary,4,2,trial,14771981.0,14773449.0,1468.0,54,R,14772536,14772732,198,1312.1,515.1,4720,right
21,2,binary,4,2,trial,14771981.0,14773449.0,1468.0,54,R,14772760,14773642,884,1478.1,529.1,4818,right
21,2,binary,5,2,fixationCross,14774699.0,14777465.0,2766.0,55,R,14773858,14774078,222,804.6,304.9,5578,NA
21,2,binary,5,2,fixationCross,14774699.0,14777465.0,2766.0,55,R,14774230,14774380,152,727.1,412.3,6069,left
21,2,binary,5,2,fixationCross,14774699.0,14777465.0,2766.0,55,R,14774412,14774696,286,912.9,465.5,6143,NA
21,2,binary,5,2,trial,14774699.0,14777465.0,2766.0,55,R,14774716,14774852,138,826.2,491.9,5962,NA
21,2,binary,5,2,trial,14774699.0,14777465.0,2766.0,55,R,14774902,14775110,210,545.0,559.8,5776,left
21,2,binary,5,2,trial,14774699.0,14777465.0,2766.0,55,R,14775128,14775162,36,516.1,578.1,5436,left
21,2,binary,5,2,trial,14774699.0,14777465.0,2766.0,55,R,14775234,14775544,312,1449.2,441.4,4901,right
21,2,binary,5,2,trial,14774699.0,14777465.0,2766.0,55,R,14775570,14775748,180,1315.2,389.5,4902,right
21,2,binary,5,2,trial,14774699.0,14777465.0,2766.0,55,R,14775784,14776076,294,1499.2,545.1,5000,right
21,2,binary,5,2,trial,14774699.0,14777465.0,2766.0,55,R,14776098,14776266,170,1474.7,614.2,5195,right
21,2,binary,5,2,trial,14774699.0,14777465.0,2766.0,55,R,14776338,14776588,252,536.9,499.2,5538,left
21,2,binary,5,2,trial,14774699.0,14777465.0,2766.0,55,R,14776614,14776800,188,631.3,580.4,5418,left
21,2,binary,5,2,trial,14774699.0,14777465.0,2766.0,55,R,14776866,14777112,248,1479.2,560.3,5178,right
21,2,binary,5,2,trial,14774699.0,14777465.0,2766.0,55,R,14777132,14777646,516,1556.6,596.8,5162,right
21,2,binary,6,1,fixationCross,14778648.0,14780565.0,1917.0,56,R,14777900,14778350,452,934.5,388.1,5948,NA
21,2,binary,6,1,trial,14778648.0,14780565.0,1917.0,56,R,14778376,14778790,416,958.6,511.3,6101,NA
21,2,binary,6,1,trial,14778648.0,14780565.0,1917.0,56,R,14778836,14779066,232,573.0,518.5,5806,left
21,2,binary,6,1,trial,14778648.0,14780565.0,1917.0,56,R,14779090,14779156,68,482.0,593.2,5223,left
21,2,binary,6,1,trial,14778648.0,14780565.0,1917.0,56,R,14779218,14779416,200,1395.3,527.5,4743,right
21,2,binary,6,1,trial,14778648.0,14780565.0,1917.0,56,R,14779438,14779728,292,1506.6,528.3,4741,right
21,2,binary,6,1,trial,14778648.0,14780565.0,1917.0,56,R,14779790,14779952,164,715.9,511.2,5322,left
21,2,binary,6,1,trial,14778648.0,14780565.0,1917.0,56,R,14779982,14780172,192,579.3,559.6,5604,left
21,2,binary,6,1,postResponse,14778648.0,14780565.0,1917.0,56,R,14780200,14780900,702,454.3,597.1,5703,left
21,2,binary,7,1,fixationCross,14781748.0,14783082.0,1334.0,57,R,14781082,14781412,332,942.2,408.7,5924,NA
21,2,binary,7,1,trial,14781748.0,14783082.0,1334.0,57,R,14781432,14781892,462,1005.6,457.9,6124,NA
21,2,binary,7,1,trial,14781748.0,14783082.0,1334.0,57,R,14781940,14782042,104,1401.2,502.3,5836,right
21,2,binary,7,1,trial,14781748.0,14783082.0,1334.0,57,R,14782110,14782278,170,620.7,458.7,5416,left
21,2,binary,7,1,trial,14781748.0,14783082.0,1334.0,57,R,14782304,14782488,186,491.8,516.8,5175,left
21,2,binary,7,1,trial,14781748.0,14783082.0,1334.0,57,R,14782508,14782598,92,456.8,564.1,5257,left
21,2,binary,7,1,trial,14781748.0,14783082.0,1334.0,57,R,14782668,14782878,212,1488.2,536.5,5221,right
21,2,binary,7,1,trial,14781748.0,14783082.0,1334.0,57,R,14782948,14783322,376,501.6,491.1,5533,left
21,2,binary,8,1,fixationCross,14784149.0,14786082.0,1933.0,58,R,14783508,14783848,342,1009.7,314.3,5673,NA
21,2,binary,8,1,trial,14784149.0,14786082.0,1933.0,58,R,14783884,14784330,448,960.1,443.4,6298,NA
21,2,binary,8,1,trial,14784149.0,14786082.0,1933.0,58,R,14784386,14784620,236,532.9,461.6,6105,left
21,2,binary,8,1,trial,14784149.0,14786082.0,1933.0,58,R,14784636,14784882,248,544.9,424.5,5411,left
21,2,binary,8,1,trial,14784149.0,14786082.0,1933.0,58,R,14784948,14785286,340,1469.3,490.0,5035,right
21,2,binary,8,1,trial,14784149.0,14786082.0,1933.0,58,R,14785308,14785534,228,1559.6,492.4,4788,right
21,2,binary,8,1,trial,14784149.0,14786082.0,1933.0,58,R,14785604,14785822,220,552.9,465.2,5003,left
21,2,binary,8,1,trial,14784149.0,14786082.0,1933.0,58,R,14785848,14786006,160,404.1,502.5,5040,left
21,2,binary,8,1,trial,14784149.0,14786082.0,1933.0,58,R,14786022,14786272,252,367.0,545.1,5341,left
21,2,binary,9,1,fixationCross,14787332.0,14788865.0,1533.0,59,R,14786492,14786664,174,1096.2,346.2,5548,NA
21,2,binary,9,1,fixationCross,14787332.0,14788865.0,1533.0,59,R,14786698,14787006,310,892.9,390.2,5936,NA
21,2,binary,9,1,fixationCross,14787332.0,14788865.0,1533.0,59,R,14787030,14787268,240,910.3,478.1,6012,NA
21,2,binary,9,1,trial,14787332.0,14788865.0,1533.0,59,R,14787292,14787478,188,785.5,528.9,6023,NA
21,2,binary,9,1,trial,14787332.0,14788865.0,1533.0,59,R,14787514,14787660,148,560.8,525.9,6012,left
21,2,binary,9,1,trial,14787332.0,14788865.0,1533.0,59,R,14787728,14787930,204,1429.6,478.8,4845,right
21,2,binary,9,1,trial,14787332.0,14788865.0,1533.0,59,R,14787948,14788140,194,1472.5,527.1,4479,right
21,2,binary,9,1,trial,14787332.0,14788865.0,1533.0,59,R,14788210,14788502,294,493.1,492.9,4532,left
21,2,binary,9,1,trial,14787332.0,14788865.0,1533.0,59,R,14788520,14788850,332,548.9,537.7,4729,left
21,2,binary,9,1,trial,14787332.0,14788865.0,1533.0,59,R,14788878,14789092,216,419.7,450.4,5453,left
21,2,binary,10,1,fixationCross,14791965.0,14793665.0,1700.0,60,R,14789300,14789576,278,871.8,427.0,5769,NA
21,2,binary,10,1,fixationCross,14791965.0,14793665.0,1700.0,60,R,14789602,14789810,210,1044.7,428.4,6022,NA
21,2,binary,10,1,fixationCross,14791965.0,14793665.0,1700.0,60,R,14789832,14790042,212,909.0,449.4,5953,NA
21,2,binary,10,1,fixationCross,14791965.0,14793665.0,1700.0,60,R,14790078,14790348,272,738.6,481.4,5984,NA
21,2,binary,10,1,fixationCross,14791965.0,14793665.0,1700.0,60,R,14790370,14791490,1122,638.0,478.6,6151,left
21,2,binary,10,1,fixationCross,14791965.0,14793665.0,1700.0,60,R,14791516,14791672,158,817.2,492.1,6386,NA
21,2,binary,10,1,trial,14791965.0,14793665.0,1700.0,60,R,14791696,14792084,390,927.7,518.3,6387,NA
21,2,binary,10,1,trial,14791965.0,14793665.0,1700.0,60,R,14792124,14792266,144,634.9,497.5,6527,left
21,2,binary,10,1,trial,14791965.0,14793665.0,1700.0,60,R,14792298,14792454,158,461.8,534.9,5744,left
21,2,binary,10,1,trial,14791965.0,14793665.0,1700.0,60,R,14792524,14793138,616,1472.9,518.4,4683,right
21,2,binary,10,1,trial,14791965.0,14793665.0,1700.0,60,R,14793206,14793558,354,527.1,571.4,5592,left
21,2,binary,10,1,postResponse,14791965.0,14793665.0,1700.0,60,R,14793584,14794000,418,393.2,552.4,5062,left
21,2,binary,11,2,fixationCross,14794949.0,14797132.0,2183.0,61,R,14794102,14794190,90,396.9,543.0,5322,left
21,2,binary,11,2,fixationCross,14794949.0,14797132.0,2183.0,61,R,14794256,14794638,384,881.8,403.3,5770,NA
21,2,binary,11,2,trial,14794949.0,14797132.0,2183.0,61,R,14794664,14795076,414,964.0,468.3,6185,NA
21,2,binary,11,2,trial,14794949.0,14797132.0,2183.0,61,R,14795132,14795256,126,1367.6,474.2,6118,right
21,2,binary,11,2,trial,14794949.0,14797132.0,2183.0,61,R,14795280,14795440,162,1518.3,455.6,5333,right
21,2,binary,11,2,trial,14794949.0,14797132.0,2183.0,61,R,14795456,14795564,110,1506.5,502.3,4877,right
21,2,binary,11,2,trial,14794949.0,14797132.0,2183.0,61,R,14795626,14795790,166,616.7,463.6,4989,left
21,2,binary,11,2,trial,14794949.0,14797132.0,2183.0,61,R,14795818,14796008,192,457.6,508.5,5009,left
21,2,binary,11,2,trial,14794949.0,14797132.0,2183.0,61,R,14796034,14796454,422,587.2,418.9,4846,left
21,2,binary,11,2,trial,14794949.0,14797132.0,2183.0,61,R,14796528,14796764,238,1568.2,469.0,4650,right
21,2,binary,11,2,postResponse,14794949.0,14797132.0,2183.0,61,R,14796778,14797468,692,1527.7,497.9,4977,right
21,2,binary,12,1,fixationCross,14800265.0,14802249.0,1984.0,62,R,14797542,14797732,192,1519.9,502.3,5279,right
21,2,binary,12,1,fixationCross,14800265.0,14802249.0,1984.0,62,R,14797772,14797948,178,1246.8,466.5,5767,right
21,2,binary,12,1,fixationCross,14800265.0,14802249.0,1984.0,62,R,14797988,14798208,222,1015.5,454.2,6049,NA
21,2,binary,12,1,fixationCross,14800265.0,14802249.0,1984.0,62,R,14798230,14799982,1754,878.5,446.5,6128,NA
21,2,binary,12,1,trial,14800265.0,14802249.0,1984.0,62,R,14800152,14800328,178,951.8,475.6,6376,NA
21,2,binary,12,1,trial,14800265.0,14802249.0,1984.0,62,R,14800344,14800470,128,927.5,511.3,6447,NA
21,2,binary,12,1,trial,14800265.0,14802249.0,1984.0,62,R,14800522,14800722,202,577.2,497.9,6025,left
21,2,binary,12,1,trial,14800265.0,14802249.0,1984.0,62,R,14800784,14801160,378,1436.0,506.3,4704,right
21,2,binary,12,1,trial,14800265.0,14802249.0,1984.0,62,R,14801224,14801468,246,595.5,492.2,4711,left
21,2,binary,12,1,postResponse,14800265.0,14802249.0,1984.0,62,R,14801490,14802586,1098,507.9,529.1,5133,left
21,2,binary,13,1,fixationCross,14803315.0,14804832.0,1517.0,63,R,14802796,14803082,288,928.2,441.1,5689,NA
21,2,binary,13,1,trial,14803315.0,14804832.0,1517.0,63,R,14803104,14803408,306,987.2,488.7,6053,NA
21,2,binary,13,1,trial,14803315.0,14804832.0,1517.0,63,R,14803450,14803606,158,1267.6,448.0,5969,right
21,2,binary,13,1,trial,14803315.0,14804832.0,1517.0,63,R,14803638,14803890,254,1479.9,485.6,5020,right
21,2,binary,13,1,trial,14803315.0,14804832.0,1517.0,63,R,14803958,14804268,312,493.0,450.9,4728,left
21,2,binary,13,1,trial,14803315.0,14804832.0,1517.0,63,R,14804286,14805044,760,413.3,456.4,5327,left
21,2,binary,14,2,fixationCross,14812149.0,14814249.0,2100.0,64,R,14805266,14805424,160,1377.7,406.3,5401,right
21,2,binary,14,2,fixationCross,14812149.0,14814249.0,2100.0,64,R,14805450,14805668,220,1185.1,420.6,5835,right
21,2,binary,14,2,fixationCross,14812149.0,14814249.0,2100.0,64,R,14805694,14807190,1498,1052.2,446.1,6233,NA
21,2,binary,14,2,fixationCross,14812149.0,14814249.0,2100.0,64,R,14807216,14807708,494,1168.3,456.8,6327,NA
21,2,binary,14,2,fixationCross,14812149.0,14814249.0,2100.0,64,R,14807874,14808234,362,1030.5,447.4,6255,NA
21,2,binary,14,2,fixationCross,14812149.0,14814249.0,2100.0,64,R,14808250,14809296,1048,1114.8,462.2,5976,NA
21,2,binary,14,2,fixationCross,14812149.0,14814249.0,2100.0,64,R,14809318,14809604,288,1225.4,421.5,6093,right
21,2,binary,14,2,fixationCross,14812149.0,14814249.0,2100.0,64,R,14809624,14810134,512,1131.4,402.7,6079,NA
21,2,binary,14,2,fixationCross,14812149.0,14814249.0,2100.0,64,R,14810156,14811408,1254,1041.1,429.0,5937,NA
21,2,binary,14,2,fixationCross,14812149.0,14814249.0,2100.0,64,R,14811418,14811808,392,1003.4,438.0,6022,NA
21,2,binary,14,2,fixationCross,14812149.0,14814249.0,2100.0,64,R,14811982,14812122,142,954.5,494.7,6127,NA
21,2,binary,14,2,trial,14812149.0,14814249.0,2100.0,64,R,14812136,14812360,226,955.8,532.9,6200,NA
21,2,binary,14,2,trial,14812149.0,14814249.0,2100.0,64,R,14812400,14812602,204,682.5,480.5,5758,left
21,2,binary,14,2,trial,14812149.0,14814249.0,2100.0,64,R,14812658,14812782,126,1415.5,513.2,4668,right
21,2,binary,14,2,trial,14812149.0,14814249.0,2100.0,64,R,14812804,14812970,168,1530.4,559.6,4440,right
21,2,binary,14,2,trial,14812149.0,14814249.0,2100.0,64,R,14812980,14813278,300,1501.8,564.8,4437,right
21,2,binary,14,2,trial,14812149.0,14814249.0,2100.0,64,R,14813342,14813530,190,656.4,469.2,4837,left
21,2,binary,14,2,trial,14812149.0,14814249.0,2100.0,64,R,14813546,14813784,240,612.6,450.4,4895,left
21,2,binary,14,2,trial,14812149.0,14814249.0,2100.0,64,R,14813844,14814000,158,1456.4,507.6,4750,right
21,2,binary,14,2,trial,14812149.0,14814249.0,2100.0,64,R,14814022,14814466,446,1512.3,549.8,4754,right
21,2,binary,15,1,fixationCross,14816899.0,14818033.0,1134.0,65,R,14814662,14814892,232,1245.3,297.2,5202,NA
21,2,binary,15,1,fixationCross,14816899.0,14818033.0,1134.0,65,R,14814930,14815252,324,975.9,317.5,5819,NA
21,2,binary,15,1,fixationCross,14816899.0,14818033.0,1134.0,65,R,14815284,14816602,1320,995.7,420.4,6014,NA
21,2,binary,15,1,trial,14816899.0,14818033.0,1134.0,65,R,14816626,14817030,406,962.3,519.6,6316,NA
21,2,binary,15,1,trial,14816899.0,14818033.0,1134.0,65,R,14817078,14817236,160,1351.2,512.1,5932,right
21,2,binary,15,1,trial,14816899.0,14818033.0,1134.0,65,R,14817256,14817400,146,1473.9,522.0,5223,right
21,2,binary,15,1,trial,14816899.0,14818033.0,1134.0,65,R,14817468,14817802,336,577.9,463.4,5244,left
21,2,binary,15,1,trial,14816899.0,14818033.0,1134.0,65,R,14817826,14818044,220,506.8,507.6,5439,left
21,2,binary,15,1,trial,14816899.0,14818033.0,1134.0,65,R,14818066,14818222,158,433.1,538.1,5576,left
21,2,binary,16,2,fixationCross,14819965.0,14821215.0,1250.0,66,R,14818466,14818688,224,1264.8,360.8,5685,right
21,2,binary,16,2,fixationCross,14819965.0,14821215.0,1250.0,66,R,14818714,14819368,656,1049.3,375.4,6291,NA
21,2,binary,16,2,fixationCross,14819965.0,14821215.0,1250.0,66,R,14819388,14819648,262,1074.5,442.8,6227,NA
21,2,binary,16,2,trial,14819965.0,14821215.0,1250.0,66,R,14819668,14820112,446,1013.2,476.9,6236,NA
21,2,binary,16,2,trial,14819965.0,14821215.0,1250.0,66,R,14820156,14820348,194,1368.7,521.4,5913,right
21,2,binary,16,2,trial,14819965.0,14821215.0,1250.0,66,R,14820372,14820602,232,1465.7,561.6,4965,right
21,2,binary,16,2,trial,14819965.0,14821215.0,1250.0,66,R,14820624,14820736,114,1398.3,620.1,4707,right
21,2,binary,16,2,trial,14819965.0,14821215.0,1250.0,66,R,14820804,14821024,222,519.8,528.5,5099,left
21,2,binary,16,2,postResponse,14819965.0,14821215.0,1250.0,66,R,14821094,14821556,464,1533.9,563.2,4886,right
21,2,binary,17,2,fixationCross,14822299.0,14823949.0,1650.0,67,R,14821630,14821968,340,1180.8,387.1,5427,NA
21,2,binary,17,2,trial,14822299.0,14823949.0,1650.0,67,R,14822006,14822312,308,983.5,451.3,6070,NA
21,2,binary,17,2,trial,14822299.0,14823949.0,1650.0,67,R,14822462,14822538,78,1129.5,490.1,6142,NA
21,2,binary,17,2,trial,14822299.0,14823949.0,1650.0,67,R,14822578,14822996,420,1441.2,498.4,5711,right
21,2,binary,17,2,trial,14822299.0,14823949.0,1650.0,67,R,14823088,14823304,218,445.6,523.3,5396,left
21,2,binary,17,2,trial,14822299.0,14823949.0,1650.0,67,R,14823316,14823460,146,418.1,523.3,5389,left
21,2,binary,17,2,trial,14822299.0,14823949.0,1650.0,67,R,14823530,14823892,364,1465.4,475.3,4957,right
21,2,binary,17,2,postResponse,14822299.0,14823949.0,1650.0,67,R,14823910,14824286,378,1503.4,437.1,5171,right
21,2,binary,18,1,fixationCross,14825532.0,14828466.0,2934.0,68,R,14824498,14824806,310,1175.1,409.7,5968,NA
21,2,binary,18,1,fixationCross,14825532.0,14828466.0,2934.0,68,R,14824832,14825238,408,1034.6,450.0,6182,NA
21,2,binary,18,1,trial,14825532.0,14828466.0,2934.0,68,R,14825258,14825672,416,936.6,460.6,6060,NA
21,2,binary,18,1,trial,14825532.0,14828466.0,2934.0,68,R,14825722,14825936,216,1390.0,487.2,5663,right
21,2,binary,18,1,trial,14825532.0,14828466.0,2934.0,68,R,14825952,14826218,268,1479.7,479.0,4762,right
21,2,binary,18,1,trial,14825532.0,14828466.0,2934.0,68,R,14826284,14826614,332,577.8,473.3,4764,left
21,2,binary,18,1,trial,14825532.0,14828466.0,2934.0,68,R,14826676,14826930,256,1414.4,433.4,4808,right
21,2,binary,18,1,trial,14825532.0,14828466.0,2934.0,68,R,14826952,14827900,950,1495.7,462.4,4998,right
21,2,binary,18,1,trial,14825532.0,14828466.0,2934.0,68,R,14827918,14828012,96,1461.4,488.0,5179,right
21,2,binary,18,1,postResponse,14825532.0,14828466.0,2934.0,68,R,14828078,14828800,724,604.5,451.8,5512,left
21,2,binary,19,2,fixationCross,14831449.0,14832433.0,984.0,69,R,14828900,14828944,46,609.7,454.3,5892,left
21,2,binary,19,2,fixationCross,14831449.0,14832433.0,984.0,69,R,14829014,14830724,1712,1220.9,448.6,6185,right
21,2,binary,19,2,fixationCross,14831449.0,14832433.0,984.0,69,R,14830742,14831088,348,1130.5,484.5,6032,NA
21,2,binary,19,2,trial,14831449.0,14832433.0,984.0,69,R,14831104,14831480,378,1045.5,490.5,6189,NA
21,2,binary,19,2,trial,14831449.0,14832433.0,984.0,69,R,14831506,14831782,278,1327.4,443.3,5889,right
21,2,binary,19,2,trial,14831449.0,14832433.0,984.0,69,R,14831804,14831880,78,1365.1,502.1,5418,right
21,2,binary,19,2,trial,14831449.0,14832433.0,984.0,69,R,14831942,14832116,176,573.7,476.6,5277,left
21,2,binary,19,2,trial,14831449.0,14832433.0,984.0,69,R,14832178,14832684,508,1438.4,478.7,4669,right
21,2,binary,20,1,fixationCross,14833683.0,14835749.0,2066.0,70,R,14832864,14833126,264,1261.7,384.9,5416,right
21,2,binary,20,1,fixationCross,14833683.0,14835749.0,2066.0,70,R,14833172,14833388,218,915.0,446.0,6020,NA
21,2,binary,20,1,trial,14833683.0,14835749.0,2066.0,70,R,14833410,14833828,420,962.9,514.3,6109,NA
21,2,binary,20,1,trial,14833683.0,14835749.0,2066.0,70,R,14833876,14834176,302,1412.2,471.8,5471,right
21,2,binary,20,1,trial,14833683.0,14835749.0,2066.0,70,R,14834238,14834500,264,567.1,526.5,5107,left
21,2,binary,20,1,trial,14833683.0,14835749.0,2066.0,70,R,14834520,14834856,338,501.0,550.2,5245,left
21,2,binary,20,1,trial,14833683.0,14835749.0,2066.0,70,R,14834926,14835064,140,1458.6,478.4,4965,right
21,2,binary,20,1,trial,14833683.0,14835749.0,2066.0,70,R,14835082,14835472,392,1515.8,465.1,4744,right
21,2,binary,20,1,postResponse,14833683.0,14835749.0,2066.0,70,R,14835542,14836080,540,573.0,558.5,5478,left
21,2,binary,21,1,fixationCross,14842116.0,14843766.0,1650.0,71,R,14836364,14836508,146,1239.0,360.2,5393,right
21,2,binary,21,1,fixationCross,14842116.0,14843766.0,1650.0,71,R,14836690,14836994,306,1121.0,444.5,6002,NA
21,2,binary,21,1,fixationCross,14842116.0,14843766.0,1650.0,71,R,14837032,14837632,602,1298.1,445.2,5736,right
21,2,binary,21,1,fixationCross,14842116.0,14843766.0,1650.0,71,R,14837650,14838644,996,1205.9,467.8,6058,right
21,2,binary,21,1,fixationCross,14842116.0,14843766.0,1650.0,71,R,14838662,14839040,380,1295.3,487.1,6419,right
21,2,binary,21,1,fixationCross,14842116.0,14843766.0,1650.0,71,R,14839066,14841700,2636,1151.4,500.3,6576,NA
21,2,binary,21,1,trial,14842116.0,14843766.0,1650.0,71,R,14841844,14842348,506,972.3,465.7,6764,NA
21,2,binary,21,1,trial,14842116.0,14843766.0,1650.0,71,R,14842400,14842580,182,1356.6,482.1,5815,right
21,2,binary,21,1,trial,14842116.0,14843766.0,1650.0,71,R,14842600,14842688,90,1481.8,459.3,5162,right
21,2,binary,21,1,trial,14842116.0,14843766.0,1650.0,71,R,14842758,14843240,484,508.6,481.4,5001,left
21,2,binary,21,1,trial,14842116.0,14843766.0,1650.0,71,R,14843260,14843632,374,444.7,532.4,5285,left
21,2,binary,21,1,postResponse,14842116.0,14843766.0,1650.0,71,R,14843702,14844100,400,1459.8,458.0,5246,right
21,2,binary,22,2,fixationCross,14844816.0,14846199.0,1383.0,72,R,14844200,14844480,282,1446.7,461.0,5303,right
21,2,binary,22,2,trial,14844816.0,14846199.0,1383.0,72,R,14844530,14845018,490,986.9,449.0,6049,NA
21,2,binary,22,2,trial,14844816.0,14846199.0,1383.0,72,R,14845082,14845394,314,1377.3,483.8,5350,right
21,2,binary,22,2,trial,14844816.0,14846199.0,1383.0,72,R,14845458,14845732,276,494.7,505.2,5166,left
21,2,binary,22,2,trial,14844816.0,14846199.0,1383.0,72,R,14845800,14846048,250,1429.2,492.0,4931,right
21,2,binary,22,2,trial,14844816.0,14846199.0,1383.0,72,R,14846070,14846478,410,1528.1,485.3,4842,right
21,2,binary,22,2,postResponse,14844816.0,14846199.0,1383.0,72,R,14846518,14846538,22,1422.2,393.0,4855,right
21,2,binary,23,2,fixationCross,14849116.0,14850366.0,1250.0,73,R,14846702,14846946,246,1247.1,376.0,5401,right
21,2,binary,23,2,fixationCross,14849116.0,14850366.0,1250.0,73,R,14846980,14847552,574,1011.0,444.0,5956,NA
21,2,binary,23,2,fixationCross,14849116.0,14850366.0,1250.0,73,R,14847574,14848810,1238,885.6,419.3,5988,NA
21,2,binary,23,2,trial,14849116.0,14850366.0,1250.0,73,R,14848830,14849262,434,932.8,482.1,6418,NA
21,2,binary,23,2,trial,14849116.0,14850366.0,1250.0,73,R,14849316,14849492,178,606.4,478.7,6440,left
21,2,binary,23,2,trial,14849116.0,14850366.0,1250.0,73,R,14849566,14850182,618,1455.2,522.9,5236,right
21,2,binary,23,2,trial,14849116.0,14850366.0,1250.0,73,R,14850204,14850366,164,1357.6,568.1,5657,right
21,2,binary,23,2,trial,14849116.0,14850366.0,1250.0,73,R,14850430,14850584,156,618.6,464.6,6035,left
21,2,binary,24,1,fixationCross,14852399.0,14854133.0,1734.0,74,R,14850776,14852100,1326,908.7,406.2,5923,NA
21,2,binary,24,1,trial,14852399.0,14854133.0,1734.0,74,R,14852122,14852518,398,958.6,488.6,6268,NA
21,2,binary,24,1,trial,14852399.0,14854133.0,1734.0,74,R,14852562,14852856,296,598.4,484.1,6220,left
21,2,binary,24,1,trial,14852399.0,14854133.0,1734.0,74,R,14852916,14853072,158,1356.3,498.0,5031,right
21,2,binary,24,1,trial,14852399.0,14854133.0,1734.0,74,R,14853092,14853428,338,1425.2,535.1,4819,right
21,2,binary,24,1,trial,14852399.0,14854133.0,1734.0,74,R,14853494,14853852,360,566.1,503.0,5236,left
21,2,binary,24,1,postResponse,14852399.0,14854133.0,1734.0,74,R,14853868,14854468,602,538.2,469.7,5300,left
21,2,binary,25,1,fixationCross,14855366.0,14856583.0,1217.0,75,R,14854542,14854616,76,545.1,469.9,5547,left
21,2,binary,25,1,fixationCross,14855366.0,14856583.0,1217.0,75,R,14854660,14854756,98,876.7,451.6,5636,NA
21,2,binary,25,1,fixationCross,14855366.0,14856583.0,1217.0,75,R,14854948,14855084,138,1137.8,418.2,5889,NA
21,2,binary,25,1,trial,14855366.0,14856583.0,1217.0,75,R,14855108,14855524,418,1015.2,455.8,6172,NA
21,2,binary,25,1,trial,14855366.0,14856583.0,1217.0,75,R,14855578,14855878,302,1397.6,454.5,5387,right
21,2,binary,25,1,trial,14855366.0,14856583.0,1217.0,75,R,14855938,14856182,246,559.5,472.8,5045,left
21,2,binary,25,1,trial,14855366.0,14856583.0,1217.0,75,R,14856206,14856454,250,432.2,469.6,4934,left
21,2,binary,25,1,trial,14855366.0,14856583.0,1217.0,75,R,14856498,14856628,132,428.4,725.9,4885,left
21,2,binary,25,1,trial,14855366.0,14856583.0,1217.0,75,R,14856664,14856852,190,451.5,987.3,5179,NA
21,2,binary,26,2,fixationCross,14882050.0,14883550.0,1500.0,76,R,14881331,14881535,206,676.2,130.8,6361,NA
21,2,binary,26,2,fixationCross,14882050.0,14883550.0,1500.0,76,R,14881637,14881779,144,1083.3,421.5,6057,NA
21,2,binary,26,2,fixationCross,14882050.0,14883550.0,1500.0,76,R,14881809,14881959,152,975.9,504.8,6213,NA
21,2,binary,26,2,trial,14882050.0,14883550.0,1500.0,76,R,14881973,14882301,330,950.8,522.2,6564,NA
21,2,binary,26,2,trial,14882050.0,14883550.0,1500.0,76,R,14882345,14882553,210,1351.1,585.1,5671,right
21,2,binary,26,2,trial,14882050.0,14883550.0,1500.0,76,R,14882575,14882715,142,1483.2,542.7,4945,right
21,2,binary,26,2,trial,14882050.0,14883550.0,1500.0,76,R,14882777,14882929,154,616.9,521.6,4933,left
21,2,binary,26,2,trial,14882050.0,14883550.0,1500.0,76,R,14882943,14883157,216,581.6,519.3,4856,left
21,2,binary,26,2,trial,14882050.0,14883550.0,1500.0,76,R,14883217,14883421,206,1313.1,512.1,4806,right
21,2,binary,26,2,trial,14882050.0,14883550.0,1500.0,76,R,14883451,14883753,304,1479.8,510.4,4956,right
21,2,binary,27,1,fixationCross,14884450.0,14885417.0,967.0,77,R,14883959,14884105,148,1203.0,329.3,5165,NA
21,2,binary,27,1,trial,14884450.0,14885417.0,967.0,77,R,14884149,14884579,432,943.6,448.1,5969,NA
21,2,binary,27,1,trial,14884450.0,14885417.0,967.0,77,R,14884635,14884783,150,571.4,478.6,6446,left
21,2,binary,27,1,trial,14884450.0,14885417.0,967.0,77,R,14884853,14885203,352,1441.8,498.5,5180,right
21,2,binary,27,1,postResponse,14884450.0,14885417.0,967.0,77,R,14885271,14885749,480,571.4,448.2,5392,left
21,2,binary,28,2,fixationCross,14889016.0,14890333.0,1317.0,78,R,14885823,14885871,50,587.2,448.8,5826,left
21,2,binary,28,2,fixationCross,14889016.0,14890333.0,1317.0,78,R,14886025,14886173,150,1288.5,451.5,6007,right
21,2,binary,28,2,fixationCross,14889016.0,14890333.0,1317.0,78,R,14886199,14887929,1732,1072.9,472.9,6563,NA
21,2,binary,28,2,fixationCross,14889016.0,14890333.0,1317.0,78,R,14887951,14888465,516,1172.0,463.2,6621,NA
21,2,binary,28,2,fixationCross,14889016.0,14890333.0,1317.0,78,R,14888565,14888719,156,1063.1,474.3,6606,NA
21,2,binary,28,2,fixationCross,14889016.0,14890333.0,1317.0,78,R,14888739,14888943,206,985.0,498.5,6710,NA
21,2,binary,28,2,trial,14889016.0,14890333.0,1317.0,78,R,14888957,14889155,200,960.8,519.9,6710,NA
21,2,binary,28,2,trial,14889016.0,14890333.0,1317.0,78,R,14889197,14889415,220,1358.9,482.1,6050,right
21,2,binary,28,2,trial,14889016.0,14890333.0,1317.0,78,R,14889437,14889583,148,1489.7,472.1,5150,right
21,2,binary,28,2,trial,14889016.0,14890333.0,1317.0,78,R,14889613,14889693,82,1410.2,600.1,4897,right
21,2,binary,28,2,trial,14889016.0,14890333.0,1317.0,78,R,14889759,14890505,748,524.5,499.5,5239,left
21,2,binary,29,2,fixationCross,14891667.0,14892983.0,1316.0,79,R,14890767,14891015,250,1456.8,438.2,5341,right
21,2,binary,29,2,fixationCross,14891667.0,14892983.0,1316.0,79,R,14891063,14891353,292,1090.5,460.3,6052,NA
21,2,binary,29,2,trial,14891667.0,14892983.0,1316.0,79,R,14891375,14891811,438,976.4,464.8,6260,NA
21,2,binary,29,2,trial,14891667.0,14892983.0,1316.0,79,R,14891865,14892129,266,1405.8,457.8,5884,right
21,2,binary,29,2,trial,14891667.0,14892983.0,1316.0,79,R,14892145,14892445,302,1468.2,493.1,5158,right
21,2,binary,29,2,trial,14891667.0,14892983.0,1316.0,79,R,14892513,14892797,286,533.6,503.0,5409,left
21,2,binary,29,2,trial,14891667.0,14892983.0,1316.0,79,R,14892861,14893243,384,1458.8,514.3,5271,right
21,2,binary,30,1,fixationCross,14894100.0,14895150.0,1050.0,80,R,14893417,14893801,386,899.0,426.3,5903,NA
21,2,binary,30,1,trial,14894100.0,14895150.0,1050.0,80,R,14893823,14894235,414,969.0,493.8,6218,NA
21,2,binary,30,1,trial,14894100.0,14895150.0,1050.0,80,R,14894291,14894517,228,1449.5,495.9,5733,right
21,2,binary,30,1,trial,14894100.0,14895150.0,1050.0,80,R,14894539,14894661,124,1558.0,476.5,5014,right
21,2,binary,30,1,trial,14894100.0,14895150.0,1050.0,80,R,14894741,14894995,256,460.4,497.4,5352,left
21,2,binary,30,1,trial,14894100.0,14895150.0,1050.0,80,R,14895073,14895425,354,1547.6,509.7,5197,right
21,2,binary,31,1,fixationCross,14896583.0,14897550.0,967.0,81,R,14895585,14895697,114,1206.2,454.6,5661,right
21,2,binary,31,1,fixationCross,14896583.0,14897550.0,967.0,81,R,14895735,14896309,576,995.9,440.3,6194,NA
21,2,binary,31,1,trial,14896583.0,14897550.0,967.0,81,R,14896331,14896629,300,1005.1,512.8,6505,NA
21,2,binary,31,1,trial,14896583.0,14897550.0,967.0,81,R,14896645,14896755,112,955.2,493.7,6587,NA
21,2,binary,31,1,trial,14896583.0,14897550.0,967.0,81,R,14896813,14897031,220,1435.3,509.0,5949,right
21,2,binary,31,1,trial,14896583.0,14897550.0,967.0,81,R,14897097,14897511,416,539.7,493.8,5301,left
21,2,binary,31,1,trial,14896583.0,14897550.0,967.0,81,R,14897529,14897795,268,472.2,514.3,5249,left
21,2,binary,32,1,fixationCross,14901016.0,14902033.0,1017.0,82,R,14898065,14898349,286,1170.7,388.8,5368,NA
21,2,binary,32,1,fixationCross,14901016.0,14902033.0,1017.0,82,R,14898373,14898613,242,1069.2,448.8,5880,NA
21,2,binary,32,1,fixationCross,14901016.0,14902033.0,1017.0,82,R,14898653,14898979,328,1300.4,470.3,5777,right
21,2,binary,32,1,fixationCross,14901016.0,14902033.0,1017.0,82,R,14898999,14899883,886,1412.3,475.9,5838,right
21,2,binary,32,1,fixationCross,14901016.0,14902033.0,1017.0,82,R,14899909,14900409,502,1235.9,464.6,6057,right
21,2,binary,32,1,fixationCross,14901016.0,14902033.0,1017.0,82,R,14900459,14900769,312,915.3,440.0,6329,NA
21,2,binary,32,1,fixationCross,14901016.0,14902033.0,1017.0,82,R,14900785,14900999,216,954.8,474.8,6296,NA
21,2,binary,32,1,trial,14901016.0,14902033.0,1017.0,82,R,14901061,14901167,108,506.9,396.8,6473,left
21,2,binary,32,1,trial,14901016.0,14902033.0,1017.0,82,R,14901235,14901357,124,1319.2,465.6,6207,right
21,2,binary,32,1,trial,14901016.0,14902033.0,1017.0,82,R,14901385,14901641,258,1487.6,482.8,5385,right
21,2,binary,32,1,trial,14901016.0,14902033.0,1017.0,82,R,14901707,14901955,250,571.0,467.4,5247,left
21,2,binary,32,1,trial,14901016.0,14902033.0,1017.0,82,R,14901979,14902343,366,528.2,399.6,5469,left
21,2,binary,33,2,fixationCross,14905166.0,14906467.0,1301.0,83,R,14902541,14903133,594,989.0,393.8,5985,NA
21,2,binary,33,2,fixationCross,14905166.0,14906467.0,1301.0,83,R,14903155,14903939,786,1049.8,468.0,5963,NA
21,2,binary,33,2,fixationCross,14905166.0,14906467.0,1301.0,83,R,14904055,14904889,836,1040.2,442.7,6313,NA
21,2,binary,33,2,trial,14905166.0,14906467.0,1301.0,83,R,14904901,14905287,388,1001.0,444.7,6083,NA
21,2,binary,33,2,trial,14905166.0,14906467.0,1301.0,83,R,14905333,14905537,206,1406.9,440.1,5763,right
21,2,binary,33,2,trial,14905166.0,14906467.0,1301.0,83,R,14905561,14905661,102,1495.3,505.1,5194,right
21,2,binary,33,2,trial,14905166.0,14906467.0,1301.0,83,R,14905731,14906003,274,509.4,496.2,5282,left
21,2,binary,33,2,trial,14905166.0,14906467.0,1301.0,83,R,14906069,14906341,274,1512.8,523.3,4840,right
21,2,binary,33,2,trial,14905166.0,14906467.0,1301.0,83,R,14906365,14906477,114,1592.0,590.8,4805,right
21,2,binary,33,2,trial,14905166.0,14906467.0,1301.0,83,R,14906547,14906739,194,532.8,513.9,5466,left
21,2,binary,34,1,fixationCross,14908900.0,14909867.0,967.0,84,R,14906923,14907509,588,923.0,334.7,5959,NA
21,2,binary,34,1,fixationCross,14908900.0,14909867.0,967.0,84,R,14907529,14908389,862,990.8,402.8,6036,NA
21,2,binary,34,1,fixationCross,14908900.0,14909867.0,967.0,84,R,14908491,14908713,224,1030.1,442.2,6086,NA
21,2,binary,34,1,trial,14908900.0,14909867.0,967.0,84,R,14908733,14909037,306,955.8,468.4,6245,NA
21,2,binary,34,1,trial,14908900.0,14909867.0,967.0,84,R,14909093,14909223,132,1356.2,494.5,5897,right
21,2,binary,34,1,trial,14908900.0,14909867.0,967.0,84,R,14909249,14909411,164,1497.8,504.5,5081,right
21,2,binary,34,1,trial,14908900.0,14909867.0,967.0,84,R,14909483,14909821,340,577.1,513.1,4842,left
21,2,binary,34,1,trial,14908900.0,14909867.0,967.0,84,R,14909841,14910081,242,491.5,507.2,5036,left
21,2,binary,34,1,trial,14908900.0,14909867.0,967.0,84,R,14910093,14910113,22,542.8,475.1,5237,left
21,2,binary,35,2,fixationCross,14915867.0,14917100.0,1233.0,85,R,14910317,14910517,202,981.5,328.2,5547,NA
21,2,binary,35,2,fixationCross,14915867.0,14917100.0,1233.0,85,R,14910713,14910887,176,650.4,298.7,6200,NA
21,2,binary,35,2,fixationCross,14915867.0,14917100.0,1233.0,85,R,14910927,14911145,220,902.1,368.3,6293,NA
21,2,binary,35,2,fixationCross,14915867.0,14917100.0,1233.0,85,R,14911169,14912087,920,1032.0,398.7,5760,NA
21,2,binary,35,2,fixationCross,14915867.0,14917100.0,1233.0,85,R,14912107,14913967,1862,985.9,431.4,6000,NA
21,2,binary,35,2,fixationCross,14915867.0,14917100.0,1233.0,85,R,14913987,14914343,358,1077.0,430.5,6220,NA
21,2,binary,35,2,fixationCross,14915867.0,14917100.0,1233.0,85,R,14914361,14915315,956,988.7,433.6,6356,NA
21,2,binary,35,2,trial,14915867.0,14917100.0,1233.0,85,R,14915477,14915997,522,964.9,438.4,6307,NA
21,2,binary,35,2,trial,14915867.0,14917100.0,1233.0,85,R,14916051,14916243,194,1358.9,458.2,5728,right
21,2,binary,35,2,trial,14915867.0,14917100.0,1233.0,85,R,14916267,14916371,106,1472.4,509.7,5049,right
21,2,binary,35,2,trial,14915867.0,14917100.0,1233.0,85,R,14916439,14916607,170,551.8,494.9,4999,left
21,2,binary,35,2,trial,14915867.0,14917100.0,1233.0,85,R,14916673,14917377,706,1476.9,560.8,4767,right
21,2,binary,36,1,fixationCross,14919100.0,14920450.0,1350.0,86,R,14917545,14917827,284,1363.8,360.5,5283,right
21,2,binary,36,1,fixationCross,14919100.0,14920450.0,1350.0,86,R,14917873,14918815,944,1008.6,432.0,5839,NA
21,2,binary,36,1,fixationCross,14919100.0,14920450.0,1350.0,86,R,14918829,14919039,212,948.7,454.3,5987,NA
21,2,binary,36,1,trial,14919100.0,14920450.0,1350.0,86,R,14919059,14919267,210,958.4,512.8,6142,NA
21,2,binary,36,1,trial,14919100.0,14920450.0,1350.0,86,R,14919313,14919627,316,1369.6,512.0,5668,right
21,2,binary,36,1,trial,14919100.0,14920450.0,1350.0,86,R,14919687,14919913,228,595.9,497.0,5197,left
21,2,binary,36,1,trial,14919100.0,14920450.0,1350.0,86,R,14919937,14920729,794,510.6,517.7,5776,left
21,2,binary,37,2,fixationCross,14921584.0,14923000.0,1416.0,87,R,14920861,14921261,402,1075.8,373.5,6107,NA
21,2,binary,37,2,trial,14921584.0,14923000.0,1416.0,87,R,14921295,14921663,370,994.8,485.1,6301,NA
21,2,binary,37,2,trial,14921584.0,14923000.0,1416.0,87,R,14921811,14921965,156,1474.2,450.1,5763,right
21,2,binary,37,2,trial,14921584.0,14923000.0,1416.0,87,R,14921989,14922113,126,1400.0,485.0,5338,right
21,2,binary,37,2,trial,14921584.0,14923000.0,1416.0,87,R,14922183,14922381,200,601.6,490.0,5475,left
21,2,binary,37,2,trial,14921584.0,14923000.0,1416.0,87,R,14922407,14922509,104,496.4,498.3,5328,left
21,2,binary,37,2,trial,14921584.0,14923000.0,1416.0,87,R,14922571,14922869,300,1372.6,451.3,4744,right
21,2,binary,37,2,postResponse,14921584.0,14923000.0,1416.0,87,R,14922889,14923335,448,1373.6,390.2,5013,right
21,2,binary,38,2,fixationCross,14924284.0,14926300.0,2016.0,88,R,14923435,14923693,260,1364.4,407.0,5580,right
21,2,binary,38,2,fixationCross,14924284.0,14926300.0,2016.0,88,R,14923751,14923953,204,948.7,407.1,6049,NA
21,2,binary,38,2,trial,14924284.0,14926300.0,2016.0,88,R,14924067,14924445,380,947.7,481.8,6272,NA
21,2,binary,38,2,trial,14924284.0,14926300.0,2016.0,88,R,14924497,14924657,162,609.7,490.5,6422,left
21,2,binary,38,2,trial,14924284.0,14926300.0,2016.0,88,R,14924713,14924917,206,1385.5,508.2,5099,right
21,2,binary,38,2,trial,14924284.0,14926300.0,2016.0,88,R,14924937,14925123,188,1446.2,557.4,4723,right
21,2,binary,38,2,trial,14924284.0,14926300.0,2016.0,88,R,14925141,14925333,194,1464.2,604.5,4879,right
21,2,binary,38,2,trial,14924284.0,14926300.0,2016.0,88,R,14925403,14925767,366,492.8,509.3,5617,left
21,2,binary,38,2,trial,14924284.0,14926300.0,2016.0,88,R,14925791,14926139,350,594.0,526.6,5187,left
21,2,binary,38,2,postResponse,14924284.0,14926300.0,2016.0,88,R,14926203,14926635,434,1457.8,491.0,5230,right
21,2,binary,39,1,fixationCross,14927884.0,14928667.0,783.0,89,R,14926709,14926905,198,1448.9,494.3,5783,right
21,2,binary,39,1,fixationCross,14927884.0,14928667.0,783.0,89,R,14926953,14927543,592,1082.1,430.5,6297,NA
21,2,binary,39,1,trial,14927884.0,14928667.0,783.0,89,R,14927637,14928055,420,963.5,475.4,6456,NA
21,2,binary,39,1,trial,14927884.0,14928667.0,783.0,89,R,14928097,14928251,156,694.7,486.4,6312,left
21,2,binary,39,1,trial,14927884.0,14928667.0,783.0,89,R,14928275,14928641,368,598.5,515.7,5521,left
21,2,binary,39,1,postResponse,14927884.0,14928667.0,783.0,89,R,14928663,14929013,352,526.1,521.1,5395,left
21,2,binary,40,2,fixationCross,14932367.0,14933867.0,1500.0,90,R,14929113,14929129,18,534.0,525.2,5544,left
21,2,binary,40,2,fixationCross,14932367.0,14933867.0,1500.0,90,R,14929297,14929499,204,1171.8,401.9,5816,NA
21,2,binary,40,2,fixationCross,14932367.0,14933867.0,1500.0,90,R,14929521,14930195,676,1056.8,437.0,6138,NA
21,2,binary,40,2,fixationCross,14932367.0,14933867.0,1500.0,90,R,14930219,14930541,324,1161.2,471.4,6082,NA
21,2,binary,40,2,fixationCross,14932367.0,14933867.0,1500.0,90,R,14930559,14930927,370,1083.7,470.1,6350,NA
21,2,binary,40,2,fixationCross,14932367.0,14933867.0,1500.0,90,R,14930947,14931153,208,1178.5,470.3,6442,NA
21,2,binary,40,2,fixationCross,14932367.0,14933867.0,1500.0,90,R,14931171,14931753,584,1108.6,465.7,6191,NA
21,2,binary,40,2,fixationCross,14932367.0,14933867.0,1500.0,90,R,14931867,14932065,200,1104.6,473.2,6195,NA
21,2,binary,40,2,trial,14932367.0,14933867.0,1500.0,90,R,14932083,14932491,410,1024.5,486.6,6236,NA
21,2,binary,40,2,trial,14932367.0,14933867.0,1500.0,90,R,14932531,14932727,198,1330.7,485.6,5656,right
21,2,binary,40,2,trial,14932367.0,14933867.0,1500.0,90,R,14932755,14932859,106,1507.0,478.9,5005,right
21,2,binary,40,2,trial,14932367.0,14933867.0,1500.0,90,R,14932925,14933245,322,565.4,500.8,5068,left
21,2,binary,40,2,trial,14932367.0,14933867.0,1500.0,90,R,14933271,14933383,114,557.5,604.0,5096,left
21,2,binary,40,2,trial,14932367.0,14933867.0,1500.0,90,R,14933445,14933735,292,1430.6,511.8,5037,right
21,2,binary,40,2,postResponse,14932367.0,14933867.0,1500.0,90,R,14933761,14934199,440,1540.6,441.3,5075,right
21,2,binary,41,2,fixationCross,14936284.0,14937600.0,1316.0,91,R,14934273,14934367,96,1538.6,440.1,5154,right
21,2,binary,41,2,fixationCross,14936284.0,14937600.0,1316.0,91,R,14934555,14935543,990,1064.0,432.1,5865,NA
21,2,binary,41,2,fixationCross,14936284.0,14937600.0,1316.0,91,R,14935559,14935977,420,984.9,413.5,5843,NA
21,2,binary,41,2,trial,14936284.0,14937600.0,1316.0,91,R,14936143,14936445,304,980.6,492.0,6037,NA
21,2,binary,41,2,trial,14936284.0,14937600.0,1316.0,91,R,14936479,14936551,74,1159.1,501.9,6082,NA
21,2,binary,41,2,trial,14936284.0,14937600.0,1316.0,91,R,14936585,14936791,208,1384.1,501.6,5304,right
21,2,binary,41,2,trial,14936284.0,14937600.0,1316.0,91,R,14936857,14937115,260,525.6,491.1,5010,left
21,2,binary,41,2,trial,14936284.0,14937600.0,1316.0,91,R,14937135,14937305,172,460.4,520.9,4973,left
21,2,binary,41,2,postResponse,14936284.0,14937600.0,1316.0,91,R,14937375,14937943,570,1469.4,514.8,4764,right
21,2,binary,42,1,fixationCross,14939183.0,14940667.0,1484.0,92,R,14938043,14938069,28,1450.9,503.0,4950,right
21,2,binary,42,1,fixationCross,14939183.0,14940667.0,1484.0,92,R,14938279,14938643,366,1106.4,428.1,5734,NA
21,2,binary,42,1,trial,14939183.0,14940667.0,1484.0,92,R,14938667,14939365,700,940.4,441.5,5905,NA
21,2,binary,42,1,trial,14939183.0,14940667.0,1484.0,92,R,14939421,14939589,170,571.3,472.6,5911,left
21,2,binary,42,1,trial,14939183.0,14940667.0,1484.0,92,R,14939607,14939787,182,490.2,496.1,5379,left
21,2,binary,42,1,trial,14939183.0,14940667.0,1484.0,92,R,14939857,14940205,350,1435.5,460.5,5002,right
21,2,binary,42,1,trial,14939183.0,14940667.0,1484.0,92,R,14940283,14940671,390,511.8,536.5,5283,left
21,2,binary,42,1,postResponse,14939183.0,14940667.0,1484.0,92,R,14940747,14941001,256,1520.5,514.7,5482,right
21,2,binary,43,1,fixationCross,14942567.0,14943851.0,1284.0,93,R,14941075,14941091,18,1514.3,518.9,5617,right
21,2,binary,43,1,fixationCross,14942567.0,14943851.0,1284.0,93,R,14941131,14941335,206,1319.7,483.7,5854,right
21,2,binary,43,1,fixationCross,14942567.0,14943851.0,1284.0,93,R,14941383,14941893,512,1011.1,442.4,6413,NA
21,2,binary,43,1,fixationCross,14942567.0,14943851.0,1284.0,93,R,14941913,14942253,342,901.4,425.3,6595,NA
21,2,binary,43,1,trial,14942567.0,14943851.0,1284.0,93,R,14942275,14942707,434,938.6,469.3,6586,NA
21,2,binary,43,1,trial,14942567.0,14943851.0,1284.0,93,R,14942747,14942933,188,688.7,461.7,6695,left
21,2,binary,43,1,trial,14942567.0,14943851.0,1284.0,93,R,14942985,14943241,258,1317.9,486.0,5466,right
21,2,binary,43,1,trial,14942567.0,14943851.0,1284.0,93,R,14943257,14943401,146,1375.5,508.9,5227,right
21,2,binary,43,1,postResponse,14942567.0,14943851.0,1284.0,93,R,14943467,14944181,716,501.5,508.7,5585,left
21,2,binary,44,1,fixationCross,14949034.0,14950001.0,967.0,94,R,14944289,14944553,266,1273.2,373.0,5468,right
21,2,binary,44,1,fixationCross,14949034.0,14950001.0,967.0,94,R,14944595,14944925,332,996.3,383.3,6139,NA
