participantNo,block,task,blockTrial,response,trialStage,trialStartTime,trialFinishTime,rt,trial,eye,fixStart,fixEnd,fixLength,fixPosX,fixPosY,dilation,aoi
27,1,continuous,1,91,fixationCross,12465310.0,12469510.0,4200.0,1,R,12464411,12464589,180,1220.2,693.4,4965,right
27,1,continuous,1,91,fixationCross,12465310.0,12469510.0,4200.0,1,R,12464619,12464691,74,1003.3,735.1,5189,likertHorizontal
27,1,continuous,1,91,fixationCross,12465310.0,12469510.0,4200.0,1,R,12464797,12464895,100,984.8,830.3,5314,likertHorizontal
27,1,continuous,1,91,fixationCross,12465310.0,12469510.0,4200.0,1,R,12464939,12465029,92,921.6,379.4,5268,NA
27,1,continuous,1,91,trial,12465310.0,12469510.0,4200.0,1,R,12465061,12465533,474,960.8,523.1,5329,NA
27,1,continuous,1,91,trial,12465310.0,12469510.0,4200.0,1,R,12465575,12465645,72,606.6,593.9,5238,left
27,1,continuous,1,91,trial,12465310.0,12469510.0,4200.0,1,R,12465705,12465823,120,878.1,1047.9,5078,likertHorizontal
27,1,continuous,1,91,trial,12465310.0,12469510.0,4200.0,1,R,12465845,12465993,150,925.3,1003.6,4967,likertHorizontal
27,1,continuous,1,91,trial,12465310.0,12469510.0,4200.0,1,R,12466035,12466191,158,526.8,972.4,4921,NA
27,1,continuous,1,91,trial,12465310.0,12469510.0,4200.0,1,R,12466211,12466299,90,506.3,978.5,4819,NA
27,1,continuous,1,91,trial,12465310.0,12469510.0,4200.0,1,R,12466349,12466631,284,463.6,401.1,4590,left
27,1,continuous,1,91,trial,12465310.0,12469510.0,4200.0,1,R,12466713,12466831,120,1349.6,469.6,4341,right
27,1,continuous,1,91,trial,12465310.0,12469510.0,4200.0,1,R,12466853,12467097,246,1280.2,510.8,4243,right
27,1,continuous,1,91,trial,12465310.0,12469510.0,4200.0,1,R,12467113,12468029,918,1298.3,553.1,4212,right
27,1,continuous,1,91,trial,12465310.0,12469510.0,4200.0,1,R,12468083,12468439,358,1413.1,1000.1,4626,NA
27,1,continuous,1,91,trial,12465310.0,12469510.0,4200.0,1,R,12468457,12468725,270,1361.0,987.6,4606,NA
27,1,continuous,1,91,trial,12465310.0,12469510.0,4200.0,1,R,12468773,12469027,256,1330.1,578.9,4478,right
27,1,continuous,1,91,trial,12465310.0,12469510.0,4200.0,1,R,12469043,12469311,270,1380.7,561.3,4258,right
27,1,continuous,1,91,postResponse,12465310.0,12469510.0,4200.0,1,R,12469331,12469833,504,1334.6,556.7,4142,right
27,1,continuous,2,91,fixationCross,12470626.0,12473743.0,3117.0,2,R,12469975,12470041,68,1124.0,499.9,4244,NA
27,1,continuous,2,91,fixationCross,12470626.0,12473743.0,3117.0,2,R,12470159,12470319,162,861.0,409.6,4490,NA
27,1,continuous,2,91,trial,12470626.0,12473743.0,3117.0,2,R,12470353,12470887,536,948.4,549.2,4678,NA
27,1,continuous,2,91,trial,12470626.0,12473743.0,3117.0,2,R,12470941,12471207,268,543.5,484.3,4415,left
27,1,continuous,2,91,trial,12470626.0,12473743.0,3117.0,2,R,12471265,12471491,228,1335.2,522.4,4283,right
27,1,continuous,2,91,trial,12470626.0,12473743.0,3117.0,2,R,12471507,12473475,1970,1340.2,567.8,4384,right
27,1,continuous,2,91,trial,12470626.0,12473743.0,3117.0,2,R,12473487,12473905,420,1337.6,551.6,4413,right
27,1,continuous,3,82,fixationCross,12474660.0,12478126.0,3466.0,3,R,12474167,12474201,36,661.8,481.9,4386,left
27,1,continuous,3,82,fixationCross,12474660.0,12478126.0,3466.0,3,R,12474243,12474605,364,928.1,499.1,4482,NA
27,1,continuous,3,82,trial,12474660.0,12478126.0,3466.0,3,R,12474621,12475111,492,955.2,533.5,4530,NA
27,1,continuous,3,82,trial,12474660.0,12478126.0,3466.0,3,R,12475161,12475519,360,485.1,496.9,4521,left
27,1,continuous,3,82,trial,12474660.0,12478126.0,3466.0,3,R,12475533,12475733,202,512.6,528.8,4358,left
27,1,continuous,3,82,trial,12474660.0,12478126.0,3466.0,3,R,12475797,12476081,286,1420.8,526.6,4034,right
27,1,continuous,3,82,trial,12474660.0,12478126.0,3466.0,3,R,12476145,12476351,208,435.0,497.0,4177,left
27,1,continuous,3,82,trial,12474660.0,12478126.0,3466.0,3,R,12476509,12477005,498,1381.3,542.1,3986,right
27,1,continuous,3,82,trial,12474660.0,12478126.0,3466.0,3,R,12477029,12477295,268,1413.8,528.6,4033,right
27,1,continuous,3,82,trial,12474660.0,12478126.0,3466.0,3,R,12477315,12477411,98,1396.8,552.9,4014,right
27,1,continuous,3,82,trial,12474660.0,12478126.0,3466.0,3,R,12477469,12477783,316,600.5,495.0,4149,left
27,1,continuous,3,82,trial,12474660.0,12478126.0,3466.0,3,R,12477809,12477927,120,455.5,500.6,4122,left
27,1,continuous,3,82,postResponse,12474660.0,12478126.0,3466.0,3,R,12477985,12478467,484,1034.4,753.7,4034,likertHorizontal
27,1,continuous,4,91,fixationCross,12479077.0,12482327.0,3250.0,4,R,12478567,12479011,446,926.5,518.4,4245,NA
27,1,continuous,4,91,trial,12479077.0,12482327.0,3250.0,4,R,12479031,12479287,258,952.8,529.0,4436,NA
27,1,continuous,4,91,trial,12479077.0,12482327.0,3250.0,4,R,12479315,12479611,298,1228.3,528.2,4281,right
27,1,continuous,4,91,trial,12479077.0,12482327.0,3250.0,4,R,12479671,12479807,138,486.8,477.4,4207,left
27,1,continuous,4,91,trial,12479077.0,12482327.0,3250.0,4,R,12479831,12480185,356,461.2,511.9,3980,left
27,1,continuous,4,91,trial,12479077.0,12482327.0,3250.0,4,R,12480209,12480341,134,527.1,441.0,3777,left
27,1,continuous,4,91,trial,12479077.0,12482327.0,3250.0,4,R,12480357,12480525,170,545.7,411.2,3713,left
27,1,continuous,4,91,trial,12479077.0,12482327.0,3250.0,4,R,12480587,12480707,122,1459.5,447.7,3484,right
27,1,continuous,4,91,trial,12479077.0,12482327.0,3250.0,4,R,12480733,12481271,540,1628.0,417.2,3383,right
27,1,continuous,4,91,trial,12479077.0,12482327.0,3250.0,4,R,12481317,12481481,166,1246.8,562.7,3509,right
27,1,continuous,4,91,trial,12479077.0,12482327.0,3250.0,4,R,12481525,12481659,136,1335.4,873.4,3657,NA
27,1,continuous,4,91,trial,12479077.0,12482327.0,3250.0,4,R,12481679,12481911,234,1343.0,941.6,3839,NA
27,1,continuous,4,91,trial,12479077.0,12482327.0,3250.0,4,R,12481937,12482243,308,1443.6,969.3,4076,NA
27,1,continuous,4,91,trial,12479077.0,12482327.0,3250.0,4,R,12482275,12482503,230,1359.1,864.1,4223,NA
27,1,continuous,4,91,postResponse,12479077.0,12482327.0,3250.0,4,R,12482551,12482683,134,1148.9,529.5,4135,NA
27,1,continuous,5,8,fixationCross,12483444.0,12486460.0,3016.0,5,R,12482757,12483203,448,972.9,439.4,4123,NA
27,1,continuous,5,8,fixationCross,12483444.0,12486460.0,3016.0,5,R,12483227,12483423,198,939.2,498.5,4251,NA
27,1,continuous,5,8,trial,12483444.0,12486460.0,3016.0,5,R,12483555,12483771,218,939.0,494.6,4248,NA
27,1,continuous,5,8,trial,12483444.0,12486460.0,3016.0,5,R,12483817,12484011,196,519.8,465.7,4289,left
27,1,continuous,5,8,trial,12483444.0,12486460.0,3016.0,5,R,12484069,12484309,242,1387.5,507.6,3845,right
27,1,continuous,5,8,trial,12483444.0,12486460.0,3016.0,5,R,12484329,12484445,118,1425.2,513.7,3601,right
27,1,continuous,5,8,trial,12483444.0,12486460.0,3016.0,5,R,12484509,12484765,258,497.0,457.7,3618,left
27,1,continuous,5,8,trial,12483444.0,12486460.0,3016.0,5,R,12484787,12485159,374,442.9,399.9,3542,left
27,1,continuous,5,8,trial,12483444.0,12486460.0,3016.0,5,R,12485211,12485341,132,508.4,824.8,3705,NA
27,1,continuous,5,8,trial,12483444.0,12486460.0,3016.0,5,R,12485371,12485907,538,548.1,952.6,3931,NA
27,1,continuous,5,8,trial,12483444.0,12486460.0,3016.0,5,R,12485959,12486111,154,545.2,506.6,4163,left
27,1,continuous,5,8,trial,12483444.0,12486460.0,3016.0,5,R,12486157,12486695,540,893.8,444.4,3967,NA
27,1,continuous,5,8,postResponse,12483444.0,12486460.0,3016.0,5,R,12486737,12486797,62,1163.0,514.4,3816,NA
27,1,continuous,6,8,fixationCross,12487377.0,12490477.0,3100.0,6,R,12486897,12487035,140,1163.4,519.1,3909,NA
27,1,continuous,6,8,trial,12487377.0,12490477.0,3100.0,6,R,12487061,12487561,502,952.8,472.9,4253,NA
27,1,continuous,6,8,trial,12487377.0,12490477.0,3100.0,6,R,12487609,12487759,152,1415.8,498.2,4329,right
27,1,continuous,6,8,trial,12487377.0,12490477.0,3100.0,6,R,12487819,12488005,188,482.3,470.9,4297,left
27,1,continuous,6,8,trial,12487377.0,12490477.0,3100.0,6,R,12488041,12488317,278,590.0,486.9,4139,left
27,1,continuous,6,8,trial,12487377.0,12490477.0,3100.0,6,R,12488343,12488677,336,387.0,577.2,4228,left
27,1,continuous,6,8,trial,12487377.0,12490477.0,3100.0,6,R,12488709,12488921,214,380.5,576.4,4323,left
27,1,continuous,6,8,trial,12487377.0,12490477.0,3100.0,6,R,12488957,12489169,214,385.4,569.7,4377,left
27,1,continuous,6,8,trial,12487377.0,12490477.0,3100.0,6,R,12489199,12489421,224,365.2,597.9,4443,left
27,1,continuous,6,8,trial,12487377.0,12490477.0,3100.0,6,R,12489453,12489591,140,423.6,594.8,4409,left
27,1,continuous,6,8,trial,12487377.0,12490477.0,3100.0,6,R,12489639,12490075,438,551.2,952.4,4579,NA
27,1,continuous,6,8,trial,12487377.0,12490477.0,3100.0,6,R,12490101,12490359,260,497.2,965.5,4596,NA
27,1,continuous,6,8,trial,12487377.0,12490477.0,3100.0,6,R,12490381,12490625,246,535.9,949.2,4719,NA
27,1,continuous,6,8,postResponse,12487377.0,12490477.0,3100.0,6,R,12490673,12490813,142,631.2,532.7,4625,left
27,1,continuous,7,91,fixationCross,12491560.0,12494710.0,3150.0,7,R,12490889,12491247,360,780.1,443.2,4622,NA
27,1,continuous,7,91,fixationCross,12491560.0,12494710.0,3150.0,7,R,12491287,12491483,198,936.3,513.3,4654,NA
27,1,continuous,7,91,trial,12491560.0,12494710.0,3150.0,7,R,12491507,12491833,328,1039.0,471.5,4558,NA
27,1,continuous,7,91,trial,12491560.0,12494710.0,3150.0,7,R,12491859,12491975,118,1246.3,479.6,4484,right
27,1,continuous,7,91,trial,12491560.0,12494710.0,3150.0,7,R,12492041,12492411,372,489.4,514.3,4407,left
27,1,continuous,7,91,trial,12491560.0,12494710.0,3150.0,7,R,12492471,12492627,158,1338.2,654.8,4036,right
27,1,continuous,7,91,trial,12491560.0,12494710.0,3150.0,7,R,12492651,12492767,118,1388.9,690.6,4016,right
27,1,continuous,7,91,trial,12491560.0,12494710.0,3150.0,7,R,12492809,12492937,130,1434.2,459.3,3928,right
27,1,continuous,7,91,trial,12491560.0,12494710.0,3150.0,7,R,12493001,12493421,422,481.2,478.8,3937,left
27,1,continuous,7,91,trial,12491560.0,12494710.0,3150.0,7,R,12493469,12493837,370,529.9,801.1,3948,NA
27,1,continuous,7,91,trial,12491560.0,12494710.0,3150.0,7,R,12493891,12494651,762,1285.4,772.1,4248,NA
27,1,continuous,7,91,trial,12491560.0,12494710.0,3150.0,7,R,12494787,12494947,162,1260.7,558.0,4491,right
27,1,continuous,7,91,postResponse,12491560.0,12494710.0,3150.0,7,R,12494989,12495059,72,939.0,476.8,4568,NA
27,1,continuous,8,5,fixationCross,12495827.0,12498277.0,2450.0,8,R,12495133,12495199,68,932.8,482.5,4560,NA
27,1,continuous,8,5,fixationCross,12495827.0,12498277.0,2450.0,8,R,12495225,12495513,290,766.6,444.3,4472,NA
27,1,continuous,8,5,trial,12495827.0,12498277.0,2450.0,8,R,12495533,12496037,506,880.8,490.2,4433,NA
27,1,continuous,8,5,trial,12495827.0,12498277.0,2450.0,8,R,12496085,12496409,326,1377.8,552.4,4164,right
27,1,continuous,8,5,trial,12495827.0,12498277.0,2450.0,8,R,12496427,12496599,174,1408.7,552.8,3931,right
27,1,continuous,8,5,trial,12495827.0,12498277.0,2450.0,8,R,12496663,12497073,412,561.8,500.3,3921,left
27,1,continuous,8,5,trial,12495827.0,12498277.0,2450.0,8,R,12497125,12497295,172,724.6,900.6,3816,NA
27,1,continuous,8,5,trial,12495827.0,12498277.0,2450.0,8,R,12497355,12497639,286,1421.0,592.7,3526,right
27,1,continuous,8,5,trial,12495827.0,12498277.0,2450.0,8,R,12497703,12498037,336,510.2,805.2,3822,NA
27,1,continuous,8,5,trial,12495827.0,12498277.0,2450.0,8,R,12498071,12498537,468,432.9,522.7,3999,left
27,1,continuous,9,96,fixationCross,12499494.0,12502077.0,2583.0,9,R,12498685,12498817,134,598.3,465.2,3860,left
27,1,continuous,9,96,fixationCross,12499494.0,12502077.0,2583.0,9,R,12498841,12499193,354,806.9,466.4,4006,NA
27,1,continuous,9,96,trial,12499494.0,12502077.0,2583.0,9,R,12499225,12499697,474,941.7,492.1,4322,NA
27,1,continuous,9,96,trial,12499494.0,12502077.0,2583.0,9,R,12499741,12499923,184,583.9,509.6,4500,left
27,1,continuous,9,96,trial,12499494.0,12502077.0,2583.0,9,R,12499943,12500199,258,570.0,475.2,4396,left
27,1,continuous,9,96,trial,12499494.0,12502077.0,2583.0,9,R,12500239,12500429,192,317.6,566.1,4361,left
27,1,continuous,9,96,trial,12499494.0,12502077.0,2583.0,9,R,12500447,12500649,204,332.6,521.1,4368,left
27,1,continuous,9,96,trial,12499494.0,12502077.0,2583.0,9,R,12500721,12501063,344,1405.0,558.0,4314,right
27,1,continuous,9,96,trial,12499494.0,12502077.0,2583.0,9,R,12501087,12501443,358,1472.7,518.5,4161,right
27,1,continuous,9,96,trial,12499494.0,12502077.0,2583.0,9,R,12501459,12501641,184,1419.8,510.5,4147,right
27,1,continuous,9,96,trial,12499494.0,12502077.0,2583.0,9,R,12501663,12502273,612,1474.7,492.1,4163,right
27,1,continuous,10,1,fixationCross,12503210.0,12505960.0,2750.0,10,R,12502513,12502575,64,709.7,497.8,4266,left
27,1,continuous,10,1,fixationCross,12503210.0,12505960.0,2750.0,10,R,12502605,12502911,308,851.6,502.7,4315,NA
27,1,continuous,10,1,trial,12503210.0,12505960.0,2750.0,10,R,12502949,12503429,482,950.9,537.0,4354,NA
27,1,continuous,10,1,trial,12503210.0,12505960.0,2750.0,10,R,12503473,12503789,318,588.4,560.4,4277,left
27,1,continuous,10,1,trial,12503210.0,12505960.0,2750.0,10,R,12503847,12504257,412,1353.2,514.6,3801,right
27,1,continuous,10,1,trial,12503210.0,12505960.0,2750.0,10,R,12504319,12505419,1102,603.1,532.2,3952,left
27,1,continuous,10,1,trial,12503210.0,12505960.0,2750.0,10,R,12505475,12506157,684,512.5,974.9,4441,NA
27,1,continuous,10,1,postResponse,12503210.0,12505960.0,2750.0,10,R,12506213,12506295,84,911.7,548.4,4396,NA
27,1,continuous,11,1,fixationCross,12506860.0,12510494.0,3634.0,11,R,12506395,12506713,320,914.3,557.8,4483,NA
27,1,continuous,11,1,fixationCross,12506860.0,12510494.0,3634.0,11,R,12506745,12506781,38,990.0,554.5,4496,NA
27,1,continuous,11,1,trial,12506860.0,12510494.0,3634.0,11,R,12506813,12507061,250,941.4,568.8,4510,NA
27,1,continuous,11,1,trial,12506860.0,12510494.0,3634.0,11,R,12507107,12507323,218,525.3,547.8,4537,left
27,1,continuous,11,1,trial,12506860.0,12510494.0,3634.0,11,R,12507339,12507531,194,559.2,499.1,4355,left
27,1,continuous,11,1,trial,12506860.0,12510494.0,3634.0,11,R,12507587,12507839,254,1312.6,552.4,3961,right
27,1,continuous,11,1,trial,12506860.0,12510494.0,3634.0,11,R,12507863,12508219,358,1404.3,567.4,3825,right
27,1,continuous,11,1,trial,12506860.0,12510494.0,3634.0,11,R,12508229,12508421,194,1420.3,594.3,3769,right
27,1,continuous,11,1,trial,12506860.0,12510494.0,3634.0,11,R,12508489,12508851,364,425.9,526.2,3878,left
27,1,continuous,11,1,trial,12506860.0,12510494.0,3634.0,11,R,12508873,12509141,270,532.1,461.4,3776,left
27,1,continuous,11,1,trial,12506860.0,12510494.0,3634.0,11,R,12509209,12509499,292,1535.8,629.4,3549,right
27,1,continuous,11,1,trial,12506860.0,12510494.0,3634.0,11,R,12509513,12509859,348,1521.6,593.6,3703,right
27,1,continuous,11,1,trial,12506860.0,12510494.0,3634.0,11,R,12509929,12510711,784,489.4,624.3,4120,left
27,1,continuous,11,1,postResponse,12506860.0,12510494.0,3634.0,11,R,12510743,12510829,88,774.2,551.8,4269,NA
27,1,continuous,12,96,fixationCross,12511460.0,12514460.0,3000.0,12,R,12510905,12511049,146,781.5,555.7,4272,NA
27,1,continuous,12,96,fixationCross,12511460.0,12514460.0,3000.0,12,R,12511075,12511347,274,910.1,470.7,4356,NA
27,1,continuous,12,96,trial,12511460.0,12514460.0,3000.0,12,R,12511373,12511697,326,938.1,543.3,4518,NA
27,1,continuous,12,96,trial,12511460.0,12514460.0,3000.0,12,R,12511745,12511961,218,478.8,595.0,4381,left
27,1,continuous,12,96,trial,12511460.0,12514460.0,3000.0,12,R,12511985,12512299,316,566.3,593.9,4080,left
27,1,continuous,12,96,trial,12511460.0,12514460.0,3000.0,12,R,12512323,12512701,380,486.5,511.5,3945,left
27,1,continuous,12,96,trial,12511460.0,12514460.0,3000.0,12,R,12512767,12512955,190,1510.3,528.6,3680,right
27,1,continuous,12,96,trial,12511460.0,12514460.0,3000.0,12,R,12512973,12513149,178,1446.3,525.8,3667,right
27,1,continuous,12,96,trial,12511460.0,12514460.0,3000.0,12,R,12513161,12514255,1096,1423.2,507.9,3577,right
27,1,continuous,12,96,trial,12511460.0,12514460.0,3000.0,12,R,12514291,12514655,366,1326.7,704.2,3871,right
27,1,continuous,12,96,postResponse,12511460.0,12514460.0,3000.0,12,R,12514701,12514797,98,967.6,580.3,4047,NA
27,1,continuous,13,15,fixationCross,12515360.0,12519960.0,4600.0,13,R,12514873,12515071,200,965.0,584.3,4111,NA
27,1,continuous,13,15,trial,12515360.0,12519960.0,4600.0,13,R,12515107,12515533,428,922.4,470.1,4185,NA
27,1,continuous,13,15,trial,12515360.0,12519960.0,4600.0,13,R,12515577,12515713,138,555.1,473.1,4234,left
27,1,continuous,13,15,trial,12515360.0,12519960.0,4600.0,13,R,12515739,12516121,384,485.8,515.6,3946,left
27,1,continuous,13,15,trial,12515360.0,12519960.0,4600.0,13,R,12516183,12516319,138,1346.8,478.7,3527,right
27,1,continuous,13,15,trial,12515360.0,12519960.0,4600.0,13,R,12516337,12516581,246,1383.4,428.4,3467,right
27,1,continuous,13,15,trial,12515360.0,12519960.0,4600.0,13,R,12516771,12517697,928,1379.3,438.6,3826,right
27,1,continuous,13,15,trial,12515360.0,12519960.0,4600.0,13,R,12517721,12517821,102,1400.0,436.4,3884,right
27,1,continuous,13,15,trial,12515360.0,12519960.0,4600.0,13,R,12517947,12518077,132,1370.8,429.3,3862,right
27,1,continuous,13,15,trial,12515360.0,12519960.0,4600.0,13,R,12518217,12518743,528,1371.7,442.8,3920,right
27,1,continuous,13,15,trial,12515360.0,12519960.0,4600.0,13,R,12518763,12518941,180,1350.5,459.9,3710,right
27,1,continuous,13,15,trial,12515360.0,12519960.0,4600.0,13,R,12518965,12519747,784,1383.0,431.9,3759,right
27,1,continuous,13,15,trial,12515360.0,12519960.0,4600.0,13,R,12519813,12520061,250,491.4,483.1,4097,left
27,1,continuous,13,15,trial,12515360.0,12519960.0,4600.0,13,R,12520083,12520267,186,478.4,524.8,4049,left
27,1,continuous,14,1,fixationCross,12521177.0,12523277.0,2100.0,14,R,12520369,12520619,252,728.3,466.3,3859,left
27,1,continuous,14,1,fixationCross,12521177.0,12523277.0,2100.0,14,R,12520647,12520855,210,885.5,453.7,4001,NA
27,1,continuous,14,1,trial,12521177.0,12523277.0,2100.0,14,R,12520881,12521383,504,919.7,518.9,4278,NA
27,1,continuous,14,1,trial,12521177.0,12523277.0,2100.0,14,R,12521435,12521921,488,1410.7,520.7,4075,right
27,1,continuous,14,1,trial,12521177.0,12523277.0,2100.0,14,R,12521989,12522199,212,483.3,482.2,4021,left
27,1,continuous,14,1,trial,12521177.0,12523277.0,2100.0,14,R,12522241,12522403,164,345.6,613.6,4006,left
27,1,continuous,14,1,trial,12521177.0,12523277.0,2100.0,14,R,12522427,12522571,146,287.2,660.3,3976,left
27,1,continuous,14,1,trial,12521177.0,12523277.0,2100.0,14,R,12522621,12522817,198,596.5,1008.5,4099,NA
27,1,continuous,14,1,trial,12521177.0,12523277.0,2100.0,14,R,12522833,12523199,368,553.3,974.5,4142,NA
27,1,continuous,14,1,trial,12521177.0,12523277.0,2100.0,14,R,12523215,12523445,232,495.0,967.8,4331,NA
27,1,continuous,14,1,postResponse,12521177.0,12523277.0,2100.0,14,R,12523499,12523613,116,860.6,528.0,4336,NA
27,1,continuous,15,53,fixationCross,12524210.0,12527294.0,3084.0,15,R,12523713,12523823,112,859.5,530.9,4335,NA
27,1,continuous,15,53,fixationCross,12524210.0,12527294.0,3084.0,15,R,12523849,12524103,256,972.0,468.9,4283,NA
27,1,continuous,15,53,trial,12524210.0,12527294.0,3084.0,15,R,12524127,12524409,284,944.0,519.6,4278,NA
27,1,continuous,15,53,trial,12524210.0,12527294.0,3084.0,15,R,12524453,12524655,204,582.6,542.7,4300,left
27,1,continuous,15,53,trial,12524210.0,12527294.0,3084.0,15,R,12524719,12524861,144,1492.4,534.5,3875,right
27,1,continuous,15,53,trial,12524210.0,12527294.0,3084.0,15,R,12524881,12525245,366,1525.5,566.3,3683,right
27,1,continuous,15,53,trial,12524210.0,12527294.0,3084.0,15,R,12525295,12525477,184,1194.7,869.4,3779,NA
27,1,continuous,15,53,trial,12524210.0,12527294.0,3084.0,15,R,12525499,12525585,88,1105.2,923.5,3834,likertHorizontal
27,1,continuous,15,53,trial,12524210.0,12527294.0,3084.0,15,R,12525639,12525925,288,555.8,560.8,3996,left
27,1,continuous,15,53,trial,12524210.0,12527294.0,3084.0,15,R,12525951,12526135,186,467.5,568.9,4196,left
27,1,continuous,15,53,trial,12524210.0,12527294.0,3084.0,15,R,12526185,12526327,144,521.3,923.1,4328,NA
27,1,continuous,15,53,trial,12524210.0,12527294.0,3084.0,15,R,12526353,12526537,186,575.6,976.6,4290,NA
27,1,continuous,15,53,trial,12524210.0,12527294.0,3084.0,15,R,12526565,12526755,192,781.0,958.0,4262,likertHorizontal
27,1,continuous,15,53,trial,12524210.0,12527294.0,3084.0,15,R,12526789,12526831,44,910.0,968.5,4268,likertHorizontal
27,1,continuous,15,53,trial,12524210.0,12527294.0,3084.0,15,R,12526863,12526983,122,831.1,972.6,4340,likertHorizontal
27,1,continuous,15,53,trial,12524210.0,12527294.0,3084.0,15,R,12527017,12527559,544,975.6,963.8,4598,likertHorizontal
27,1,continuous,15,53,postResponse,12524210.0,12527294.0,3084.0,15,R,12527611,12527645,36,873.9,519.7,4693,NA
27,1,continuous,16,80,fixationCross,12528244.0,12531410.0,3166.0,16,R,12527745,12528203,460,872.1,504.0,4792,NA
27,1,continuous,16,80,trial,12528244.0,12531410.0,3166.0,16,R,12528223,12528469,248,931.6,493.4,4737,NA
27,1,continuous,16,80,trial,12528244.0,12531410.0,3166.0,16,R,12528515,12528755,242,530.0,472.9,4670,left
27,1,continuous,16,80,trial,12528244.0,12531410.0,3166.0,16,R,12528779,12528905,128,483.4,504.2,4431,left
27,1,continuous,16,80,trial,12528244.0,12531410.0,3166.0,16,R,12528969,12529217,250,1420.3,560.9,3989,right
27,1,continuous,16,80,trial,12528244.0,12531410.0,3166.0,16,R,12529247,12529385,140,1493.8,577.0,3864,right
27,1,continuous,16,80,trial,12528244.0,12531410.0,3166.0,16,R,12529415,12529753,340,1512.6,693.5,3885,right
27,1,continuous,16,80,trial,12528244.0,12531410.0,3166.0,16,R,12529787,12529971,186,1368.2,947.2,4016,NA
27,1,continuous,16,80,trial,12528244.0,12531410.0,3166.0,16,R,12530041,12530467,428,501.0,483.5,4176,left
27,1,continuous,16,80,trial,12528244.0,12531410.0,3166.0,16,R,12530523,12530743,222,550.7,1015.3,4156,NA
27,1,continuous,16,80,trial,12528244.0,12531410.0,3166.0,16,R,12530757,12530831,76,533.4,972.6,4106,NA
27,1,continuous,16,80,trial,12528244.0,12531410.0,3166.0,16,R,12530879,12531113,236,1025.2,932.2,4029,likertHorizontal
27,1,continuous,16,80,trial,12528244.0,12531410.0,3166.0,16,R,12531145,12531599,456,1226.9,836.1,4221,NA
27,1,continuous,17,6,fixationCross,12533161.0,12535861.0,2700.0,17,R,12531845,12532053,210,756.8,391.5,4365,NA
27,1,continuous,17,6,fixationCross,12533161.0,12535861.0,2700.0,17,R,12532075,12532455,382,847.2,425.4,4365,NA
27,1,continuous,17,6,fixationCross,12533161.0,12535861.0,2700.0,17,R,12532477,12532869,394,844.1,456.9,4344,NA
27,1,continuous,17,6,trial,12533161.0,12535861.0,2700.0,17,R,12532887,12533343,458,918.6,475.2,4371,NA
27,1,continuous,17,6,trial,12533161.0,12535861.0,2700.0,17,R,12533389,12533649,262,514.5,544.0,4442,left
27,1,continuous,17,6,trial,12533161.0,12535861.0,2700.0,17,R,12533711,12533905,196,1427.9,575.8,3953,right
27,1,continuous,17,6,trial,12533161.0,12535861.0,2700.0,17,R,12533933,12534101,170,1432.0,437.0,3809,right
27,1,continuous,17,6,trial,12533161.0,12535861.0,2700.0,17,R,12534111,12534349,240,1434.6,417.6,3710,right
27,1,continuous,17,6,trial,12533161.0,12535861.0,2700.0,17,R,12534411,12534577,168,542.7,513.3,3833,left
27,1,continuous,17,6,trial,12533161.0,12535861.0,2700.0,17,R,12534609,12535021,414,448.0,493.1,3784,left
27,1,continuous,17,6,trial,12533161.0,12535861.0,2700.0,17,R,12535075,12535187,114,550.5,888.7,3911,NA
27,1,continuous,17,6,trial,12533161.0,12535861.0,2700.0,17,R,12535211,12535321,112,513.9,952.0,3983,NA
27,1,continuous,17,6,trial,12533161.0,12535861.0,2700.0,17,R,12535371,12536111,742,472.1,532.6,4161,left
27,1,continuous,18,76,fixationCross,12537110.0,12539961.0,2851.0,18,R,12536273,12536433,162,751.5,478.2,4018,NA
27,1,continuous,18,76,fixationCross,12537110.0,12539961.0,2851.0,18,R,12536461,12536803,344,878.9,439.0,4061,NA
27,1,continuous,18,76,fixationCross,12537110.0,12539961.0,2851.0,18,R,12536833,12536993,162,962.3,468.2,4055,NA
27,1,continuous,18,76,trial,12537110.0,12539961.0,2851.0,18,R,12537015,12537321,308,933.9,488.5,3980,NA
27,1,continuous,18,76,trial,12537110.0,12539961.0,2851.0,18,R,12537367,12537541,176,1363.7,489.4,3878,right
27,1,continuous,18,76,trial,12537110.0,12539961.0,2851.0,18,R,12537563,12537749,188,1398.6,516.6,3805,right
27,1,continuous,18,76,trial,12537110.0,12539961.0,2851.0,18,R,12537763,12537847,86,1371.5,541.3,3843,right
27,1,continuous,18,76,trial,12537110.0,12539961.0,2851.0,18,R,12537911,12538325,416,485.8,564.0,4041,left
27,1,continuous,18,76,trial,12537110.0,12539961.0,2851.0,18,R,12538383,12538645,264,505.4,959.5,4010,NA
27,1,continuous,18,76,trial,12537110.0,12539961.0,2851.0,18,R,12538665,12538861,198,541.3,969.4,3947,NA
27,1,continuous,18,76,trial,12537110.0,12539961.0,2851.0,18,R,12538917,12539151,236,1116.6,887.3,3948,likertHorizontal
27,1,continuous,18,76,trial,12537110.0,12539961.0,2851.0,18,R,12539177,12539643,468,1033.9,933.9,4289,likertHorizontal
27,1,continuous,18,76,trial,12537110.0,12539961.0,2851.0,18,R,12539673,12539981,310,1249.3,945.7,4446,NA
27,1,continuous,18,76,trial,12537110.0,12539961.0,2851.0,18,R,12540003,12540181,180,1207.1,961.9,4546,NA
27,1,continuous,19,13,fixationCross,12541678.0,12545977.0,4299.0,19,R,12540371,12540461,92,750.9,396.1,4612,NA
27,1,continuous,19,13,fixationCross,12541678.0,12545977.0,4299.0,19,R,12540485,12540987,504,847.4,433.6,4494,NA
27,1,continuous,19,13,fixationCross,12541678.0,12545977.0,4299.0,19,R,12541011,12541279,270,880.5,458.4,4239,NA
27,1,continuous,19,13,fixationCross,12541678.0,12545977.0,4299.0,19,R,12541301,12541549,250,872.4,488.3,4326,NA
27,1,continuous,19,13,trial,12541678.0,12545977.0,4299.0,19,R,12541563,12541865,304,908.9,475.0,4298,NA
27,1,continuous,19,13,trial,12541678.0,12545977.0,4299.0,19,R,12541911,12542069,160,512.3,497.4,4341,left
27,1,continuous,19,13,trial,12541678.0,12545977.0,4299.0,19,R,12542093,12542197,106,486.5,599.0,4308,left
27,1,continuous,19,13,trial,12541678.0,12545977.0,4299.0,19,R,12542217,12542323,108,476.4,671.6,4297,left
27,1,continuous,19,13,trial,12541678.0,12545977.0,4299.0,19,R,12542385,12542597,214,1418.0,556.3,4032,right
27,1,continuous,19,13,trial,12541678.0,12545977.0,4299.0,19,R,12542605,12542763,160,1403.2,537.4,4055,right
27,1,continuous,19,13,trial,12541678.0,12545977.0,4299.0,19,R,12542927,12543201,276,1413.7,513.3,3978,right
27,1,continuous,19,13,trial,12541678.0,12545977.0,4299.0,19,R,12543349,12543591,244,1397.6,516.7,4214,right
27,1,continuous,19,13,trial,12541678.0,12545977.0,4299.0,19,R,12543611,12543841,232,1385.3,529.8,4282,right
27,1,continuous,19,13,trial,12541678.0,12545977.0,4299.0,19,R,12543877,12544169,294,1453.1,530.5,4075,right
27,1,continuous,19,13,trial,12541678.0,12545977.0,4299.0,19,R,12544213,12544303,92,1263.8,768.9,4100,NA
27,1,continuous,19,13,trial,12541678.0,12545977.0,4299.0,19,R,12544367,12544561,196,513.8,524.8,4249,left
27,1,continuous,19,13,trial,12541678.0,12545977.0,4299.0,19,R,12544591,12544731,142,500.9,662.3,4383,left
27,1,continuous,19,13,trial,12541678.0,12545977.0,4299.0,19,R,12544747,12544877,132,488.7,706.8,4439,left
27,1,continuous,19,13,trial,12541678.0,12545977.0,4299.0,19,R,12544935,12545127,194,1254.5,922.1,4340,NA
27,1,continuous,19,13,trial,12541678.0,12545977.0,4299.0,19,R,12545153,12545473,322,1203.8,957.3,4323,NA
27,1,continuous,19,13,trial,12541678.0,12545977.0,4299.0,19,R,12545495,12545659,166,1082.9,961.6,4461,likertHorizontal
27,1,continuous,19,13,trial,12541678.0,12545977.0,4299.0,19,R,12545687,12545839,154,906.8,965.8,4615,likertHorizontal
27,1,continuous,19,13,trial,12541678.0,12545977.0,4299.0,19,R,12545867,12546211,346,628.6,962.6,4847,NA
27,1,continuous,19,13,postResponse,12541678.0,12545977.0,4299.0,19,R,12546265,12546311,48,954.7,460.0,4748,NA
27,1,continuous,20,3,fixationCross,12546877.0,12550327.0,3450.0,20,R,12546387,12546661,276,955.9,467.6,4748,NA
27,1,continuous,20,3,fixationCross,12546877.0,12550327.0,3450.0,20,R,12546677,12546869,194,935.5,500.6,4674,NA
27,1,continuous,20,3,trial,12546877.0,12550327.0,3450.0,20,R,12546885,12547115,232,944.2,550.4,4501,NA
27,1,continuous,20,3,trial,12546877.0,12550327.0,3450.0,20,R,12547159,12547357,200,541.2,540.1,4409,left
27,1,continuous,20,3,trial,12546877.0,12550327.0,3450.0,20,R,12547379,12547583,206,489.8,451.0,4257,left
27,1,continuous,20,3,trial,12546877.0,12550327.0,3450.0,20,R,12547607,12547793,188,447.7,490.0,4049,left
27,1,continuous,20,3,trial,12546877.0,12550327.0,3450.0,20,R,12547905,12548149,246,474.5,488.0,3980,left
27,1,continuous,20,3,trial,12546877.0,12550327.0,3450.0,20,R,12548219,12548429,212,1374.0,517.1,3874,right
27,1,continuous,20,3,trial,12546877.0,12550327.0,3450.0,20,R,12548443,12549079,638,1340.0,538.8,3768,right
27,1,continuous,20,3,trial,12546877.0,12550327.0,3450.0,20,R,12549141,12549541,402,472.8,537.1,4005,left
27,1,continuous,20,3,trial,12546877.0,12550327.0,3450.0,20,R,12549563,12549861,300,504.0,506.5,3918,left
27,1,continuous,20,3,trial,12546877.0,12550327.0,3450.0,20,R,12549913,12550113,202,518.9,834.6,3901,NA
27,1,continuous,20,3,trial,12546877.0,12550327.0,3450.0,20,R,12550153,12550563,412,399.0,665.7,4051,left
27,1,continuous,20,3,postResponse,12546877.0,12550327.0,3450.0,20,R,12550607,12550663,58,655.8,553.3,4133,left
27,1,continuous,21,91,fixationCross,12551711.0,12554060.0,2349.0,21,R,12550737,12550779,44,659.0,553.8,4074,left
27,1,continuous,21,91,fixationCross,12551711.0,12554060.0,2349.0,21,R,12550801,12551129,330,738.2,504.6,4070,NA
27,1,continuous,21,91,fixationCross,12551711.0,12554060.0,2349.0,21,R,12551151,12551421,272,805.8,514.6,4301,NA
27,1,continuous,21,91,trial,12551711.0,12554060.0,2349.0,21,R,12551447,12551731,286,892.4,513.5,4396,NA
27,1,continuous,21,91,trial,12551711.0,12554060.0,2349.0,21,R,12551755,12551941,188,943.6,547.8,4351,NA
27,1,continuous,21,91,trial,12551711.0,12554060.0,2349.0,21,R,12551991,12552135,146,513.0,526.1,4362,left
27,1,continuous,21,91,trial,12551711.0,12554060.0,2349.0,21,R,12552203,12552339,138,1559.1,543.5,4005,right
27,1,continuous,21,91,trial,12551711.0,12554060.0,2349.0,21,R,12552363,12552731,370,1610.2,588.8,3829,right
27,1,continuous,21,91,trial,12551711.0,12554060.0,2349.0,21,R,12552773,12553147,376,1380.0,444.4,3684,right
27,1,continuous,21,91,trial,12551711.0,12554060.0,2349.0,21,R,12553207,12553407,202,622.7,521.5,3896,left
27,1,continuous,21,91,trial,12551711.0,12554060.0,2349.0,21,R,12553471,12554301,832,1398.7,945.6,3931,NA
27,1,continuous,21,91,postResponse,12551711.0,12554060.0,2349.0,21,R,12554359,12554409,52,973.9,571.2,4188,NA
27,1,continuous,22,3,fixationCross,12554977.0,12557311.0,2334.0,22,R,12554511,12554771,262,963.6,570.0,4286,NA
27,1,continuous,22,3,trial,12554977.0,12557311.0,2334.0,22,R,12554795,12555189,396,923.9,515.5,4266,NA
27,1,continuous,22,3,trial,12554977.0,12557311.0,2334.0,22,R,12555231,12555445,216,553.5,607.1,4284,left
27,1,continuous,22,3,trial,12554977.0,12557311.0,2334.0,22,R,12555525,12555753,230,1362.6,578.5,3940,right
27,1,continuous,22,3,trial,12554977.0,12557311.0,2334.0,22,R,12555783,12556127,346,1474.9,644.0,3746,right
27,1,continuous,22,3,trial,12554977.0,12557311.0,2334.0,22,R,12556145,12556261,118,1440.1,670.7,3627,right
27,1,continuous,22,3,trial,12554977.0,12557311.0,2334.0,22,R,12556321,12556503,184,578.0,551.6,3761,left
27,1,continuous,22,3,trial,12554977.0,12557311.0,2334.0,22,R,12556517,12556897,382,573.4,583.7,3731,left
27,1,continuous,22,3,trial,12554977.0,12557311.0,2334.0,22,R,12556923,12557135,214,397.0,577.7,3819,left
27,1,continuous,22,3,trial,12554977.0,12557311.0,2334.0,22,R,12557195,12557501,308,524.0,978.4,3995,NA
27,1,continuous,22,3,postResponse,12554977.0,12557311.0,2334.0,22,R,12557563,12557647,86,964.6,474.4,3907,NA
27,1,continuous,23,100,fixationCross,12558411.0,12560194.0,1783.0,23,R,12557723,12557965,244,966.5,480.5,3967,NA
27,1,continuous,23,100,fixationCross,12558411.0,12560194.0,1783.0,23,R,12557993,12558211,220,1094.1,516.6,4100,NA
27,1,continuous,23,100,trial,12558411.0,12560194.0,1783.0,23,R,12558235,12558645,412,1015.9,543.8,4187,NA
27,1,continuous,23,100,trial,12558411.0,12560194.0,1783.0,23,R,12558691,12558891,202,591.7,591.0,4181,left
27,1,continuous,23,100,trial,12558411.0,12560194.0,1783.0,23,R,12558995,12559109,116,382.4,617.5,3926,left
27,1,continuous,23,100,trial,12558411.0,12560194.0,1783.0,23,R,12559171,12559593,424,1349.2,561.8,3545,right
27,1,continuous,23,100,trial,12558411.0,12560194.0,1783.0,23,R,12559615,12560069,456,1262.6,481.7,3417,right
27,1,continuous,23,100,trial,12558411.0,12560194.0,1783.0,23,R,12560097,12560415,320,1416.9,568.8,3497,right
27,1,continuous,23,100,postResponse,12558411.0,12560194.0,1783.0,23,R,12560469,12560527,60,901.1,557.2,3871,NA
27,1,continuous,24,23,fixationCross,12561778.0,12565377.0,3599.0,24,R,12560627,12560863,238,895.6,567.2,3995,NA
27,1,continuous,24,23,fixationCross,12561778.0,12565377.0,3599.0,24,R,12560889,12561113,226,771.6,575.6,4303,NA
27,1,continuous,24,23,fixationCross,12561778.0,12565377.0,3599.0,24,R,12561139,12561649,512,848.0,575.3,4401,NA
27,1,continuous,24,23,trial,12561778.0,12565377.0,3599.0,24,R,12561673,12562007,336,907.0,571.6,4257,NA
27,1,continuous,24,23,trial,12561778.0,12565377.0,3599.0,24,R,12562053,12562183,132,529.1,569.9,4259,left
27,1,continuous,24,23,trial,12561778.0,12565377.0,3599.0,24,R,12562203,12562479,278,469.8,501.0,4062,left
27,1,continuous,24,23,trial,12561778.0,12565377.0,3599.0,24,R,12562501,12562607,108,494.0,486.7,3849,left
27,1,continuous,24,23,trial,12561778.0,12565377.0,3599.0,24,R,12562667,12562909,244,1390.5,504.8,3568,right
27,1,continuous,24,23,trial,12561778.0,12565377.0,3599.0,24,R,12562931,12563283,354,1515.6,509.3,3465,right
27,1,continuous,24,23,trial,12561778.0,12565377.0,3599.0,24,R,12563303,12563419,118,1631.5,507.4,3409,right
27,1,continuous,24,23,trial,12561778.0,12565377.0,3599.0,24,R,12563495,12563739,246,474.1,573.7,3648,left
27,1,continuous,24,23,trial,12561778.0,12565377.0,3599.0,24,R,12563761,12563947,188,507.9,585.2,3597,left
27,1,continuous,24,23,trial,12561778.0,12565377.0,3599.0,24,R,12563973,12564239,268,589.8,653.6,3657,left
27,1,continuous,24,23,trial,12561778.0,12565377.0,3599.0,24,R,12564267,12564649,384,395.4,600.8,3673,left
27,1,continuous,24,23,trial,12561778.0,12565377.0,3599.0,24,R,12564677,12564989,314,488.4,496.5,3736,left
27,1,continuous,24,23,trial,12561778.0,12565377.0,3599.0,24,R,12565047,12565229,184,613.3,976.9,4025,NA
27,1,continuous,24,23,trial,12561778.0,12565377.0,3599.0,24,R,12565253,12565563,312,685.7,977.8,4098,NA
27,1,continuous,25,96,fixationCross,12566461.0,12568127.0,1666.0,25,R,12565789,12566165,378,859.3,454.6,4144,NA
27,1,continuous,25,96,trial,12566461.0,12568127.0,1666.0,25,R,12566189,12566635,448,932.2,496.4,4119,NA
27,1,continuous,25,96,trial,12566461.0,12568127.0,1666.0,25,R,12566677,12566837,162,555.3,524.6,4162,left
27,1,continuous,25,96,trial,12566461.0,12568127.0,1666.0,25,R,12566861,12567013,154,461.4,440.5,4049,left
27,1,continuous,25,96,trial,12566461.0,12568127.0,1666.0,25,R,12567027,12567219,194,421.5,412.1,3873,left
27,1,continuous,25,96,trial,12566461.0,12568127.0,1666.0,25,R,12567279,12567533,256,1329.9,522.6,3602,right
27,1,continuous,25,96,trial,12566461.0,12568127.0,1666.0,25,R,12567561,12567733,174,1472.5,518.4,3555,right
27,1,continuous,25,96,trial,12566461.0,12568127.0,1666.0,25,R,12567785,12568305,522,1419.9,880.6,3516,NA
27,1,continuous,25,96,postResponse,12566461.0,12568127.0,1666.0,25,R,12568363,12568461,100,748.7,633.3,3832,NA
27,1,continuous,26,4,fixationCross,12590261.0,12592411.0,2150.0,26,R,12589593,12589763,172,52.1,-8.3,3647,NA
27,1,continuous,26,4,fixationCross,12590261.0,12592411.0,2150.0,26,R,12589805,12589917,114,351.4,40.9,3642,NA
27,1,continuous,26,4,fixationCross,12590261.0,12592411.0,2150.0,26,R,12589983,12590105,124,894.0,519.3,3807,NA
27,1,continuous,26,4,trial,12590261.0,12592411.0,2150.0,26,R,12590127,12590285,160,946.3,535.9,3880,NA
27,1,continuous,26,4,trial,12590261.0,12592411.0,2150.0,26,R,12590395,12590563,170,965.4,498.6,4149,NA
27,1,continuous,26,4,trial,12590261.0,12592411.0,2150.0,26,R,12590623,12590829,208,892.8,986.9,4421,likertHorizontal
27,1,continuous,26,4,trial,12590261.0,12592411.0,2150.0,26,R,12590885,12591085,202,1349.2,515.8,4130,right
27,1,continuous,26,4,trial,12590261.0,12592411.0,2150.0,26,R,12591115,12591307,194,1460.1,547.5,3922,right
27,1,continuous,26,4,trial,12590261.0,12592411.0,2150.0,26,R,12591369,12591657,290,517.5,469.3,3933,left
27,1,continuous,26,4,trial,12590261.0,12592411.0,2150.0,26,R,12591693,12591793,102,423.8,545.2,3912,left
27,1,continuous,26,4,trial,12590261.0,12592411.0,2150.0,26,R,12591905,12592577,674,522.8,979.1,4212,NA
27,1,continuous,26,4,postResponse,12590261.0,12592411.0,2150.0,26,R,12592639,12592745,108,1158.8,434.7,3922,NA
27,1,continuous,27,3,fixationCross,12593678.0,12595044.0,1366.0,27,R,12592821,12593125,306,1157.0,445.4,3903,NA
27,1,continuous,27,3,fixationCross,12593678.0,12595044.0,1366.0,27,R,12593145,12593351,208,1146.2,464.0,3993,NA
27,1,continuous,27,3,fixationCross,12593678.0,12595044.0,1366.0,27,R,12593375,12593495,122,995.4,516.1,4110,NA
27,1,continuous,27,3,trial,12593678.0,12595044.0,1366.0,27,R,12593513,12593983,472,951.5,547.3,4243,NA
27,1,continuous,27,3,trial,12593678.0,12595044.0,1366.0,27,R,12594031,12594303,274,520.0,638.9,4221,left
27,1,continuous,27,3,trial,12593678.0,12595044.0,1366.0,27,R,12594323,12594757,436,491.0,594.4,3998,left
27,1,continuous,27,3,trial,12593678.0,12595044.0,1366.0,27,R,12594805,12595211,408,540.6,970.9,3941,NA
27,1,continuous,27,3,postResponse,12593678.0,12595044.0,1366.0,27,R,12595265,12595377,114,845.8,519.3,4013,NA
27,1,continuous,28,86,fixationCross,12595928.0,12597544.0,1616.0,28,R,12595457,12595919,464,1038.6,490.3,4233,NA
27,1,continuous,28,86,trial,12595928.0,12597544.0,1616.0,28,R,12595949,12596137,190,995.9,541.4,4385,NA
27,1,continuous,28,86,trial,12595928.0,12597544.0,1616.0,28,R,12596179,12596343,166,1319.4,488.8,4164,right
27,1,continuous,28,86,trial,12595928.0,12597544.0,1616.0,28,R,12596413,12596769,358,467.1,477.2,4084,left
27,1,continuous,28,86,trial,12595928.0,12597544.0,1616.0,28,R,12596795,12597009,216,463.1,615.2,3952,left
27,1,continuous,28,86,trial,12595928.0,12597544.0,1616.0,28,R,12597025,12597173,150,493.2,656.3,3897,left
27,1,continuous,28,86,trial,12595928.0,12597544.0,1616.0,28,R,12597211,12597537,328,508.1,468.6,3801,left
27,1,continuous,28,86,postResponse,12595928.0,12597544.0,1616.0,28,R,12597611,12597879,270,1228.8,440.0,3576,right
27,1,continuous,29,8,fixationCross,12598478.0,12600445.0,1967.0,29,R,12597979,12598383,406,988.1,456.0,3784,NA
27,1,continuous,29,8,trial,12598478.0,12600445.0,1967.0,29,R,12598407,12598697,292,928.2,482.0,3901,NA
27,1,continuous,29,8,trial,12598478.0,12600445.0,1967.0,29,R,12598743,12598951,210,1411.8,532.3,3698,right
27,1,continuous,29,8,trial,12598478.0,12600445.0,1967.0,29,R,12598971,12599031,62,1486.5,533.8,3570,right
27,1,continuous,29,8,trial,12598478.0,12600445.0,1967.0,29,R,12599095,12599347,254,483.3,482.8,3692,left
27,1,continuous,29,8,trial,12598478.0,12600445.0,1967.0,29,R,12599369,12599741,374,379.7,447.8,3662,left
27,1,continuous,29,8,trial,12598478.0,12600445.0,1967.0,29,R,12599763,12600679,918,429.8,418.4,3669,left
27,1,continuous,29,8,postResponse,12598478.0,12600445.0,1967.0,29,R,12600729,12600781,54,879.3,505.1,3845,NA
27,1,continuous,30,1,fixationCross,12602161.0,12604311.0,2150.0,30,R,12600855,12601027,174,887.2,508.5,3896,NA
27,1,continuous,30,1,fixationCross,12602161.0,12604311.0,2150.0,30,R,12601245,12601847,604,836.1,465.1,3986,NA
27,1,continuous,30,1,trial,12602161.0,12604311.0,2150.0,30,R,12601867,12602325,460,918.4,482.2,3954,NA
27,1,continuous,30,1,trial,12602161.0,12604311.0,2150.0,30,R,12602373,12602599,228,457.6,506.9,4076,left
27,1,continuous,30,1,trial,12602161.0,12604311.0,2150.0,30,R,12602661,12602969,310,1394.4,606.8,3746,right
27,1,continuous,30,1,trial,12602161.0,12604311.0,2150.0,30,R,12602993,12603271,280,1440.8,579.2,3666,right
27,1,continuous,30,1,trial,12602161.0,12604311.0,2150.0,30,R,12603339,12603491,154,472.6,528.9,3764,left
27,1,continuous,30,1,trial,12602161.0,12604311.0,2150.0,30,R,12603513,12603759,248,392.0,494.8,3701,left
27,1,continuous,30,1,trial,12602161.0,12604311.0,2150.0,30,R,12603811,12604275,466,538.3,954.7,3883,NA
27,1,continuous,30,1,trial,12602161.0,12604311.0,2150.0,30,R,12604297,12604463,168,496.7,977.9,4060,NA
27,1,continuous,30,1,trial,12602161.0,12604311.0,2150.0,30,R,12604527,12604607,82,1113.4,504.1,3912,NA
27,1,continuous,31,71,fixationCross,12605228.0,12608978.0,3750.0,31,R,12604793,12605171,380,920.3,446.2,4079,NA
27,1,continuous,31,71,trial,12605228.0,12608978.0,3750.0,31,R,12605193,12605447,256,934.8,532.3,4279,NA
27,1,continuous,31,71,trial,12605228.0,12608978.0,3750.0,31,R,12605495,12605951,458,1337.7,437.4,3909,right
27,1,continuous,31,71,trial,12605228.0,12608978.0,3750.0,31,R,12606015,12606191,178,461.9,509.3,3863,left
27,1,continuous,31,71,trial,12605228.0,12608978.0,3750.0,31,R,12606341,12606433,94,631.9,445.6,3763,left
27,1,continuous,31,71,trial,12605228.0,12608978.0,3750.0,31,R,12606567,12606695,130,1443.8,405.3,3654,right
27,1,continuous,31,71,trial,12605228.0,12608978.0,3750.0,31,R,12606717,12606961,246,1357.3,427.0,3820,right
27,1,continuous,31,71,trial,12605228.0,12608978.0,3750.0,31,R,12607085,12607251,168,1356.5,415.1,3893,right
27,1,continuous,31,71,trial,12605228.0,12608978.0,3750.0,31,R,12607269,12607475,208,1339.6,431.0,3898,right
27,1,continuous,31,71,trial,12605228.0,12608978.0,3750.0,31,R,12607543,12607975,434,490.8,531.3,3958,left
27,1,continuous,31,71,trial,12605228.0,12608978.0,3750.0,31,R,12608035,12608221,188,635.3,979.9,3891,NA
27,1,continuous,31,71,trial,12605228.0,12608978.0,3750.0,31,R,12608267,12608733,468,1032.7,956.6,3896,likertHorizontal
27,1,continuous,31,71,postResponse,12605228.0,12608978.0,3750.0,31,R,12608759,12609315,558,1144.9,954.3,4294,likertHorizontal
27,1,continuous,32,100,fixationCross,12609878.0,12613628.0,3750.0,32,R,12609415,12609581,168,874.6,620.0,4218,NA
27,1,continuous,32,100,trial,12609878.0,12613628.0,3750.0,32,R,12609607,12609905,300,891.1,492.6,4179,NA
27,1,continuous,32,100,trial,12609878.0,12613628.0,3750.0,32,R,12609927,12610099,174,913.0,530.8,4219,NA
27,1,continuous,32,100,trial,12609878.0,12613628.0,3750.0,32,R,12610127,12610309,184,677.0,543.3,4223,left
27,1,continuous,32,100,trial,12609878.0,12613628.0,3750.0,32,R,12610329,12610483,156,590.6,542.2,4085,left
27,1,continuous,32,100,trial,12609878.0,12613628.0,3750.0,32,R,12610509,12610789,282,443.2,549.3,3899,left
27,1,continuous,32,100,trial,12609878.0,12613628.0,3750.0,32,R,12610819,12611145,328,289.4,455.4,3629,left
27,1,continuous,32,100,trial,12609878.0,12613628.0,3750.0,32,R,12611191,12611529,340,652.7,626.4,3527,left
27,1,continuous,32,100,trial,12609878.0,12613628.0,3750.0,32,R,12611557,12611849,294,615.9,536.4,3537,left
27,1,continuous,32,100,trial,12609878.0,12613628.0,3750.0,32,R,12611909,12612183,276,1370.9,478.2,3413,right
27,1,continuous,32,100,trial,12609878.0,12613628.0,3750.0,32,R,12612207,12612467,262,1435.1,483.0,3393,right
27,1,continuous,32,100,trial,12609878.0,12613628.0,3750.0,32,R,12612485,12612785,302,1425.3,537.4,3383,right
27,1,continuous,32,100,trial,12609878.0,12613628.0,3750.0,32,R,12612807,12613535,730,1344.6,574.4,3282,right
27,1,continuous,32,100,trial,12609878.0,12613628.0,3750.0,32,R,12613553,12613865,314,1393.1,588.5,3349,right
27,1,continuous,32,100,postResponse,12609878.0,12613628.0,3750.0,32,R,12613911,12613965,56,1026.3,505.0,3519,NA
27,1,continuous,33,46,fixationCross,12614861.0,12616428.0,1567.0,33,R,12614099,12614571,474,852.1,484.7,3738,NA
27,1,continuous,33,46,trial,12614861.0,12616428.0,1567.0,33,R,12614589,12614929,342,907.4,520.2,3819,NA
27,1,continuous,33,46,trial,12614861.0,12616428.0,1567.0,33,R,12614951,12615065,116,781.8,541.1,3842,NA
27,1,continuous,33,46,trial,12614861.0,12616428.0,1567.0,33,R,12615105,12615379,276,596.9,516.8,3800,left
27,1,continuous,33,46,trial,12614861.0,12616428.0,1567.0,33,R,12615439,12615637,200,1404.0,466.4,3495,right
27,1,continuous,33,46,trial,12614861.0,12616428.0,1567.0,33,R,12615657,12615929,274,1429.8,464.6,3458,right
27,1,continuous,33,46,trial,12614861.0,12616428.0,1567.0,33,R,12615991,12616237,248,1057.2,857.0,3565,likertHorizontal
27,1,continuous,33,46,postResponse,12614861.0,12616428.0,1567.0,33,R,12616263,12616761,500,897.6,893.4,3836,likertHorizontal
27,1,continuous,34,1,trial,12617345.0,12619078.0,1733.0,34,R,12616861,12617559,700,945.9,480.3,4112,NA
27,1,continuous,34,1,trial,12617345.0,12619078.0,1733.0,34,R,12617603,12617743,142,561.0,541.5,4136,left
27,1,continuous,34,1,trial,12617345.0,12619078.0,1733.0,34,R,12617767,12618019,254,542.1,420.2,3942,left
27,1,continuous,34,1,trial,12617345.0,12619078.0,1733.0,34,R,12618053,12618177,126,338.9,431.7,3749,left
27,1,continuous,34,1,trial,12617345.0,12619078.0,1733.0,34,R,12618245,12618519,276,1367.1,515.8,3528,right
27,1,continuous,34,1,trial,12617345.0,12619078.0,1733.0,34,R,12618541,12618743,204,1449.7,478.2,3423,right
27,1,continuous,34,1,trial,12617345.0,12619078.0,1733.0,34,R,12618811,12619011,202,581.4,893.3,3622,NA
27,1,continuous,34,1,trial,12617345.0,12619078.0,1733.0,34,R,12619045,12619243,200,490.1,966.8,3666,NA
27,1,continuous,34,1,postResponse,12617345.0,12619078.0,1733.0,34,R,12619301,12619429,130,896.6,516.1,3775,NA
27,1,continuous,35,98,fixationCross,12619978.0,12621645.0,1667.0,35,R,12619503,12619651,150,905.0,517.4,3914,NA
27,1,continuous,35,98,fixationCross,12619978.0,12621645.0,1667.0,35,R,12619679,12619885,208,1010.9,502.6,4009,NA
27,1,continuous,35,98,trial,12619978.0,12621645.0,1667.0,35,R,12619909,12620167,260,963.5,550.3,4049,NA
27,1,continuous,35,98,trial,12619978.0,12621645.0,1667.0,35,R,12620213,12620477,266,525.0,579.4,4073,left
27,1,continuous,35,98,trial,12619978.0,12621645.0,1667.0,35,R,12620537,12620805,270,1381.2,577.8,3676,right
27,1,continuous,35,98,trial,12619978.0,12621645.0,1667.0,35,R,12620829,12621085,258,1449.5,476.9,3513,right
27,1,continuous,35,98,trial,12619978.0,12621645.0,1667.0,35,R,12621143,12621385,244,1266.1,929.3,3589,NA
27,1,continuous,35,98,trial,12619978.0,12621645.0,1667.0,35,R,12621407,12621841,436,1358.0,954.7,3763,NA
27,1,continuous,35,98,postResponse,12619978.0,12621645.0,1667.0,35,R,12621903,12621981,80,881.6,530.8,4003,NA
27,1,continuous,36,99,fixationCross,12623745.0,12625945.0,2200.0,36,R,12622123,12622345,224,761.0,521.0,4035,NA
27,1,continuous,36,99,fixationCross,12623745.0,12625945.0,2200.0,36,R,12622379,12623115,738,854.6,516.4,4074,NA
27,1,continuous,36,99,fixationCross,12623745.0,12625945.0,2200.0,36,R,12623237,12623483,248,841.7,524.5,4137,NA
27,1,continuous,36,99,trial,12623745.0,12625945.0,2200.0,36,R,12623509,12623827,320,922.1,554.4,4084,NA
27,1,continuous,36,99,trial,12623745.0,12625945.0,2200.0,36,R,12623939,12624219,282,545.0,506.7,4051,left
27,1,continuous,36,99,trial,12623745.0,12625945.0,2200.0,36,R,12624233,12624487,256,565.7,467.0,3886,left
27,1,continuous,36,99,trial,12623745.0,12625945.0,2200.0,36,R,12624497,12624581,86,579.8,442.4,3725,left
27,1,continuous,36,99,trial,12623745.0,12625945.0,2200.0,36,R,12624641,12624821,182,1362.9,474.8,3496,right
27,1,continuous,36,99,trial,12623745.0,12625945.0,2200.0,36,R,12624847,12625159,314,1524.2,482.7,3392,right
27,1,continuous,36,99,trial,12623745.0,12625945.0,2200.0,36,R,12625183,12625401,220,1608.3,487.5,3339,right
27,1,continuous,36,99,trial,12623745.0,12625945.0,2200.0,36,R,12625449,12626237,790,1358.8,895.9,3758,NA
27,1,continuous,37,4,fixationCross,12626845.0,12629729.0,2884.0,37,R,12626353,12626761,410,908.9,458.3,4267,NA
27,1,continuous,37,4,trial,12626845.0,12629729.0,2884.0,37,R,12626783,12627035,254,924.6,541.1,4265,NA
27,1,continuous,37,4,trial,12626845.0,12629729.0,2884.0,37,R,12627075,12627367,294,523.5,555.6,4223,left
27,1,continuous,37,4,trial,12626845.0,12629729.0,2884.0,37,R,12627425,12627677,254,1395.3,540.8,3724,right
27,1,continuous,37,4,trial,12626845.0,12629729.0,2884.0,37,R,12627701,12628001,302,1514.0,547.4,3595,right
27,1,continuous,37,4,trial,12626845.0,12629729.0,2884.0,37,R,12628109,12628289,182,657.0,907.6,3823,NA
27,1,continuous,37,4,trial,12626845.0,12629729.0,2884.0,37,R,12628325,12628761,438,530.3,972.2,4006,NA
27,1,continuous,37,4,trial,12626845.0,12629729.0,2884.0,37,R,12628789,12628955,168,495.3,947.9,4135,NA
27,1,continuous,37,4,trial,12626845.0,12629729.0,2884.0,37,R,12629001,12629939,940,480.2,533.3,4016,left
27,1,continuous,37,4,postResponse,12626845.0,12629729.0,2884.0,37,R,12629997,12630067,72,1036.7,444.3,3793,NA
27,1,continuous,38,16,fixationCross,12630745.0,12633379.0,2634.0,38,R,12630141,12630443,304,1042.2,446.6,3888,NA
27,1,continuous,38,16,fixationCross,12630745.0,12633379.0,2634.0,38,R,12630485,12630625,142,985.2,556.5,4099,NA
27,1,continuous,38,16,trial,12630745.0,12633379.0,2634.0,38,R,12630639,12630931,294,953.0,560.3,4167,NA
27,1,continuous,38,16,trial,12630745.0,12633379.0,2634.0,38,R,12630979,12631361,384,484.4,536.5,4095,left
27,1,continuous,38,16,trial,12630745.0,12633379.0,2634.0,38,R,12631387,12631743,358,400.2,570.7,3987,left
27,1,continuous,38,16,trial,12630745.0,12633379.0,2634.0,38,R,12631761,12631965,206,392.1,569.6,4056,left
27,1,continuous,38,16,trial,12630745.0,12633379.0,2634.0,38,R,12632027,12632255,230,1331.6,514.6,3940,right
27,1,continuous,38,16,trial,12630745.0,12633379.0,2634.0,38,R,12632267,12632603,338,1332.7,492.6,3832,right
27,1,continuous,38,16,trial,12630745.0,12633379.0,2634.0,38,R,12632649,12632755,108,951.7,587.6,3786,NA
27,1,continuous,38,16,trial,12630745.0,12633379.0,2634.0,38,R,12632799,12633589,792,552.4,541.9,3994,left
27,1,continuous,39,100,fixationCross,12634578.0,12635978.0,1400.0,39,R,12633791,12633925,136,713.8,459.2,4085,left
27,1,continuous,39,100,fixationCross,12634578.0,12635978.0,1400.0,39,R,12633951,12634251,302,851.6,465.2,4168,NA
27,1,continuous,39,100,trial,12634578.0,12635978.0,1400.0,39,R,12634283,12634759,478,946.4,490.1,4252,NA
27,1,continuous,39,100,trial,12634578.0,12635978.0,1400.0,39,R,12634805,12635011,208,528.6,520.8,4192,left
27,1,continuous,39,100,trial,12634578.0,12635978.0,1400.0,39,R,12635027,12635207,182,521.9,564.0,4002,left
27,1,continuous,39,100,trial,12634578.0,12635978.0,1400.0,39,R,12635263,12635509,248,1332.7,549.9,3652,right
27,1,continuous,39,100,trial,12634578.0,12635978.0,1400.0,39,R,12635529,12635855,328,1379.7,529.6,3538,right
27,1,continuous,39,100,trial,12634578.0,12635978.0,1400.0,39,R,12635891,12636171,282,1464.6,656.8,3556,right
27,1,continuous,40,11,fixationCross,12636878.0,12640295.0,3417.0,40,R,12636391,12636465,76,821.1,515.6,3751,NA
27,1,continuous,40,11,fixationCross,12636878.0,12640295.0,3417.0,40,R,12636493,12636761,270,992.1,509.3,3849,NA
27,1,continuous,40,11,trial,12636878.0,12640295.0,3417.0,40,R,12636787,12637035,250,932.4,531.5,4070,NA
27,1,continuous,40,11,trial,12636878.0,12640295.0,3417.0,40,R,12637081,12637277,198,503.3,596.0,4087,left
27,1,continuous,40,11,trial,12636878.0,12640295.0,3417.0,40,R,12637289,12637383,96,501.4,618.7,3992,left
27,1,continuous,40,11,trial,12636878.0,12640295.0,3417.0,40,R,12637447,12637637,192,1468.3,529.3,3694,right
27,1,continuous,40,11,trial,12636878.0,12640295.0,3417.0,40,R,12637661,12638125,466,1489.1,429.4,3655,right
27,1,continuous,40,11,trial,12636878.0,12640295.0,3417.0,40,R,12638195,12638379,186,513.5,659.6,4068,left
27,1,continuous,40,11,trial,12636878.0,12640295.0,3417.0,40,R,12638399,12638545,148,503.2,610.5,4093,left
27,1,continuous,40,11,trial,12636878.0,12640295.0,3417.0,40,R,12638663,12638833,172,510.2,581.1,4146,left
27,1,continuous,40,11,trial,12636878.0,12640295.0,3417.0,40,R,12638853,12639249,398,508.6,608.1,4166,left
27,1,continuous,40,11,trial,12636878.0,12640295.0,3417.0,40,R,12639275,12639497,224,452.6,449.1,4050,left
27,1,continuous,40,11,trial,12636878.0,12640295.0,3417.0,40,R,12639535,12639697,164,556.2,617.6,4017,left
27,1,continuous,40,11,trial,12636878.0,12640295.0,3417.0,40,R,12639829,12639869,42,507.6,568.6,4040,left
27,1,continuous,40,11,trial,12636878.0,12640295.0,3417.0,40,R,12639881,12639997,118,505.5,562.0,4044,left
27,1,continuous,40,11,trial,12636878.0,12640295.0,3417.0,40,R,12640009,12640161,154,506.8,596.8,4088,left
27,1,continuous,40,11,trial,12636878.0,12640295.0,3417.0,40,R,12640229,12640507,280,1521.2,513.1,3756,right
27,1,continuous,41,9,fixationCross,12641195.0,12643362.0,2167.0,41,R,12640705,12640849,146,780.5,545.3,3803,NA
27,1,continuous,41,9,trial,12641195.0,12643362.0,2167.0,41,R,12640881,12641379,500,923.2,491.2,3922,NA
27,1,continuous,41,9,trial,12641195.0,12643362.0,2167.0,41,R,12641423,12641539,118,505.5,493.8,4063,left
27,1,continuous,41,9,trial,12641195.0,12643362.0,2167.0,41,R,12641557,12641907,352,447.7,425.6,3964,left
27,1,continuous,41,9,trial,12641195.0,12643362.0,2167.0,41,R,12641969,12642193,226,1330.6,486.4,3749,right
27,1,continuous,41,9,trial,12641195.0,12643362.0,2167.0,41,R,12642211,12642439,230,1335.2,544.2,3753,right
27,1,continuous,41,9,postResponse,12641195.0,12643362.0,2167.0,41,R,12642501,12643707,1208,556.9,762.1,4186,NA
27,1,continuous,42,14,fixationCross,12646329.0,12648279.0,1950.0,42,R,12643833,12645555,1724,786.7,535.5,4415,NA
27,1,continuous,42,14,fixationCross,12646329.0,12648279.0,1950.0,42,R,12645671,12646021,352,833.4,495.6,4440,NA
27,1,continuous,42,14,trial,12646329.0,12648279.0,1950.0,42,R,12646043,12646585,544,913.0,506.9,4420,NA
27,1,continuous,42,14,trial,12646329.0,12648279.0,1950.0,42,R,12646629,12646821,194,600.3,452.5,4362,left
27,1,continuous,42,14,trial,12646329.0,12648279.0,1950.0,42,R,12646839,12646949,112,619.7,484.2,4286,left
27,1,continuous,42,14,trial,12646329.0,12648279.0,1950.0,42,R,12647007,12647121,116,1336.5,508.0,4158,right
27,1,continuous,42,14,trial,12646329.0,12648279.0,1950.0,42,R,12647275,12647351,78,1378.6,465.8,4103,right
27,1,continuous,42,14,trial,12646329.0,12648279.0,1950.0,42,R,12647369,12647611,244,1376.1,481.3,3981,right
27,1,continuous,42,14,trial,12646329.0,12648279.0,1950.0,42,R,12647637,12647807,172,1437.4,493.3,3970,right
27,1,continuous,42,14,trial,12646329.0,12648279.0,1950.0,42,R,12647871,12648523,654,571.2,506.5,3951,left
27,1,continuous,42,14,postResponse,12646329.0,12648279.0,1950.0,42,R,12648573,12648613,42,1062.7,534.1,3976,NA
27,1,continuous,43,5,fixationCross,12649278.0,12651045.0,1767.0,43,R,12648711,12648979,270,1070.4,533.9,4034,NA
27,1,continuous,43,5,trial,12649278.0,12651045.0,1767.0,43,R,12649005,12649459,456,931.8,508.3,4255,NA
27,1,continuous,43,5,trial,12649278.0,12651045.0,1767.0,43,R,12649507,12649597,92,474.5,545.8,4337,left
27,1,continuous,43,5,trial,12649278.0,12651045.0,1767.0,43,R,12649721,12649901,182,439.3,526.9,4096,left
27,1,continuous,43,5,trial,12649278.0,12651045.0,1767.0,43,R,12649929,12650101,174,421.2,590.7,4052,left
27,1,continuous,43,5,trial,12649278.0,12651045.0,1767.0,43,R,12650167,12650541,376,1438.7,554.3,3736,right
27,1,continuous,43,5,trial,12649278.0,12651045.0,1767.0,43,R,12650669,12650825,158,540.5,718.8,3746,left
27,1,continuous,43,5,trial,12649278.0,12651045.0,1767.0,43,R,12650947,12650985,40,513.0,893.9,3797,NA
27,1,continuous,43,5,trial,12649278.0,12651045.0,1767.0,43,R,12651003,12651277,276,515.3,906.9,3921,NA
27,1,continuous,44,98,fixationCross,12652528.0,12654962.0,2434.0,44,R,12651481,12651587,108,726.8,511.6,4020,left
27,1,continuous,44,98,fixationCross,12652528.0,12654962.0,2434.0,44,R,12651619,12652229,612,876.1,461.6,4065,NA
27,1,continuous,44,98,fixationCross,12652528.0,12654962.0,2434.0,44,R,12652255,12652475,222,922.7,499.0,4082,NA
27,1,continuous,44,98,trial,12652528.0,12654962.0,2434.0,44,R,12652495,12652723,230,924.5,538.8,4141,NA
27,1,continuous,44,98,trial,12652528.0,12654962.0,2434.0,44,R,12652775,12653111,338,492.7,577.1,4199,left
27,1,continuous,44,98,trial,12652528.0,12654962.0,2434.0,44,R,12653179,12653485,308,1481.1,600.3,3831,right
27,1,continuous,44,98,trial,12652528.0,12654962.0,2434.0,44,R,12653507,12653897,392,1442.8,597.0,3814,right
27,1,continuous,44,98,trial,12652528.0,12654962.0,2434.0,44,R,12653965,12654367,404,471.4,564.6,3962,left
27,1,continuous,44,98,trial,12652528.0,12654962.0,2434.0,44,R,12654435,12654825,392,1490.9,610.0,3658,right
27,1,continuous,44,98,trial,12652528.0,12654962.0,2434.0,44,R,12654853,12655169,318,1453.1,588.1,3946,right
27,1,continuous,45,95,fixationCross,12655828.0,12658695.0,2867.0,45,R,12655371,12655441,72,664.2,464.7,4210,left
27,1,continuous,45,95,trial,12655828.0,12658695.0,2867.0,45,R,12655469,12656001,534,870.8,503.2,4144,NA
27,1,continuous,45,95,trial,12655828.0,12658695.0,2867.0,45,R,12656047,12656213,168,439.8,494.4,4099,left
27,1,continuous,45,95,trial,12655828.0,12658695.0,2867.0,45,R,12656231,12656361,132,460.7,451.4,3988,left
27,1,continuous,45,95,trial,12655828.0,12658695.0,2867.0,45,R,12656427,12656599,174,1452.6,475.7,3728,right
27,1,continuous,45,95,trial,12655828.0,12658695.0,2867.0,45,R,12656711,12656947,238,1397.5,451.7,3683,right
27,1,continuous,45,95,trial,12655828.0,12658695.0,2867.0,45,R,12656971,12657147,178,1439.0,463.9,3701,right
27,1,continuous,45,95,trial,12655828.0,12658695.0,2867.0,45,R,12657171,12657317,148,1388.9,463.2,3758,right
27,1,continuous,45,95,trial,12655828.0,12658695.0,2867.0,45,R,12657341,12657551,212,1445.9,456.4,3789,right
27,1,continuous,45,95,trial,12655828.0,12658695.0,2867.0,45,R,12657581,12657837,258,1327.2,605.0,3931,right
27,1,continuous,45,95,trial,12655828.0,12658695.0,2867.0,45,R,12657847,12658193,348,1309.6,604.2,3970,right
27,1,continuous,45,95,trial,12655828.0,12658695.0,2867.0,45,R,12658259,12658397,140,1144.7,1046.1,4140,likertHorizontal
27,1,continuous,45,95,trial,12655828.0,12658695.0,2867.0,45,R,12658421,12658605,186,1253.2,968.9,4085,NA
27,1,continuous,45,95,trial,12655828.0,12658695.0,2867.0,45,R,12658629,12658891,264,1362.8,955.0,4070,NA
27,1,continuous,46,100,fixationCross,12660729.0,12662862.0,2133.0,46,R,12659131,12659981,852,860.9,477.4,4358,NA
27,1,continuous,46,100,fixationCross,12660729.0,12662862.0,2133.0,46,R,12660005,12660423,420,842.3,524.2,4327,NA
27,1,continuous,46,100,trial,12660729.0,12662862.0,2133.0,46,R,12660447,12660779,334,912.1,537.4,4406,NA
27,1,continuous,46,100,trial,12660729.0,12662862.0,2133.0,46,R,12660897,12660965,70,781.2,487.9,4461,NA
27,1,continuous,46,100,trial,12660729.0,12662862.0,2133.0,46,R,12660993,12661179,188,561.4,511.4,4375,left
27,1,continuous,46,100,trial,12660729.0,12662862.0,2133.0,46,R,12661201,12661559,360,462.4,500.4,4056,left
27,1,continuous,46,100,trial,12660729.0,12662862.0,2133.0,46,R,12661575,12661693,120,489.9,469.3,3753,left
27,1,continuous,46,100,trial,12660729.0,12662862.0,2133.0,46,R,12661755,12661935,182,1401.3,504.5,3523,right
27,1,continuous,46,100,trial,12660729.0,12662862.0,2133.0,46,R,12661959,12662097,140,1459.7,459.3,3450,right
27,1,continuous,46,100,trial,12660729.0,12662862.0,2133.0,46,R,12662113,12662333,222,1499.2,427.8,3407,right
27,1,continuous,46,100,trial,12660729.0,12662862.0,2133.0,46,R,12662373,12662507,136,1289.7,398.8,3447,right
27,1,continuous,46,100,trial,12660729.0,12662862.0,2133.0,46,R,12662547,12663075,530,1487.9,560.4,3380,right
27,1,continuous,47,95,fixationCross,12663762.0,12666262.0,2500.0,47,R,12663271,12663489,220,870.7,511.7,3613,NA
27,1,continuous,47,95,trial,12663762.0,12666262.0,2500.0,47,R,12663515,12663803,290,951.1,474.5,3879,NA
27,1,continuous,47,95,trial,12663762.0,12666262.0,2500.0,47,R,12663833,12663951,120,881.2,500.9,3953,NA
27,1,continuous,47,95,trial,12663762.0,12666262.0,2500.0,47,R,12663999,12664391,394,524.0,499.0,3880,left
27,1,continuous,47,95,trial,12663762.0,12666262.0,2500.0,47,R,12664411,12664693,284,465.0,502.9,3667,left
27,1,continuous,47,95,trial,12663762.0,12666262.0,2500.0,47,R,12664759,12665015,258,1411.6,558.6,3523,right
27,1,continuous,47,95,trial,12663762.0,12666262.0,2500.0,47,R,12665035,12665393,360,1385.1,618.6,3605,right
27,1,continuous,47,95,trial,12663762.0,12666262.0,2500.0,47,R,12665443,12665905,464,1378.8,960.3,3729,NA
27,1,continuous,47,95,postResponse,12663762.0,12666262.0,2500.0,47,R,12665975,12666599,626,443.8,560.1,3857,left
27,1,continuous,48,8,fixationCross,12668062.0,12669446.0,1384.0,48,R,12666673,12666749,78,447.5,560.0,3777,left
27,1,continuous,48,8,fixationCross,12668062.0,12669446.0,1384.0,48,R,12666953,12667151,200,627.6,431.3,4003,left
27,1,continuous,48,8,fixationCross,12668062.0,12669446.0,1384.0,48,R,12667179,12667767,590,791.6,490.9,4226,NA
27,1,continuous,48,8,trial,12668062.0,12669446.0,1384.0,48,R,12667791,12668131,342,873.8,507.2,4071,NA
27,1,continuous,48,8,trial,12668062.0,12669446.0,1384.0,48,R,12668153,12668319,168,845.2,528.2,4197,NA
27,1,continuous,48,8,trial,12668062.0,12669446.0,1384.0,48,R,12668341,12668467,128,755.3,563.5,4202,NA
27,1,continuous,48,8,trial,12668062.0,12669446.0,1384.0,48,R,12668491,12668689,200,656.3,607.5,4097,left
27,1,continuous,48,8,trial,12668062.0,12669446.0,1384.0,48,R,12668721,12668987,268,486.0,567.9,4056,left
27,1,continuous,48,8,trial,12668062.0,12669446.0,1384.0,48,R,12669009,12669697,690,429.0,514.4,3881,left
27,1,continuous,48,8,postResponse,12668062.0,12669446.0,1384.0,48,R,12669749,12669781,34,934.3,477.9,3888,NA
27,1,continuous,49,28,trial,12670345.0,12673212.0,2867.0,49,R,12669855,12670607,754,934.4,486.5,4224,NA
27,1,continuous,49,28,trial,12670345.0,12673212.0,2867.0,49,R,12670721,12670839,120,682.9,461.0,4209,left
27,1,continuous,49,28,trial,12670345.0,12673212.0,2867.0,49,R,12670865,12671027,164,414.0,477.6,4232,left
27,1,continuous,49,28,trial,12670345.0,12673212.0,2867.0,49,R,12671045,12671665,622,397.0,413.0,4142,left
27,1,continuous,49,28,trial,12670345.0,12673212.0,2867.0,49,R,12671727,12671903,178,1326.0,478.0,3756,right
27,1,continuous,49,28,trial,12670345.0,12673212.0,2867.0,49,R,12671929,12672221,294,1403.1,523.2,3623,right
27,1,continuous,49,28,trial,12670345.0,12673212.0,2867.0,49,R,12672231,12672631,402,1423.2,529.2,3247,right
27,1,continuous,49,28,trial,12670345.0,12673212.0,2867.0,49,R,12672683,12673421,740,970.3,514.8,3203,NA
27,1,continuous,50,12,fixationCross,12674095.0,12676529.0,2434.0,50,R,12673621,12673849,230,925.6,550.4,3762,NA
27,1,continuous,50,12,fixationCross,12674095.0,12676529.0,2434.0,50,R,12673877,12674047,172,1028.3,496.4,3902,NA
27,1,continuous,50,12,trial,12674095.0,12676529.0,2434.0,50,R,12674071,12674309,240,948.5,543.7,3957,NA
27,1,continuous,50,12,trial,12674095.0,12676529.0,2434.0,50,R,12674359,12674559,202,1447.0,487.6,3790,right
27,1,continuous,50,12,trial,12674095.0,12676529.0,2434.0,50,R,12674621,12674801,182,534.9,504.6,3838,left
27,1,continuous,50,12,trial,12674095.0,12676529.0,2434.0,50,R,12674811,12674961,152,549.7,528.3,3761,left
27,1,continuous,50,12,trial,12674095.0,12676529.0,2434.0,50,R,12674983,12675307,326,423.1,496.1,3709,left
27,1,continuous,50,12,trial,12674095.0,12676529.0,2434.0,50,R,12675329,12675713,386,505.8,398.1,3547,left
27,1,continuous,50,12,trial,12674095.0,12676529.0,2434.0,50,R,12675735,12675875,142,560.4,382.7,3474,left
27,1,continuous,50,12,trial,12674095.0,12676529.0,2434.0,50,R,12675887,12676123,238,571.7,409.1,3499,left
27,1,continuous,50,12,trial,12674095.0,12676529.0,2434.0,50,R,12676183,12676471,290,574.6,959.6,3729,NA
27,1,continuous,50,12,trial,12674095.0,12676529.0,2434.0,50,R,12676535,12676761,228,1445.2,511.7,3610,right
27,2,binary,1,2,fixationCross,12730846.0,12733663.0,2817.0,51,R,12730052,12730250,200,1238.5,660.4,4307,right
27,2,binary,1,2,fixationCross,12730846.0,12733663.0,2817.0,51,R,12730296,12730540,246,796.7,664.2,4418,NA
27,2,binary,1,2,trial,12730846.0,12733663.0,2817.0,51,R,12730570,12731118,550,952.0,536.8,4376,NA
27,2,binary,1,2,trial,12730846.0,12733663.0,2817.0,51,R,12731166,12731464,300,1399.2,435.8,3951,right
27,2,binary,1,2,trial,12730846.0,12733663.0,2817.0,51,R,12731524,12731660,138,828.4,917.6,4019,likertHorizontal
27,2,binary,1,2,trial,12730846.0,12733663.0,2817.0,51,R,12731704,12731828,126,1323.9,972.9,3861,NA
27,2,binary,1,2,trial,12730846.0,12733663.0,2817.0,51,R,12731860,12731980,122,1412.0,998.8,3928,NA
27,2,binary,1,2,trial,12730846.0,12733663.0,2817.0,51,R,12732046,12732384,340,481.1,958.1,4350,NA
27,2,binary,1,2,trial,12730846.0,12733663.0,2817.0,51,R,12732442,12732654,214,1315.2,992.0,4143,NA
27,2,binary,1,2,trial,12730846.0,12733663.0,2817.0,51,R,12732676,12732776,102,1420.4,979.5,4175,NA
27,2,binary,1,2,trial,12730846.0,12733663.0,2817.0,51,R,12732828,12733030,204,1438.0,457.0,4222,right
27,2,binary,1,2,trial,12730846.0,12733663.0,2817.0,51,R,12733106,12733258,154,443.3,490.5,4283,left
27,2,binary,1,2,trial,12730846.0,12733663.0,2817.0,51,R,12733284,12733860,578,415.6,470.9,3998,left
27,2,binary,1,2,postResponse,12730846.0,12733663.0,2817.0,51,R,12733906,12733998,94,897.5,555.3,3819,NA
27,2,binary,2,1,fixationCross,12734546.0,12736429.0,1883.0,52,R,12734072,12734474,404,894.3,560.3,3948,NA
27,2,binary,2,1,trial,12734546.0,12736429.0,1883.0,52,R,12734494,12734750,258,935.6,529.2,4132,NA
27,2,binary,2,1,trial,12734546.0,12736429.0,1883.0,52,R,12734794,12735090,298,589.6,541.7,4232,left
27,2,binary,2,1,trial,12734546.0,12736429.0,1883.0,52,R,12735146,12735658,514,1348.8,531.5,3840,right
27,2,binary,2,1,trial,12734546.0,12736429.0,1883.0,52,R,12735678,12735894,218,1386.8,481.8,3709,right
27,2,binary,2,1,trial,12734546.0,12736429.0,1883.0,52,R,12735906,12736004,100,1415.0,486.5,3714,right
27,2,binary,2,1,trial,12734546.0,12736429.0,1883.0,52,R,12736062,12736656,596,570.9,516.8,3805,left
27,2,binary,3,2,fixationCross,12737530.0,12739063.0,1533.0,53,R,12736864,12736928,66,590.7,508.2,3997,left
27,2,binary,3,2,fixationCross,12737530.0,12739063.0,1533.0,53,R,12736954,12737234,282,730.9,534.8,4166,left
27,2,binary,3,2,trial,12737530.0,12739063.0,1533.0,53,R,12737274,12737708,436,925.3,533.2,4238,NA
27,2,binary,3,2,trial,12737530.0,12739063.0,1533.0,53,R,12737754,12737982,230,539.6,509.8,4165,left
27,2,binary,3,2,trial,12737530.0,12739063.0,1533.0,53,R,12738044,12738316,274,1381.5,497.7,3812,right
27,2,binary,3,2,trial,12737530.0,12739063.0,1533.0,53,R,12738346,12738990,646,1541.1,449.5,3501,right
27,2,binary,3,2,trial,12737530.0,12739063.0,1533.0,53,R,12739014,12739288,276,1359.2,465.5,3474,right
27,2,binary,4,2,fixationCross,12740146.0,12741630.0,1484.0,54,R,12739472,12739834,364,760.0,560.5,3906,NA
27,2,binary,4,2,trial,12740146.0,12741630.0,1484.0,54,R,12739868,12740310,444,923.9,548.6,4069,NA
27,2,binary,4,2,trial,12740146.0,12741630.0,1484.0,54,R,12740354,12740574,222,524.1,523.7,4025,left
27,2,binary,4,2,trial,12740146.0,12741630.0,1484.0,54,R,12740630,12740896,268,1347.6,507.5,3664,right
27,2,binary,4,2,trial,12740146.0,12741630.0,1484.0,54,R,12740916,12741406,492,1421.5,481.5,3488,right
27,2,binary,4,2,trial,12740146.0,12741630.0,1484.0,54,R,12741428,12741818,392,1410.8,561.9,3481,right
27,2,binary,5,1,fixationCross,12742763.0,12745880.0,3117.0,55,R,12742064,12742454,392,849.8,464.4,3683,NA
27,2,binary,5,1,trial,12742763.0,12745880.0,3117.0,55,R,12742480,12742938,460,931.5,511.4,4044,NA
27,2,binary,5,1,trial,12742763.0,12745880.0,3117.0,55,R,12742986,12743144,160,546.0,522.7,4210,left
27,2,binary,5,1,trial,12742763.0,12745880.0,3117.0,55,R,12743168,12743340,174,520.0,592.7,4145,left
27,2,binary,5,1,trial,12742763.0,12745880.0,3117.0,55,R,12743400,12743564,166,1348.8,498.5,3929,right
27,2,binary,5,1,trial,12742763.0,12745880.0,3117.0,55,R,12743598,12743862,266,1516.9,539.8,3963,right
27,2,binary,5,1,trial,12742763.0,12745880.0,3117.0,55,R,12743886,12744212,328,1562.0,428.8,4084,right
27,2,binary,5,1,trial,12742763.0,12745880.0,3117.0,55,R,12744236,12744398,164,1514.4,525.1,4101,right
27,2,binary,5,1,trial,12742763.0,12745880.0,3117.0,55,R,12744420,12744514,96,1472.6,530.4,4145,right
27,2,binary,5,1,trial,12742763.0,12745880.0,3117.0,55,R,12744582,12744786,206,507.3,546.3,4476,left
27,2,binary,5,1,trial,12742763.0,12745880.0,3117.0,55,R,12744808,12744954,148,518.9,604.3,4565,left
27,2,binary,5,1,trial,12742763.0,12745880.0,3117.0,55,R,12745096,12745302,208,552.4,534.2,4495,left
27,2,binary,5,1,trial,12742763.0,12745880.0,3117.0,55,R,12745326,12745494,170,523.6,588.8,4590,left
27,2,binary,5,1,trial,12742763.0,12745880.0,3117.0,55,R,12745554,12745906,354,1461.6,560.4,4155,right
27,2,binary,5,1,trial,12742763.0,12745880.0,3117.0,55,R,12745970,12746190,222,512.5,917.7,4364,NA
27,2,binary,6,1,fixationCross,12746763.0,12748063.0,1300.0,56,R,12746290,12746384,96,690.2,634.4,4418,left
27,2,binary,6,1,fixationCross,12746763.0,12748063.0,1300.0,56,R,12746426,12746666,242,865.6,517.1,4429,NA
27,2,binary,6,1,trial,12746763.0,12748063.0,1300.0,56,R,12746700,12746948,250,953.3,538.1,4628,NA
27,2,binary,6,1,trial,12746763.0,12748063.0,1300.0,56,R,12746992,12747286,296,555.6,497.2,4696,left
27,2,binary,6,1,trial,12746763.0,12748063.0,1300.0,56,R,12747312,12747402,92,509.8,523.6,4460,left
27,2,binary,6,1,trial,12746763.0,12748063.0,1300.0,56,R,12747464,12747690,228,1296.2,525.7,4151,right
27,2,binary,6,1,trial,12746763.0,12748063.0,1300.0,56,R,12747746,12748312,568,478.7,551.9,4190,left
27,2,binary,7,2,fixationCross,12748930.0,12749896.0,966.0,57,R,12748478,12748870,394,969.8,506.7,4285,NA
27,2,binary,7,2,trial,12748930.0,12749896.0,966.0,57,R,12748884,12749154,272,955.4,532.1,4443,NA
27,2,binary,7,2,trial,12748930.0,12749896.0,966.0,57,R,12749200,12749344,146,1379.1,494.7,4208,right
27,2,binary,7,2,trial,12748930.0,12749896.0,966.0,57,R,12749366,12749544,180,1419.9,588.3,4122,right
27,2,binary,7,2,trial,12748930.0,12749896.0,966.0,57,R,12749602,12750178,578,573.5,469.7,4078,left
27,2,binary,8,1,fixationCross,12752680.0,12754679.0,1999.0,58,R,12750306,12752386,2082,803.7,513.0,4253,NA
27,2,binary,8,1,trial,12752680.0,12754679.0,1999.0,58,R,12752412,12752890,480,899.8,508.0,4561,NA
27,2,binary,8,1,trial,12752680.0,12754679.0,1999.0,58,R,12752956,12753078,124,1227.2,470.7,4436,right
27,2,binary,8,1,trial,12752680.0,12754679.0,1999.0,58,R,12753122,12753446,326,1605.4,467.9,4120,right
27,2,binary,8,1,trial,12752680.0,12754679.0,1999.0,58,R,12753524,12753694,172,673.5,791.0,4224,NA
27,2,binary,8,1,trial,12752680.0,12754679.0,1999.0,58,R,12753724,12753922,200,451.9,927.8,4241,NA
27,2,binary,8,1,trial,12752680.0,12754679.0,1999.0,58,R,12753984,12754300,318,469.0,459.6,4222,left
27,2,binary,8,1,trial,12752680.0,12754679.0,1999.0,58,R,12754322,12754886,566,473.8,501.3,3986,left
27,2,binary,9,2,fixationCross,12755913.0,12757080.0,1167.0,59,R,12755106,12755326,222,750.4,449.8,3896,NA
27,2,binary,9,2,trial,12755913.0,12757080.0,1167.0,59,R,12755352,12756150,800,888.0,466.7,4174,NA
27,2,binary,9,2,trial,12755913.0,12757080.0,1167.0,59,R,12756194,12756420,228,518.8,468.9,4282,left
27,2,binary,9,2,trial,12755913.0,12757080.0,1167.0,59,R,12756446,12756612,168,478.0,416.9,4149,left
27,2,binary,9,2,trial,12755913.0,12757080.0,1167.0,59,R,12756670,12757342,674,1385.5,503.7,3942,right
27,2,binary,10,1,fixationCross,12758230.0,12759547.0,1317.0,60,R,12757492,12757924,434,847.2,518.3,4201,NA
27,2,binary,10,1,fixationCross,12758230.0,12759547.0,1317.0,60,R,12757950,12758164,216,902.2,557.7,4299,NA
27,2,binary,10,1,trial,12758230.0,12759547.0,1317.0,60,R,12758190,12758420,232,835.0,616.9,4259,NA
27,2,binary,10,1,trial,12758230.0,12759547.0,1317.0,60,R,12758466,12758760,296,546.2,543.4,4180,left
27,2,binary,10,1,trial,12758230.0,12759547.0,1317.0,60,R,12758820,12759024,206,1389.3,470.8,3696,right
27,2,binary,10,1,trial,12758230.0,12759547.0,1317.0,60,R,12759046,12759226,182,1417.2,409.3,3499,right
27,2,binary,10,1,trial,12758230.0,12759547.0,1317.0,60,R,12759250,12759340,92,1519.0,424.3,3417,right
27,2,binary,10,1,trial,12758230.0,12759547.0,1317.0,60,R,12759404,12759786,384,585.3,549.2,3579,left
27,2,binary,11,1,fixationCross,12760679.0,12762397.0,1718.0,61,R,12759972,12760368,398,784.1,462.3,3813,NA
27,2,binary,11,1,fixationCross,12760679.0,12762397.0,1718.0,61,R,12760392,12760600,210,902.8,500.8,4018,NA
27,2,binary,11,1,trial,12760679.0,12762397.0,1718.0,61,R,12760634,12760862,230,827.4,513.6,3949,NA
27,2,binary,11,1,trial,12760679.0,12762397.0,1718.0,61,R,12760904,12761134,232,479.5,524.0,3918,left
27,2,binary,11,1,trial,12760679.0,12762397.0,1718.0,61,R,12761200,12761728,530,1420.0,476.4,3585,right
27,2,binary,11,1,trial,12760679.0,12762397.0,1718.0,61,R,12761792,12761892,102,670.5,617.6,3716,left
27,2,binary,11,1,trial,12760679.0,12762397.0,1718.0,61,R,12761954,12762202,250,1515.5,544.4,3538,right
27,2,binary,11,1,trial,12760679.0,12762397.0,1718.0,61,R,12762278,12762646,370,459.2,694.1,3993,left
27,2,binary,12,1,fixationCross,12765646.0,12767513.0,1867.0,62,R,12762804,12762990,188,519.4,480.4,4056,left
27,2,binary,12,1,fixationCross,12765646.0,12767513.0,1867.0,62,R,12763014,12763278,266,680.9,485.1,4091,left
27,2,binary,12,1,fixationCross,12765646.0,12767513.0,1867.0,62,R,12763306,12764284,980,848.9,516.4,4046,NA
27,2,binary,12,1,fixationCross,12765646.0,12767513.0,1867.0,62,R,12764310,12764522,214,791.5,492.0,4203,NA
27,2,binary,12,1,fixationCross,12765646.0,12767513.0,1867.0,62,R,12764548,12764854,308,860.3,499.7,4277,NA
27,2,binary,12,1,fixationCross,12765646.0,12767513.0,1867.0,62,R,12764878,12765444,568,840.8,531.9,4364,NA
27,2,binary,12,1,fixationCross,12765646.0,12767513.0,1867.0,62,R,12765468,12765580,114,912.0,522.1,4184,NA
27,2,binary,12,1,trial,12765646.0,12767513.0,1867.0,62,R,12765720,12765906,188,899.5,502.6,4207,NA
27,2,binary,12,1,trial,12765646.0,12767513.0,1867.0,62,R,12765954,12766236,284,1448.7,531.6,4088,right
27,2,binary,12,1,trial,12765646.0,12767513.0,1867.0,62,R,12766256,12766610,356,1389.5,559.0,3846,right
27,2,binary,12,1,trial,12765646.0,12767513.0,1867.0,62,R,12766628,12767080,454,1426.5,542.3,3762,right
27,2,binary,12,1,trial,12765646.0,12767513.0,1867.0,62,R,12767152,12767726,576,533.1,528.9,4012,left
27,2,binary,13,2,fixationCross,12768647.0,12770130.0,1483.0,63,R,12768076,12768346,272,822.0,441.1,4160,NA
27,2,binary,13,2,fixationCross,12768647.0,12770130.0,1483.0,63,R,12768382,12768566,186,942.2,496.6,4350,NA
27,2,binary,13,2,trial,12768647.0,12770130.0,1483.0,63,R,12768582,12768880,300,929.8,517.9,4190,NA
27,2,binary,13,2,trial,12768647.0,12770130.0,1483.0,63,R,12768930,12769178,250,1389.9,496.9,3929,right
27,2,binary,13,2,trial,12768647.0,12770130.0,1483.0,63,R,12769192,12769312,122,1389.7,539.4,3825,right
27,2,binary,13,2,trial,12768647.0,12770130.0,1483.0,63,R,12769384,12769794,412,453.5,500.8,3776,left
27,2,binary,13,2,trial,12768647.0,12770130.0,1483.0,63,R,12769806,12769892,88,474.3,479.8,3727,left
27,2,binary,13,2,trial,12768647.0,12770130.0,1483.0,63,R,12769956,12770350,396,1422.8,609.2,3586,right
27,2,binary,14,2,trial,12771030.0,12772330.0,1300.0,64,R,12770564,12771288,726,918.5,517.1,3981,NA
27,2,binary,14,2,trial,12771030.0,12772330.0,1300.0,64,R,12771334,12771526,194,542.6,497.9,4132,left
27,2,binary,14,2,trial,12771030.0,12772330.0,1300.0,64,R,12771550,12771764,216,414.9,485.1,4132,left
27,2,binary,14,2,trial,12771030.0,12772330.0,1300.0,64,R,12771784,12771882,100,370.7,484.5,4159,left
27,2,binary,14,2,trial,12771030.0,12772330.0,1300.0,64,R,12771946,12772562,618,1379.7,469.3,3927,right
27,2,binary,15,1,fixationCross,12773263.0,12774397.0,1134.0,65,R,12772740,12773030,292,904.4,609.8,3807,NA
27,2,binary,15,1,fixationCross,12773263.0,12774397.0,1134.0,65,R,12773062,12773250,190,969.5,502.3,3936,NA
27,2,binary,15,1,trial,12773263.0,12774397.0,1134.0,65,R,12773270,12773498,230,937.7,526.7,4090,NA
27,2,binary,15,1,trial,12773263.0,12774397.0,1134.0,65,R,12773544,12773716,174,533.2,518.7,4157,left
27,2,binary,15,1,trial,12773263.0,12774397.0,1134.0,65,R,12773770,12774076,308,1347.4,543.7,3718,right
27,2,binary,15,1,trial,12773263.0,12774397.0,1134.0,65,R,12774100,12774330,232,1407.9,529.3,3525,right
27,2,binary,15,1,trial,12773263.0,12774397.0,1134.0,65,R,12774400,12774600,202,490.2,838.4,3783,NA
27,2,binary,16,1,fixationCross,12775363.0,12776380.0,1017.0,66,R,12774806,12775058,254,780.2,503.8,3809,NA
27,2,binary,16,1,trial,12775363.0,12776380.0,1017.0,66,R,12775086,12775564,480,908.1,466.3,4063,NA
27,2,binary,16,1,trial,12775363.0,12776380.0,1017.0,66,R,12775612,12775786,176,1407.8,525.3,4084,right
27,2,binary,16,1,trial,12775363.0,12776380.0,1017.0,66,R,12775846,12776618,774,525.3,545.9,3949,left
27,2,binary,17,2,fixationCross,12777530.0,12778430.0,900.0,67,R,12776792,12776914,124,703.4,460.5,3696,left
27,2,binary,17,2,fixationCross,12777530.0,12778430.0,900.0,67,R,12776938,12777226,290,813.2,481.6,3843,NA
27,2,binary,17,2,trial,12777530.0,12778430.0,900.0,67,R,12777252,12777700,450,902.8,520.2,3985,NA
27,2,binary,17,2,trial,12777530.0,12778430.0,900.0,67,R,12777742,12778022,282,589.0,475.9,3913,left
27,2,binary,17,2,trial,12777530.0,12778430.0,900.0,67,R,12778084,12778654,572,1408.4,540.0,3493,right
27,2,binary,18,2,fixationCross,12780113.0,12781196.0,1083.0,68,R,12778842,12779068,228,977.3,506.2,3600,NA
27,2,binary,18,2,fixationCross,12780113.0,12781196.0,1083.0,68,R,12779094,12779860,768,779.5,504.8,4034,NA
27,2,binary,18,2,trial,12780113.0,12781196.0,1083.0,68,R,12779882,12780288,408,897.0,499.2,3943,NA
27,2,binary,18,2,trial,12780113.0,12781196.0,1083.0,68,R,12780322,12780632,312,542.1,523.7,3932,left
27,2,binary,18,2,trial,12780113.0,12781196.0,1083.0,68,R,12780688,12781036,350,1308.4,502.9,3691,right
27,2,binary,18,2,trial,12780113.0,12781196.0,1083.0,68,R,12781062,12781236,176,1391.5,518.3,3571,right
27,2,binary,19,2,fixationCross,12782880.0,12784280.0,1400.0,69,R,12781626,12781858,234,1093.8,440.7,3559,NA
27,2,binary,19,2,fixationCross,12782880.0,12784280.0,1400.0,69,R,12781884,12782496,614,891.6,460.2,3833,NA
27,2,binary,19,2,fixationCross,12782880.0,12784280.0,1400.0,69,R,12782520,12782724,206,774.8,464.1,3927,NA
27,2,binary,19,2,trial,12782880.0,12784280.0,1400.0,69,R,12782748,12783078,332,888.1,478.4,4052,NA
27,2,binary,19,2,trial,12782880.0,12784280.0,1400.0,69,R,12783122,12783350,230,499.9,498.5,4145,left
27,2,binary,19,2,trial,12782880.0,12784280.0,1400.0,69,R,12783408,12783602,196,1352.1,489.8,3680,right
27,2,binary,19,2,trial,12782880.0,12784280.0,1400.0,69,R,12783624,12783772,150,1399.4,433.9,3577,right
27,2,binary,19,2,trial,12782880.0,12784280.0,1400.0,69,R,12783794,12784174,382,1308.1,393.2,3707,right
27,2,binary,19,2,trial,12782880.0,12784280.0,1400.0,69,R,12784326,12784496,172,1272.1,416.2,3946,right
27,2,binary,19,2,postResponse,12782880.0,12784280.0,1400.0,69,R,12784542,12784630,90,947.5,370.3,4107,NA
27,2,binary,20,1,fixationCross,12785463.0,12786897.0,1434.0,70,R,12784704,12785154,452,938.9,378.4,4350,NA
27,2,binary,20,1,fixationCross,12785463.0,12786897.0,1434.0,70,R,12785186,12785386,202,931.4,498.0,4520,NA
27,2,binary,20,1,trial,12785463.0,12786897.0,1434.0,70,R,12785516,12785776,262,932.7,477.3,4743,NA
27,2,binary,20,1,trial,12785463.0,12786897.0,1434.0,70,R,12785820,12786014,196,542.9,532.6,4965,left
27,2,binary,20,1,trial,12785463.0,12786897.0,1434.0,70,R,12786072,12786282,212,1342.3,554.1,4508,right
27,2,binary,20,1,trial,12785463.0,12786897.0,1434.0,70,R,12786308,12786514,208,1486.9,549.3,4193,right
27,2,binary,20,1,trial,12785463.0,12786897.0,1434.0,70,R,12786538,12786632,96,1560.4,510.1,4138,right
27,2,binary,20,1,trial,12785463.0,12786897.0,1434.0,70,R,12786700,12787160,462,475.6,589.0,4398,left
27,2,binary,21,2,fixationCross,12788813.0,12789780.0,967.0,71,R,12787306,12787444,140,775.7,404.6,4515,NA
27,2,binary,21,2,fixationCross,12788813.0,12789780.0,967.0,71,R,12787558,12787780,224,789.8,391.9,4706,NA
27,2,binary,21,2,fixationCross,12788813.0,12789780.0,967.0,71,R,12787808,12788178,372,989.4,383.9,4788,NA
27,2,binary,21,2,fixationCross,12788813.0,12789780.0,967.0,71,R,12788248,12788476,230,1759.8,344.6,4433,NA
27,2,binary,21,2,trial,12788813.0,12789780.0,967.0,71,R,12788546,12789020,476,887.4,492.6,4550,NA
27,2,binary,21,2,trial,12788813.0,12789780.0,967.0,71,R,12789088,12789234,148,482.9,465.6,4478,left
27,2,binary,21,2,trial,12788813.0,12789780.0,967.0,71,R,12789312,12789666,356,1500.1,507.1,4047,right
27,2,binary,21,2,postResponse,12788813.0,12789780.0,967.0,71,R,12789680,12790116,438,1447.0,502.9,3961,right
27,2,binary,22,2,trial,12790664.0,12792130.0,1466.0,72,R,12790190,12790862,674,898.4,512.8,4135,NA
27,2,binary,22,2,trial,12790664.0,12792130.0,1466.0,72,R,12790894,12791000,108,575.2,537.0,4371,left
27,2,binary,22,2,trial,12790664.0,12792130.0,1466.0,72,R,12791106,12791228,124,424.4,484.9,4218,left
27,2,binary,22,2,trial,12790664.0,12792130.0,1466.0,72,R,12791250,12791446,198,366.9,402.3,4026,left
27,2,binary,22,2,trial,12790664.0,12792130.0,1466.0,72,R,12791510,12791670,162,1381.9,535.4,3765,right
27,2,binary,22,2,trial,12790664.0,12792130.0,1466.0,72,R,12791686,12791840,156,1354.7,485.1,3681,right
27,2,binary,22,2,trial,12790664.0,12792130.0,1466.0,72,R,12791868,12792406,540,1529.2,456.5,3686,right
27,2,binary,23,1,fixationCross,12793113.0,12795897.0,2784.0,73,R,12792584,12792818,236,860.1,583.5,3974,NA
27,2,binary,23,1,trial,12793113.0,12795897.0,2784.0,73,R,12792844,12793338,496,944.1,498.9,4098,NA
27,2,binary,23,1,trial,12793113.0,12795897.0,2784.0,73,R,12793382,12793784,404,572.5,485.6,4056,left
27,2,binary,23,1,trial,12793113.0,12795897.0,2784.0,73,R,12793844,12793930,88,1337.8,484.9,3770,right
27,2,binary,23,1,trial,12793113.0,12795897.0,2784.0,73,R,12794078,12794198,122,1419.0,428.7,3785,right
27,2,binary,23,1,trial,12793113.0,12795897.0,2784.0,73,R,12794338,12794614,278,669.7,435.0,4303,left
27,2,binary,23,1,trial,12793113.0,12795897.0,2784.0,73,R,12794650,12794896,248,550.1,423.5,4470,left
27,2,binary,23,1,trial,12793113.0,12795897.0,2784.0,73,R,12794956,12795112,158,1288.5,431.1,4249,right
27,2,binary,23,1,trial,12793113.0,12795897.0,2784.0,73,R,12795150,12795386,238,1420.3,430.7,4133,right
27,2,binary,23,1,trial,12793113.0,12795897.0,2784.0,73,R,12795458,12795780,324,568.5,520.7,4397,left
27,2,binary,23,1,trial,12793113.0,12795897.0,2784.0,73,R,12795844,12796142,300,481.4,939.4,4488,NA
27,2,binary,24,2,fixationCross,12798481.0,12799947.0,1466.0,74,R,12796322,12796870,550,799.8,404.3,4462,NA
27,2,binary,24,2,fixationCross,12798481.0,12799947.0,1466.0,74,R,12796896,12797206,312,892.7,424.6,4544,NA
27,2,binary,24,2,fixationCross,12798481.0,12799947.0,1466.0,74,R,12797232,12797446,216,974.7,434.8,4579,NA
27,2,binary,24,2,fixationCross,12798481.0,12799947.0,1466.0,74,R,12797470,12797664,196,940.0,431.5,4551,NA
27,2,binary,24,2,fixationCross,12798481.0,12799947.0,1466.0,74,R,12797778,12798174,398,926.3,404.1,4617,NA
27,2,binary,24,2,fixationCross,12798481.0,12799947.0,1466.0,74,R,12798198,12798342,146,1014.5,436.9,4650,NA
27,2,binary,24,2,trial,12798481.0,12799947.0,1466.0,74,R,12798368,12798482,116,967.9,502.1,4614,NA
27,2,binary,24,2,trial,12798481.0,12799947.0,1466.0,74,R,12798608,12798768,162,967.9,489.0,4539,NA
27,2,binary,24,2,trial,12798481.0,12799947.0,1466.0,74,R,12798818,12799078,262,1345.1,489.2,4375,right
27,2,binary,24,2,trial,12798481.0,12799947.0,1466.0,74,R,12799102,12799290,190,1408.6,493.4,4049,right
27,2,binary,24,2,trial,12798481.0,12799947.0,1466.0,74,R,12799410,12799518,110,1437.2,499.5,3772,right
27,2,binary,24,2,trial,12798481.0,12799947.0,1466.0,74,R,12799654,12800122,470,1421.9,925.1,3803,NA
27,2,binary,24,2,postResponse,12798481.0,12799947.0,1466.0,74,R,12800186,12800282,98,809.2,532.8,4105,NA
27,2,binary,25,2,fixationCross,12802363.0,12804547.0,2184.0,75,R,12800372,12800740,370,902.6,395.5,4032,NA
27,2,binary,25,2,fixationCross,12802363.0,12804547.0,2184.0,75,R,12800766,12800960,196,774.3,442.2,4137,NA
27,2,binary,25,2,fixationCross,12802363.0,12804547.0,2184.0,75,R,12800984,12801164,182,624.6,459.7,4219,left
27,2,binary,25,2,fixationCross,12802363.0,12804547.0,2184.0,75,R,12801190,12801400,212,848.3,428.6,4209,NA
27,2,binary,25,2,fixationCross,12802363.0,12804547.0,2184.0,75,R,12801424,12801506,84,953.1,448.5,4181,NA
27,2,binary,25,2,fixationCross,12802363.0,12804547.0,2184.0,75,R,12801536,12801746,212,767.5,472.3,4230,NA
27,2,binary,25,2,fixationCross,12802363.0,12804547.0,2184.0,75,R,12801768,12801942,176,691.4,475.5,4263,left
27,2,binary,25,2,fixationCross,12802363.0,12804547.0,2184.0,75,R,12801970,12802228,260,861.8,450.1,4161,NA
27,2,binary,25,2,trial,12802363.0,12804547.0,2184.0,75,R,12802254,12802446,194,1044.6,437.4,4068,NA
27,2,binary,25,2,trial,12802363.0,12804547.0,2184.0,75,R,12802474,12802588,116,922.8,472.8,4128,NA
27,2,binary,25,2,trial,12802363.0,12804547.0,2184.0,75,R,12802636,12802856,222,1472.4,457.7,3942,right
27,2,binary,25,2,trial,12802363.0,12804547.0,2184.0,75,R,12802922,12803158,238,532.8,522.1,3863,left
27,2,binary,25,2,trial,12802363.0,12804547.0,2184.0,75,R,12803184,12803354,172,601.9,510.5,3726,left
27,2,binary,25,2,trial,12802363.0,12804547.0,2184.0,75,R,12803418,12803684,268,1487.3,468.5,3614,right
27,2,binary,25,2,trial,12802363.0,12804547.0,2184.0,75,R,12803702,12804064,364,1437.4,481.5,3593,right
27,2,binary,25,2,trial,12802363.0,12804547.0,2184.0,75,R,12804080,12804286,208,1440.6,453.4,3657,right
27,2,binary,25,2,trial,12802363.0,12804547.0,2184.0,75,R,12804410,12804746,338,499.0,521.8,3911,left
27,2,binary,26,2,fixationCross,12831731.0,12833414.0,1683.0,76,R,12831049,12831279,232,1044.7,80.0,3991,NA
27,2,binary,26,2,fixationCross,12831731.0,12833414.0,1683.0,76,R,12831327,12831395,70,678.4,143.0,4050,NA
27,2,binary,26,2,fixationCross,12831731.0,12833414.0,1683.0,76,R,12831451,12831577,128,1038.9,559.8,4049,NA
27,2,binary,26,2,trial,12831731.0,12833414.0,1683.0,76,R,12831599,12831753,156,951.5,558.9,4095,NA
27,2,binary,26,2,trial,12831731.0,12833414.0,1683.0,76,R,12831765,12832007,244,953.7,537.7,4171,NA
27,2,binary,26,2,trial,12831731.0,12833414.0,1683.0,76,R,12832055,12832385,332,505.5,524.7,4147,left
27,2,binary,26,2,trial,12831731.0,12833414.0,1683.0,76,R,12832395,12832609,216,505.2,500.6,3997,left
27,2,binary,26,2,trial,12831731.0,12833414.0,1683.0,76,R,12832671,12833143,474,1448.6,481.3,3696,right
27,2,binary,26,2,trial,12831731.0,12833414.0,1683.0,76,R,12833193,12833347,156,1497.6,725.3,3586,right
27,2,binary,26,2,postResponse,12831731.0,12833414.0,1683.0,76,R,12833381,12833749,370,1442.0,947.0,3589,NA
27,2,binary,27,1,fixationCross,12834298.0,12836348.0,2050.0,77,R,12833897,12834189,294,916.6,514.4,3833,NA
27,2,binary,27,1,trial,12834298.0,12836348.0,2050.0,77,R,12834213,12834549,338,955.6,529.1,4038,NA
27,2,binary,27,1,trial,12834298.0,12836348.0,2050.0,77,R,12834599,12834801,204,476.6,555.3,4033,left
27,2,binary,27,1,trial,12834298.0,12836348.0,2050.0,77,R,12834865,12835251,388,1473.0,570.0,3617,right
27,2,binary,27,1,trial,12834298.0,12836348.0,2050.0,77,R,12835323,12835549,228,464.9,937.9,3808,NA
27,2,binary,27,1,trial,12834298.0,12836348.0,2050.0,77,R,12835599,12836057,460,420.5,579.4,3773,left
27,2,binary,27,1,trial,12834298.0,12836348.0,2050.0,77,R,12836083,12836571,490,486.3,557.6,3700,left
27,2,binary,28,1,fixationCross,12837315.0,12838597.0,1282.0,78,R,12836779,12836931,154,810.5,471.7,3727,NA
27,2,binary,28,1,fixationCross,12837315.0,12838597.0,1282.0,78,R,12836959,12837313,356,954.1,440.7,3979,NA
27,2,binary,28,1,trial,12837315.0,12838597.0,1282.0,78,R,12837335,12837571,238,936.4,488.5,4177,NA
27,2,binary,28,1,trial,12837315.0,12838597.0,1282.0,78,R,12837615,12837797,184,521.0,565.8,4200,left
27,2,binary,28,1,trial,12837315.0,12838597.0,1282.0,78,R,12837861,12838097,238,1426.3,505.8,3883,right
27,2,binary,28,1,trial,12837315.0,12838597.0,1282.0,78,R,12838205,12838699,496,495.1,622.8,3963,left
27,2,binary,28,1,trial,12837315.0,12838597.0,1282.0,78,R,12838725,12838865,142,565.7,578.4,4193,left
27,2,binary,29,2,fixationCross,12839864.0,12841631.0,1767.0,79,R,12839005,12839201,198,857.4,435.8,4136,NA
27,2,binary,29,2,fixationCross,12839864.0,12841631.0,1767.0,79,R,12839317,12839465,150,867.1,428.8,4299,NA
27,2,binary,29,2,trial,12839864.0,12841631.0,1767.0,79,R,12839595,12840051,458,927.1,476.2,4371,NA
27,2,binary,29,2,trial,12839864.0,12841631.0,1767.0,79,R,12840099,12840255,158,1444.4,511.4,4133,right
27,2,binary,29,2,trial,12839864.0,12841631.0,1767.0,79,R,12840267,12840615,350,1435.9,483.4,3880,right
27,2,binary,29,2,trial,12839864.0,12841631.0,1767.0,79,R,12840673,12840957,286,631.5,516.4,3882,left
27,2,binary,29,2,trial,12839864.0,12841631.0,1767.0,79,R,12840981,12841469,490,594.6,454.6,3688,left
27,2,binary,29,2,trial,12839864.0,12841631.0,1767.0,79,R,12841525,12841857,334,1346.7,578.5,3506,right
27,2,binary,30,1,fixationCross,12842547.0,12844664.0,2117.0,80,R,12842067,12842349,284,942.6,462.9,4016,NA
27,2,binary,30,1,trial,12842547.0,12844664.0,2117.0,80,R,12842371,12842749,380,914.6,475.0,4270,NA
27,2,binary,30,1,trial,12842547.0,12844664.0,2117.0,80,R,12842795,12843005,212,538.2,490.2,4287,left
27,2,binary,30,1,trial,12842547.0,12844664.0,2117.0,80,R,12843063,12843295,234,1350.6,515.1,4016,right
27,2,binary,30,1,trial,12842547.0,12844664.0,2117.0,80,R,12843323,12843769,448,1286.3,386.5,3919,right
27,2,binary,30,1,trial,12842547.0,12844664.0,2117.0,80,R,12843811,12843997,188,1462.7,591.2,3854,right
27,2,binary,30,1,trial,12842547.0,12844664.0,2117.0,80,R,12844061,12844391,332,513.3,570.0,3911,left
27,2,binary,30,1,trial,12842547.0,12844664.0,2117.0,80,R,12844417,12844563,148,469.4,467.0,3727,left
27,2,binary,30,1,trial,12842547.0,12844664.0,2117.0,80,R,12844575,12844599,26,435.7,486.6,3701,left
27,2,binary,30,1,postResponse,12842547.0,12844664.0,2117.0,80,R,12844945,12845001,58,873.2,490.1,3705,NA
27,2,binary,31,2,fixationCross,12846665.0,12847864.0,1199.0,81,R,12845103,12845271,170,1046.5,449.4,3870,NA
27,2,binary,31,2,fixationCross,12846665.0,12847864.0,1199.0,81,R,12845307,12846093,788,916.7,419.8,3853,NA
27,2,binary,31,2,fixationCross,12846665.0,12847864.0,1199.0,81,R,12846103,12846379,278,909.7,446.5,3814,NA
27,2,binary,31,2,fixationCross,12846665.0,12847864.0,1199.0,81,R,12846401,12846641,242,925.0,547.2,3890,NA
27,2,binary,31,2,trial,12846665.0,12847864.0,1199.0,81,R,12846657,12846897,242,937.7,534.7,3935,NA
27,2,binary,31,2,trial,12846665.0,12847864.0,1199.0,81,R,12846941,12847149,210,572.2,548.1,3925,left
27,2,binary,31,2,trial,12846665.0,12847864.0,1199.0,81,R,12847207,12847423,218,1313.4,596.7,3560,right
27,2,binary,31,2,trial,12846665.0,12847864.0,1199.0,81,R,12847445,12847913,470,1360.7,609.7,3406,right
27,2,binary,31,2,trial,12846665.0,12847864.0,1199.0,81,R,12848085,12848169,86,1040.3,459.3,3474,NA
27,2,binary,32,2,fixationCross,12848980.0,12851198.0,2218.0,82,R,12848317,12848697,382,947.5,430.4,3786,NA
27,2,binary,32,2,trial,12848980.0,12851198.0,2218.0,82,R,12848721,12849215,496,922.4,512.6,4038,NA
27,2,binary,32,2,trial,12848980.0,12851198.0,2218.0,82,R,12849265,12849437,174,523.7,500.0,4049,left
27,2,binary,32,2,trial,12848980.0,12851198.0,2218.0,82,R,12849497,12849815,320,1410.1,549.9,3661,right
27,2,binary,32,2,trial,12848980.0,12851198.0,2218.0,82,R,12849881,12850141,262,474.2,592.4,3815,left
27,2,binary,32,2,trial,12848980.0,12851198.0,2218.0,82,R,12850263,12850527,266,437.9,547.7,3824,left
27,2,binary,32,2,trial,12848980.0,12851198.0,2218.0,82,R,12850553,12850771,220,593.3,478.8,3858,left
27,2,binary,32,2,trial,12848980.0,12851198.0,2218.0,82,R,12850829,12851207,380,1461.8,579.7,3592,right
27,2,binary,32,2,trial,12848980.0,12851198.0,2218.0,82,R,12851229,12851421,194,1350.7,539.0,3558,right
27,2,binary,33,1,trial,12852080.0,12855714.0,3634.0,83,R,12851607,12852263,658,921.7,470.3,3788,NA
27,2,binary,33,1,trial,12852080.0,12855714.0,3634.0,83,R,12852319,12852521,204,450.0,527.0,4041,left
27,2,binary,33,1,trial,12852080.0,12855714.0,3634.0,83,R,12852553,12852753,202,486.4,496.1,3917,left
27,2,binary,33,1,trial,12852080.0,12855714.0,3634.0,83,R,12852813,12853053,242,1444.8,550.0,3651,right
27,2,binary,33,1,trial,12852080.0,12855714.0,3634.0,83,R,12853075,12853363,290,1473.1,531.3,3555,right
27,2,binary,33,1,trial,12852080.0,12855714.0,3634.0,83,R,12853493,12853741,250,1379.9,924.9,3643,NA
27,2,binary,33,1,trial,12852080.0,12855714.0,3634.0,83,R,12853791,12854097,308,1338.1,585.8,3837,right
27,2,binary,33,1,trial,12852080.0,12855714.0,3634.0,83,R,12854131,12854421,292,1423.0,696.7,3913,right
27,2,binary,33,1,trial,12852080.0,12855714.0,3634.0,83,R,12854439,12854665,228,1470.0,667.3,3939,right
27,2,binary,33,1,trial,12852080.0,12855714.0,3634.0,83,R,12854693,12855047,356,1414.0,497.2,3881,right
27,2,binary,33,1,trial,12852080.0,12855714.0,3634.0,83,R,12855069,12855299,232,1403.9,432.1,3635,right
27,2,binary,33,1,trial,12852080.0,12855714.0,3634.0,83,R,12855371,12855713,344,456.8,722.2,3670,left
27,2,binary,33,1,trial,12852080.0,12855714.0,3634.0,83,R,12855757,12855959,204,443.1,521.4,3677,left
27,2,binary,34,1,fixationCross,12857081.0,12858148.0,1067.0,84,R,12856125,12856273,150,801.0,412.0,3831,NA
27,2,binary,34,1,fixationCross,12857081.0,12858148.0,1067.0,84,R,12856299,12856755,458,891.5,406.0,3978,NA
27,2,binary,34,1,fixationCross,12857081.0,12858148.0,1067.0,84,R,12856777,12856955,180,946.9,446.3,4047,NA
27,2,binary,34,1,trial,12857081.0,12858148.0,1067.0,84,R,12856971,12857249,280,904.7,436.8,4047,NA
27,2,binary,34,1,trial,12857081.0,12858148.0,1067.0,84,R,12857293,12857567,276,542.2,471.1,4165,left
27,2,binary,34,1,trial,12857081.0,12858148.0,1067.0,84,R,12857633,12858013,382,1443.5,531.5,3713,right
27,2,binary,34,1,trial,12857081.0,12858148.0,1067.0,84,R,12858081,12858355,276,496.4,867.5,3835,NA
27,2,binary,35,1,fixationCross,12859198.0,12861464.0,2266.0,85,R,12858557,12858717,162,794.0,417.6,3943,NA
27,2,binary,35,1,trial,12859198.0,12861464.0,2266.0,85,R,12858743,12859349,608,935.1,444.7,4003,NA
27,2,binary,35,1,trial,12859198.0,12861464.0,2266.0,85,R,12859407,12860377,972,437.5,533.3,3702,left
27,2,binary,35,1,trial,12859198.0,12861464.0,2266.0,85,R,12860485,12860647,164,422.1,497.4,3642,left
27,2,binary,35,1,trial,12859198.0,12861464.0,2266.0,85,R,12860659,12860829,172,440.7,522.5,3769,left
27,2,binary,35,1,trial,12859198.0,12861464.0,2266.0,85,R,12860897,12861077,182,1413.8,547.2,3707,right
27,2,binary,35,1,trial,12859198.0,12861464.0,2266.0,85,R,12861107,12861259,154,1444.9,630.7,3628,right
27,2,binary,35,1,trial,12859198.0,12861464.0,2266.0,85,R,12861273,12861729,458,1466.4,658.1,3582,right
27,2,binary,36,1,fixationCross,12863315.0,12865598.0,2283.0,86,R,12861899,12862009,112,1048.5,444.8,3583,NA
27,2,binary,36,1,fixationCross,12863315.0,12865598.0,2283.0,86,R,12862033,12862861,830,910.6,434.2,3766,NA
27,2,binary,36,1,fixationCross,12863315.0,12865598.0,2283.0,86,R,12862873,12863121,250,896.3,461.3,3888,NA
27,2,binary,36,1,trial,12863315.0,12865598.0,2283.0,86,R,12863131,12863515,386,908.7,489.1,4022,NA
27,2,binary,36,1,trial,12863315.0,12865598.0,2283.0,86,R,12863563,12863739,178,1361.7,483.8,3894,right
27,2,binary,36,1,trial,12863315.0,12865598.0,2283.0,86,R,12863755,12863933,180,1369.5,434.7,3663,right
27,2,binary,36,1,trial,12863315.0,12865598.0,2283.0,86,R,12864065,12864327,264,1401.8,404.3,3449,right
27,2,binary,36,1,trial,12863315.0,12865598.0,2283.0,86,R,12864383,12864521,140,598.3,497.3,3745,left
27,2,binary,36,1,trial,12863315.0,12865598.0,2283.0,86,R,12864543,12864691,150,510.2,501.8,3765,left
27,2,binary,36,1,trial,12863315.0,12865598.0,2283.0,86,R,12864707,12865031,326,530.4,533.1,3708,left
27,2,binary,36,1,trial,12863315.0,12865598.0,2283.0,86,R,12865095,12865299,206,1481.3,444.7,3471,right
27,2,binary,36,1,trial,12863315.0,12865598.0,2283.0,86,R,12865317,12865577,262,1413.1,409.5,3421,right
27,2,binary,36,1,trial,12863315.0,12865598.0,2283.0,86,R,12865607,12865873,268,1467.6,517.0,3420,right
27,2,binary,37,2,fixationCross,12866681.0,12867964.0,1283.0,87,R,12866005,12866205,202,993.2,526.6,3549,NA
27,2,binary,37,2,fixationCross,12866681.0,12867964.0,1283.0,87,R,12866229,12866427,200,835.8,485.3,3733,NA
27,2,binary,37,2,trial,12866681.0,12867964.0,1283.0,87,R,12866453,12866899,448,905.9,519.6,3917,NA
27,2,binary,37,2,trial,12866681.0,12867964.0,1283.0,87,R,12866947,12867181,236,1390.5,481.4,3803,right
27,2,binary,37,2,trial,12866681.0,12867964.0,1283.0,87,R,12867245,12867499,256,548.2,535.9,3706,left
27,2,binary,37,2,trial,12866681.0,12867964.0,1283.0,87,R,12867525,12867725,202,399.1,573.8,3568,left
27,2,binary,37,2,trial,12866681.0,12867964.0,1283.0,87,R,12867797,12868167,372,1410.4,556.1,3379,right
27,2,binary,38,1,fixationCross,12869264.0,12870614.0,1350.0,88,R,12868399,12868549,152,742.0,511.7,3651,NA
27,2,binary,38,1,fixationCross,12869264.0,12870614.0,1350.0,88,R,12868579,12868921,344,829.1,487.1,3910,NA
27,2,binary,38,1,fixationCross,12869264.0,12870614.0,1350.0,88,R,12868935,12869137,204,870.0,505.3,4085,NA
27,2,binary,38,1,trial,12869264.0,12870614.0,1350.0,88,R,12869167,12869505,340,836.4,519.2,4141,NA
27,2,binary,38,1,trial,12869264.0,12870614.0,1350.0,88,R,12869567,12869785,220,1337.3,514.7,3897,right
27,2,binary,38,1,trial,12869264.0,12870614.0,1350.0,88,R,12869807,12870193,388,1417.7,465.7,3690,right
27,2,binary,38,1,trial,12869264.0,12870614.0,1350.0,88,R,12870257,12870865,610,473.6,528.6,3738,left
27,2,binary,39,2,fixationCross,12871698.0,12873481.0,1783.0,89,R,12871023,12871389,368,738.8,456.2,3873,NA
27,2,binary,39,2,trial,12871698.0,12873481.0,1783.0,89,R,12871421,12871915,496,887.4,516.3,4092,NA
27,2,binary,39,2,trial,12871698.0,12873481.0,1783.0,89,R,12871963,12872173,212,1301.9,473.0,4149,right
27,2,binary,39,2,trial,12871698.0,12873481.0,1783.0,89,R,12872201,12872331,132,1377.1,521.0,4207,right
27,2,binary,39,2,trial,12871698.0,12873481.0,1783.0,89,R,12872399,12872727,330,542.9,503.4,4437,left
27,2,binary,39,2,trial,12871698.0,12873481.0,1783.0,89,R,12872761,12872971,212,509.6,425.4,4332,left
27,2,binary,39,2,trial,12871698.0,12873481.0,1783.0,89,R,12873001,12873129,130,408.6,429.6,4272,left
27,2,binary,39,2,trial,12871698.0,12873481.0,1783.0,89,R,12873193,12873713,522,1399.0,525.3,4168,right
27,2,binary,40,2,fixationCross,12874414.0,12875915.0,1501.0,90,R,12873917,12874307,392,979.4,499.5,4277,NA
27,2,binary,40,2,trial,12874414.0,12875915.0,1501.0,90,R,12874335,12874719,386,951.1,521.1,4412,NA
27,2,binary,40,2,trial,12874414.0,12875915.0,1501.0,90,R,12874777,12875029,254,474.0,526.1,4357,left
27,2,binary,40,2,trial,12874414.0,12875915.0,1501.0,90,R,12875063,12875303,242,519.2,577.4,4118,left
27,2,binary,40,2,trial,12874414.0,12875915.0,1501.0,90,R,12875333,12875421,90,575.3,644.5,4055,left
27,2,binary,40,2,trial,12874414.0,12875915.0,1501.0,90,R,12875477,12875807,332,1358.7,557.2,4099,right
27,2,binary,40,2,postResponse,12874414.0,12875915.0,1501.0,90,R,12875827,12876249,424,1378.0,634.8,4082,right
27,2,binary,41,1,fixationCross,12877731.0,12879098.0,1367.0,91,R,12876323,12876539,218,859.0,472.8,4161,NA
27,2,binary,41,1,fixationCross,12877731.0,12879098.0,1367.0,91,R,12876563,12876791,230,694.9,494.5,4319,left
27,2,binary,41,1,fixationCross,12877731.0,12879098.0,1367.0,91,R,12876811,12877175,366,710.1,521.4,4458,left
27,2,binary,41,1,fixationCross,12877731.0,12879098.0,1367.0,91,R,12877201,12877439,240,809.4,496.3,4359,NA
27,2,binary,41,1,fixationCross,12877731.0,12879098.0,1367.0,91,R,12877459,12877647,190,895.0,499.4,4321,NA
27,2,binary,41,1,trial,12877731.0,12879098.0,1367.0,91,R,12877665,12877887,224,823.1,491.1,4370,NA
27,2,binary,41,1,trial,12877731.0,12879098.0,1367.0,91,R,12877931,12878017,88,523.0,503.4,4391,left
27,2,binary,41,1,trial,12877731.0,12879098.0,1367.0,91,R,12878073,12878375,304,1348.9,500.9,4024,right
27,2,binary,41,1,trial,12877731.0,12879098.0,1367.0,91,R,12878405,12878577,174,1411.9,477.3,3790,right
27,2,binary,41,1,trial,12877731.0,12879098.0,1367.0,91,R,12878653,12878833,182,444.5,562.3,3927,left
27,2,binary,41,1,trial,12877731.0,12879098.0,1367.0,91,R,12878859,12879101,244,528.9,490.7,3798,left
