participantNo,block,task,blockTrial,response,trialStage,trialStartTime,trialFinishTime,rt,trial,eye,fixStart,fixEnd,fixLength,fixPosX,fixPosY,dilation,aoi
52,1,binary,1,2,fixationCross,17451461.0,17454844.0,3383.0,1,R,17450844,17451248,406,933.2,441.7,5581,NA
52,1,binary,1,2,trial,17451461.0,17454844.0,3383.0,1,R,17451266,17451748,484,960.3,532.6,5598,NA
52,1,binary,1,2,trial,17451461.0,17454844.0,3383.0,1,R,17451800,17451918,120,550.6,592.9,5643,left
52,1,binary,1,2,trial,17451461.0,17454844.0,3383.0,1,R,17451976,17452100,126,492.4,1063.4,5453,NA
52,1,binary,1,2,trial,17451461.0,17454844.0,3383.0,1,R,17452112,17452304,194,458.6,1052.3,5383,NA
52,1,binary,1,2,trial,17451461.0,17454844.0,3383.0,1,R,17452356,17452736,382,498.8,481.4,5354,left
52,1,binary,1,2,trial,17451461.0,17454844.0,3383.0,1,R,17452754,17453448,696,551.7,435.5,5560,left
52,1,binary,1,2,trial,17451461.0,17454844.0,3383.0,1,R,17453520,17453860,342,1475.6,472.8,5417,right
52,1,binary,1,2,trial,17451461.0,17454844.0,3383.0,1,R,17453936,17454382,448,450.9,452.1,5520,left
52,1,binary,1,2,trial,17451461.0,17454844.0,3383.0,1,R,17454406,17454448,44,543.9,520.2,5411,left
52,1,binary,1,2,postResponse,17451461.0,17454844.0,3383.0,1,R,17454522,17455204,684,1531.1,587.4,5291,right
52,1,binary,2,1,fixationCross,17455977.0,17458278.0,2301.0,2,R,17455330,17455646,318,1125.4,476.7,5611,NA
52,1,binary,2,1,trial,17455977.0,17458278.0,2301.0,2,R,17455672,17456132,462,956.8,527.0,5917,NA
52,1,binary,2,1,trial,17455977.0,17458278.0,2301.0,2,R,17456184,17456446,264,523.0,514.0,5803,left
52,1,binary,2,1,trial,17455977.0,17458278.0,2301.0,2,R,17456462,17456806,346,459.5,534.8,5389,left
52,1,binary,2,1,trial,17455977.0,17458278.0,2301.0,2,R,17456826,17457096,272,533.7,529.1,5088,left
52,1,binary,2,1,trial,17455977.0,17458278.0,2301.0,2,R,17457114,17457272,160,467.5,529.1,5014,left
52,1,binary,2,1,trial,17455977.0,17458278.0,2301.0,2,R,17457344,17457544,202,1411.5,500.0,4821,right
52,1,binary,2,1,trial,17455977.0,17458278.0,2301.0,2,R,17457560,17457674,116,1443.2,540.4,4804,right
52,1,binary,2,1,trial,17455977.0,17458278.0,2301.0,2,R,17457746,17458130,386,478.5,517.3,5032,left
52,1,binary,2,1,trial,17455977.0,17458278.0,2301.0,2,R,17458146,17458528,384,438.5,559.0,5048,left
52,1,binary,2,1,postResponse,17455977.0,17458278.0,2301.0,2,R,17458554,17458638,86,632.4,504.6,5027,left
52,1,binary,3,1,fixationCross,17459211.0,17461461.0,2250.0,3,R,17458716,17458734,20,642.2,503.5,5038,left
52,1,binary,3,1,fixationCross,17459211.0,17461461.0,2250.0,3,R,17458782,17459118,338,955.9,469.1,5169,NA
52,1,binary,3,1,trial,17459211.0,17461461.0,2250.0,3,R,17459132,17459440,310,957.3,510.3,5486,NA
52,1,binary,3,1,trial,17459211.0,17461461.0,2250.0,3,R,17459486,17459700,216,589.2,504.2,5538,left
52,1,binary,3,1,trial,17459211.0,17461461.0,2250.0,3,R,17459720,17459832,114,499.6,533.9,5406,left
52,1,binary,3,1,trial,17459211.0,17461461.0,2250.0,3,R,17459900,17460094,196,1434.3,531.5,5173,right
52,1,binary,3,1,trial,17459211.0,17461461.0,2250.0,3,R,17460110,17460468,360,1471.4,570.1,5105,right
52,1,binary,3,1,trial,17459211.0,17461461.0,2250.0,3,R,17460532,17460816,286,605.8,525.9,5100,left
52,1,binary,3,1,trial,17459211.0,17461461.0,2250.0,3,R,17460832,17461090,260,569.8,488.0,5042,left
52,1,binary,3,1,trial,17459211.0,17461461.0,2250.0,3,R,17461116,17461706,592,458.2,544.7,5112,left
52,1,binary,4,1,fixationCross,17462660.0,17466311.0,3651.0,4,R,17461886,17462068,184,1253.6,403.9,5061,right
52,1,binary,4,1,fixationCross,17462660.0,17466311.0,3651.0,4,R,17462102,17462352,252,1058.1,475.7,5502,NA
52,1,binary,4,1,trial,17462660.0,17466311.0,3651.0,4,R,17462372,17462884,514,968.2,514.3,5840,NA
52,1,binary,4,1,trial,17462660.0,17466311.0,3651.0,4,R,17462934,17463060,128,1377.6,513.9,5532,right
52,1,binary,4,1,trial,17462660.0,17466311.0,3651.0,4,R,17463078,17463258,182,1398.5,576.4,5286,right
52,1,binary,4,1,trial,17462660.0,17466311.0,3651.0,4,R,17463332,17463764,434,474.9,553.7,5176,left
52,1,binary,4,1,trial,17462660.0,17466311.0,3651.0,4,R,17463786,17464104,320,589.3,553.4,5009,left
52,1,binary,4,1,trial,17462660.0,17466311.0,3651.0,4,R,17464116,17464192,78,567.2,578.5,5003,left
52,1,binary,4,1,trial,17462660.0,17466311.0,3651.0,4,R,17464256,17464464,210,1343.1,583.8,4862,right
52,1,binary,4,1,trial,17462660.0,17466311.0,3651.0,4,R,17464484,17465024,542,1419.8,588.3,5075,right
52,1,binary,4,1,trial,17462660.0,17466311.0,3651.0,4,R,17465114,17465334,222,593.0,544.1,5273,left
52,1,binary,4,1,trial,17462660.0,17466311.0,3651.0,4,R,17465358,17465584,228,466.4,554.9,5308,left
52,1,binary,4,1,trial,17462660.0,17466311.0,3651.0,4,R,17465604,17465984,382,573.4,565.3,5246,left
52,1,binary,4,1,trial,17462660.0,17466311.0,3651.0,4,R,17466008,17466386,380,463.3,566.6,5162,left
52,1,binary,4,1,trial,17462660.0,17466311.0,3651.0,4,R,17466402,17466560,160,508.8,551.4,5124,left
52,1,binary,4,1,postResponse,17462660.0,17466311.0,3651.0,4,R,17466632,17466684,54,1021.7,486.2,5065,NA
52,1,binary,5,1,fixationCross,17467261.0,17468928.0,1667.0,5,R,17466760,17467052,294,1021.9,495.6,5220,NA
52,1,binary,5,1,trial,17467261.0,17468928.0,1667.0,5,R,17467070,17467472,404,959.3,524.4,5579,NA
52,1,binary,5,1,trial,17467261.0,17468928.0,1667.0,5,R,17467526,17467738,214,472.1,538.4,5632,left
52,1,binary,5,1,trial,17467261.0,17468928.0,1667.0,5,R,17467756,17467958,204,534.6,533.2,5521,left
52,1,binary,5,1,trial,17467261.0,17468928.0,1667.0,5,R,17468022,17468260,240,1403.5,509.8,5178,right
52,1,binary,5,1,trial,17467261.0,17468928.0,1667.0,5,R,17468280,17468526,248,1425.5,579.9,5116,right
52,1,binary,5,1,postResponse,17467261.0,17468928.0,1667.0,5,R,17468598,17469280,684,568.4,602.7,5382,left
52,1,binary,6,2,fixationCross,17469977.0,17471511.0,1534.0,6,R,17469354,17469462,110,528.2,587.5,5347,left
52,1,binary,6,2,fixationCross,17469977.0,17471511.0,1534.0,6,R,17469488,17469678,192,717.1,564.7,5375,left
52,1,binary,6,2,trial,17469977.0,17471511.0,1534.0,6,R,17469716,17470148,434,960.3,553.2,5522,NA
52,1,binary,6,2,trial,17469977.0,17471511.0,1534.0,6,R,17470200,17470458,260,509.6,540.1,5734,left
52,1,binary,6,2,trial,17469977.0,17471511.0,1534.0,6,R,17470524,17470812,290,1349.0,560.1,5334,right
52,1,binary,6,2,trial,17469977.0,17471511.0,1534.0,6,R,17470836,17471166,332,1517.1,611.1,5182,right
52,1,binary,6,2,trial,17469977.0,17471511.0,1534.0,6,R,17471244,17471444,202,454.2,508.4,5155,left
52,1,binary,6,2,postResponse,17469977.0,17471511.0,1534.0,6,R,17471466,17471860,396,480.2,428.7,4983,left
52,1,binary,7,1,fixationCross,17472461.0,17475561.0,3100.0,7,R,17471940,17472156,218,876.0,467.4,5001,NA
52,1,binary,7,1,trial,17472461.0,17475561.0,3100.0,7,R,17472180,17472670,492,953.6,529.6,5295,NA
52,1,binary,7,1,trial,17472461.0,17475561.0,3100.0,7,R,17472718,17472942,226,580.7,517.1,5362,left
52,1,binary,7,1,trial,17472461.0,17475561.0,3100.0,7,R,17472960,17473246,288,624.4,477.5,5170,left
52,1,binary,7,1,trial,17472461.0,17475561.0,3100.0,7,R,17473262,17473602,342,581.6,475.8,5111,left
52,1,binary,7,1,trial,17472461.0,17475561.0,3100.0,7,R,17473668,17473896,230,1423.7,522.3,4993,right
52,1,binary,7,1,trial,17472461.0,17475561.0,3100.0,7,R,17473916,17474142,228,1392.2,593.0,4944,right
52,1,binary,7,1,trial,17472461.0,17475561.0,3100.0,7,R,17474234,17474290,58,599.6,451.1,4933,left
52,1,binary,7,1,trial,17472461.0,17475561.0,3100.0,7,R,17474414,17474534,122,570.9,438.4,4840,left
52,1,binary,7,1,trial,17472461.0,17475561.0,3100.0,7,R,17474550,17474882,334,625.7,467.8,4958,left
52,1,binary,7,1,trial,17472461.0,17475561.0,3100.0,7,R,17474900,17475256,358,572.6,519.5,5079,left
52,1,binary,7,1,trial,17472461.0,17475561.0,3100.0,7,R,17475280,17475518,240,435.4,550.1,5116,left
52,1,binary,7,1,trial,17472461.0,17475561.0,3100.0,7,R,17475546,17475868,324,625.7,476.6,5157,left
52,1,binary,8,2,fixationCross,17476511.0,17478361.0,1850.0,8,R,17476008,17476170,164,853.7,521.4,5236,NA
52,1,binary,8,2,fixationCross,17476511.0,17478361.0,1850.0,8,R,17476186,17476412,228,911.2,515.2,5345,NA
52,1,binary,8,2,trial,17476511.0,17478361.0,1850.0,8,R,17476428,17476714,288,956.6,534.6,5434,NA
52,1,binary,8,2,trial,17476511.0,17478361.0,1850.0,8,R,17476760,17477006,248,596.2,513.1,5517,left
52,1,binary,8,2,trial,17476511.0,17478361.0,1850.0,8,R,17477044,17477164,122,320.9,490.9,5334,left
52,1,binary,8,2,trial,17476511.0,17478361.0,1850.0,8,R,17477240,17477492,254,1429.8,485.3,5041,right
52,1,binary,8,2,trial,17476511.0,17478361.0,1850.0,8,R,17477508,17477764,258,1447.5,532.5,5075,right
52,1,binary,8,2,trial,17476511.0,17478361.0,1850.0,8,R,17477794,17477984,192,1453.3,414.0,5024,right
52,1,binary,8,2,trial,17476511.0,17478361.0,1850.0,8,R,17478022,17478264,244,1467.5,628.4,4996,right
52,1,binary,8,2,postResponse,17476511.0,17478361.0,1850.0,8,R,17478336,17478706,372,463.8,488.7,5090,left
52,1,binary,9,1,fixationCross,17479294.0,17482178.0,2884.0,9,R,17478808,17478858,52,464.5,492.2,5119,left
52,1,binary,9,1,fixationCross,17479294.0,17482178.0,2884.0,9,R,17478912,17479136,226,879.9,519.3,5138,NA
52,1,binary,9,1,trial,17479294.0,17482178.0,2884.0,9,R,17479154,17479530,378,962.3,532.7,5370,NA
52,1,binary,9,1,trial,17479294.0,17482178.0,2884.0,9,R,17479584,17479914,332,1472.9,488.8,5393,right
52,1,binary,9,1,trial,17479294.0,17482178.0,2884.0,9,R,17479932,17480164,234,1432.0,436.1,5175,right
52,1,binary,9,1,trial,17479294.0,17482178.0,2884.0,9,R,17480236,17480662,428,454.5,601.3,5235,left
52,1,binary,9,1,trial,17479294.0,17482178.0,2884.0,9,R,17480682,17480938,258,506.9,570.9,5145,left
52,1,binary,9,1,trial,17479294.0,17482178.0,2884.0,9,R,17481008,17481140,134,1422.2,471.8,4882,right
52,1,binary,9,1,trial,17479294.0,17482178.0,2884.0,9,R,17481156,17481644,490,1428.9,433.8,4815,right
52,1,binary,9,1,trial,17479294.0,17482178.0,2884.0,9,R,17481718,17482446,730,449.1,573.6,4877,left
52,1,binary,10,1,fixationCross,17483311.0,17485111.0,1800.0,10,R,17482618,17482800,184,1120.2,545.1,5149,NA
52,1,binary,10,1,fixationCross,17483311.0,17485111.0,1800.0,10,R,17482946,17483028,84,1078.2,547.1,5475,NA
52,1,binary,10,1,trial,17483311.0,17485111.0,1800.0,10,R,17483050,17483512,464,956.1,543.8,5540,NA
52,1,binary,10,1,trial,17483311.0,17485111.0,1800.0,10,R,17483564,17483776,214,474.0,533.6,5362,left
52,1,binary,10,1,trial,17483311.0,17485111.0,1800.0,10,R,17483796,17483968,174,506.4,467.6,5121,left
52,1,binary,10,1,trial,17483311.0,17485111.0,1800.0,10,R,17484040,17484264,226,1550.9,483.4,4769,right
52,1,binary,10,1,trial,17483311.0,17485111.0,1800.0,10,R,17484284,17484666,384,1504.1,417.3,4797,right
52,1,binary,10,1,postResponse,17483311.0,17485111.0,1800.0,10,R,17484738,17485460,724,513.0,480.0,4984,left
52,1,binary,11,1,fixationCross,17486245.0,17487478.0,1233.0,11,R,17485534,17485946,414,783.8,465.7,5204,NA
52,1,binary,11,1,trial,17486245.0,17487478.0,1233.0,11,R,17485972,17486430,460,955.2,544.5,5505,NA
52,1,binary,11,1,trial,17486245.0,17487478.0,1233.0,11,R,17486484,17486702,220,474.8,505.4,5589,left
52,1,binary,11,1,trial,17486245.0,17487478.0,1233.0,11,R,17486766,17487040,276,1324.6,545.9,5268,right
52,1,binary,11,1,trial,17486245.0,17487478.0,1233.0,11,R,17487062,17487718,658,1431.6,556.3,5071,right
52,1,binary,11,1,postResponse,17486245.0,17487478.0,1233.0,11,R,17487790,17487828,40,661.0,535.0,5143,left
52,1,binary,12,1,fixationCross,17488411.0,17491961.0,3550.0,12,R,17487930,17488098,170,656.1,534.7,5142,left
52,1,binary,12,1,fixationCross,17488411.0,17491961.0,3550.0,12,R,17488140,17488304,166,1031.7,529.0,5223,NA
52,1,binary,12,1,trial,17488411.0,17491961.0,3550.0,12,R,17488322,17488620,300,956.9,540.9,5349,NA
52,1,binary,12,1,trial,17488411.0,17491961.0,3550.0,12,R,17488674,17488838,166,441.4,516.9,5487,left
52,1,binary,12,1,trial,17488411.0,17491961.0,3550.0,12,R,17488862,17489020,160,345.3,449.4,5325,left
52,1,binary,12,1,trial,17488411.0,17491961.0,3550.0,12,R,17489058,17489208,152,633.4,511.2,5176,left
52,1,binary,12,1,trial,17488411.0,17491961.0,3550.0,12,R,17489274,17489438,166,1433.6,479.3,4908,right
52,1,binary,12,1,trial,17488411.0,17491961.0,3550.0,12,R,17489460,17489572,114,1429.0,551.5,4952,right
52,1,binary,12,1,trial,17488411.0,17491961.0,3550.0,12,R,17489584,17489798,216,1448.6,583.7,5052,right
52,1,binary,12,1,trial,17488411.0,17491961.0,3550.0,12,R,17489816,17490136,322,1507.9,643.8,5055,right
52,1,binary,12,1,trial,17488411.0,17491961.0,3550.0,12,R,17490160,17490382,224,1539.9,540.0,4851,right
52,1,binary,12,1,trial,17488411.0,17491961.0,3550.0,12,R,17490418,17490806,390,1235.7,503.5,4740,right
52,1,binary,12,1,trial,17488411.0,17491961.0,3550.0,12,R,17490878,17491044,168,398.8,478.5,4848,left
52,1,binary,12,1,trial,17488411.0,17491961.0,3550.0,12,R,17491064,17491268,206,321.3,427.5,4838,left
52,1,binary,12,1,trial,17488411.0,17491961.0,3550.0,12,R,17491312,17491572,262,631.7,535.9,4907,left
52,1,binary,12,1,trial,17488411.0,17491961.0,3550.0,12,R,17491586,17491982,398,639.9,573.6,5016,left
52,1,binary,12,1,trial,17488411.0,17491961.0,3550.0,12,R,17491994,17492122,130,666.7,562.4,4966,left
52,1,binary,12,1,postResponse,17488411.0,17491961.0,3550.0,12,R,17492194,17492306,114,1522.6,350.6,4791,right
52,1,binary,13,1,fixationCross,17493478.0,17495861.0,2383.0,13,R,17492382,17492420,40,1523.0,357.3,4934,right
52,1,binary,13,1,fixationCross,17493478.0,17495861.0,2383.0,13,R,17492454,17493142,690,1692.6,233.0,5065,NA
52,1,binary,13,1,fixationCross,17493478.0,17495861.0,2383.0,13,R,17493202,17493308,108,992.1,524.6,5324,NA
52,1,binary,13,1,trial,17493478.0,17495861.0,2383.0,13,R,17493322,17493708,388,947.4,544.4,5467,NA
52,1,binary,13,1,trial,17493478.0,17495861.0,2383.0,13,R,17493764,17493902,140,441.4,556.4,5571,left
52,1,binary,13,1,trial,17493478.0,17495861.0,2383.0,13,R,17493920,17494258,340,507.7,569.5,5404,left
52,1,binary,13,1,trial,17493478.0,17495861.0,2383.0,13,R,17494328,17494518,192,1378.9,474.8,5100,right
52,1,binary,13,1,trial,17493478.0,17495861.0,2383.0,13,R,17494536,17495030,496,1434.6,508.0,5133,right
52,1,binary,13,1,trial,17493478.0,17495861.0,2383.0,13,R,17495044,17495168,126,1380.9,513.5,5079,right
52,1,binary,13,1,trial,17493478.0,17495861.0,2383.0,13,R,17495240,17495404,166,458.3,567.2,5132,left
52,1,binary,13,1,postResponse,17493478.0,17495861.0,2383.0,13,R,17495420,17496198,780,498.9,574.9,5063,left
52,1,binary,14,1,fixationCross,17496961.0,17498127.0,1166.0,14,R,17496300,17496338,40,502.3,578.1,5205,left
52,1,binary,14,1,fixationCross,17496961.0,17498127.0,1166.0,14,R,17496392,17496664,274,821.5,518.3,5372,NA
52,1,binary,14,1,trial,17496961.0,17498127.0,1166.0,14,R,17496686,17497202,518,964.9,533.2,5722,NA
52,1,binary,14,1,trial,17496961.0,17498127.0,1166.0,14,R,17497256,17497458,204,461.9,555.9,5699,left
52,1,binary,14,1,trial,17496961.0,17498127.0,1166.0,14,R,17497534,17497734,202,1507.1,517.8,5251,right
52,1,binary,14,1,postResponse,17496961.0,17498127.0,1166.0,14,R,17497804,17498474,672,461.4,538.3,5170,left
52,1,binary,15,2,fixationCross,17499061.0,17500395.0,1334.0,15,R,17498648,17498902,256,985.1,455.6,5236,NA
52,1,binary,15,2,trial,17499061.0,17500395.0,1334.0,15,R,17498920,17499266,348,965.4,511.9,5703,NA
52,1,binary,15,2,trial,17499061.0,17500395.0,1334.0,15,R,17499324,17499542,220,1510.7,535.7,5688,right
52,1,binary,15,2,trial,17499061.0,17500395.0,1334.0,15,R,17499560,17499628,70,1563.0,513.1,5495,right
52,1,binary,15,2,trial,17499061.0,17500395.0,1334.0,15,R,17499702,17499952,252,552.4,579.1,5500,left
52,1,binary,15,2,trial,17499061.0,17500395.0,1334.0,15,R,17499968,17500136,170,538.1,630.9,5341,left
52,1,binary,15,2,trial,17499061.0,17500395.0,1334.0,15,R,17500206,17500692,488,1505.4,529.1,4942,right
52,1,binary,16,2,fixationCross,17501311.0,17503611.0,2300.0,16,R,17500830,17501004,176,816.1,487.8,5089,NA
52,1,binary,16,2,fixationCross,17501311.0,17503611.0,2300.0,16,R,17501020,17501184,166,893.6,492.1,5238,NA
52,1,binary,16,2,trial,17501311.0,17503611.0,2300.0,16,R,17501200,17501440,242,951.5,524.7,5410,NA
52,1,binary,16,2,trial,17501311.0,17503611.0,2300.0,16,R,17501488,17501694,208,559.7,519.5,5559,left
52,1,binary,16,2,trial,17501311.0,17503611.0,2300.0,16,R,17501714,17502398,686,473.5,535.3,5101,left
52,1,binary,16,2,trial,17501311.0,17503611.0,2300.0,16,R,17502468,17502748,282,1434.9,581.5,4657,right
52,1,binary,16,2,trial,17501311.0,17503611.0,2300.0,16,R,17502764,17502940,178,1383.1,597.2,4709,right
52,1,binary,16,2,trial,17501311.0,17503611.0,2300.0,16,R,17502972,17503258,288,1598.3,630.6,4689,right
52,1,binary,16,2,trial,17501311.0,17503611.0,2300.0,16,R,17503282,17503578,298,1425.1,649.1,4731,right
52,1,binary,16,2,postResponse,17501311.0,17503611.0,2300.0,16,R,17503654,17503962,310,489.4,506.9,5028,left
52,1,binary,17,1,fixationCross,17504711.0,17506178.0,1467.0,17,R,17504066,17504244,180,753.4,491.2,5152,NA
52,1,binary,17,1,fixationCross,17504711.0,17506178.0,1467.0,17,R,17504264,17504428,166,841.6,517.9,5238,NA
52,1,binary,17,1,fixationCross,17504711.0,17506178.0,1467.0,17,R,17504450,17504608,160,942.8,532.9,5385,NA
52,1,binary,17,1,trial,17504711.0,17506178.0,1467.0,17,R,17504648,17504882,236,672.1,539.2,5462,left
52,1,binary,17,1,trial,17504711.0,17506178.0,1467.0,17,R,17504904,17505054,152,559.1,568.0,5406,left
52,1,binary,17,1,trial,17504711.0,17506178.0,1467.0,17,R,17505078,17505226,150,461.9,506.6,5284,left
52,1,binary,17,1,trial,17504711.0,17506178.0,1467.0,17,R,17505302,17505480,180,1503.8,526.6,5019,right
52,1,binary,17,1,trial,17504711.0,17506178.0,1467.0,17,R,17505494,17505784,292,1465.2,520.5,5016,right
52,1,binary,17,1,trial,17504711.0,17506178.0,1467.0,17,R,17505856,17506476,622,493.5,508.2,5202,left
52,1,binary,18,1,fixationCross,17507261.0,17509978.0,2717.0,18,R,17506626,17506956,332,740.5,484.9,5353,NA
52,1,binary,18,1,trial,17507261.0,17509978.0,2717.0,18,R,17506984,17507420,438,949.2,537.4,5463,NA
52,1,binary,18,1,trial,17507261.0,17509978.0,2717.0,18,R,17507470,17507690,222,504.5,516.0,5483,left
52,1,binary,18,1,trial,17507261.0,17509978.0,2717.0,18,R,17507760,17508132,374,1419.3,527.4,5031,right
52,1,binary,18,1,trial,17507261.0,17509978.0,2717.0,18,R,17508144,17508666,524,1402.7,561.8,5020,right
52,1,binary,18,1,trial,17507261.0,17509978.0,2717.0,18,R,17508680,17509066,388,1356.9,569.7,5139,right
52,1,binary,18,1,trial,17507261.0,17509978.0,2717.0,18,R,17509136,17509466,332,497.2,521.3,5430,left
52,1,binary,18,1,trial,17507261.0,17509978.0,2717.0,18,R,17509490,17509690,202,655.9,487.6,5333,left
52,1,binary,18,1,trial,17507261.0,17509978.0,2717.0,18,R,17509716,17510138,424,477.4,558.3,5142,left
52,1,binary,18,1,trial,17507261.0,17509978.0,2717.0,18,R,17510178,17510188,12,542.1,470.6,5035,left
52,1,binary,19,2,fixationCross,17510928.0,17512528.0,1600.0,19,R,17510424,17510504,82,693.5,545.9,4989,left
52,1,binary,19,2,trial,17510928.0,17512528.0,1600.0,19,R,17510548,17511100,554,960.0,542.9,5171,NA
52,1,binary,19,2,trial,17510928.0,17512528.0,1600.0,19,R,17511156,17511424,270,473.1,511.8,5141,left
52,1,binary,19,2,trial,17510928.0,17512528.0,1600.0,19,R,17511438,17511502,66,477.9,477.2,5071,left
52,1,binary,19,2,trial,17510928.0,17512528.0,1600.0,19,R,17511570,17511856,288,1405.3,385.3,4891,right
52,1,binary,19,2,trial,17510928.0,17512528.0,1600.0,19,R,17511880,17512156,278,1465.7,505.1,5052,right
52,1,binary,19,2,postResponse,17510928.0,17512528.0,1600.0,19,R,17512180,17512876,698,1450.0,423.6,4943,right
52,1,binary,20,1,fixationCross,17513478.0,17515411.0,1933.0,20,R,17512976,17513414,440,1002.7,577.0,5182,NA
52,1,binary,20,1,trial,17513478.0,17515411.0,1933.0,20,R,17513434,17513618,186,951.7,548.7,5367,NA
52,1,binary,20,1,trial,17513478.0,17515411.0,1933.0,20,R,17513672,17513948,278,509.3,487.4,5390,left
52,1,binary,20,1,trial,17513478.0,17515411.0,1933.0,20,R,17513972,17514154,184,591.6,627.5,5267,left
52,1,binary,20,1,trial,17513478.0,17515411.0,1933.0,20,R,17514164,17514358,196,613.8,648.5,5229,left
52,1,binary,20,1,trial,17513478.0,17515411.0,1933.0,20,R,17514426,17514648,224,1399.5,495.6,5055,right
52,1,binary,20,1,trial,17513478.0,17515411.0,1933.0,20,R,17514670,17514976,308,1478.6,553.8,4989,right
52,1,binary,20,1,trial,17513478.0,17515411.0,1933.0,20,R,17515044,17515396,354,540.1,532.3,4958,left
52,1,binary,20,1,postResponse,17513478.0,17515411.0,1933.0,20,R,17515422,17515758,338,367.2,554.0,4963,left
52,1,binary,21,1,fixationCross,17516628.0,17518578.0,1950.0,21,R,17515856,17516114,260,371.2,559.5,5034,left
52,1,binary,21,1,fixationCross,17516628.0,17518578.0,1950.0,21,R,17516144,17516292,150,606.6,530.5,5105,left
52,1,binary,21,1,trial,17516628.0,17518578.0,1950.0,21,R,17516338,17516780,444,942.3,551.7,5270,NA
52,1,binary,21,1,trial,17516628.0,17518578.0,1950.0,21,R,17516832,17517098,268,504.7,551.0,5496,left
52,1,binary,21,1,trial,17516628.0,17518578.0,1950.0,21,R,17517110,17517342,234,535.9,546.1,5364,left
52,1,binary,21,1,trial,17516628.0,17518578.0,1950.0,21,R,17517410,17517812,404,1411.2,534.8,4964,right
52,1,binary,21,1,trial,17516628.0,17518578.0,1950.0,21,R,17517838,17518096,260,1278.7,546.7,5004,right
52,1,binary,21,1,trial,17516628.0,17518578.0,1950.0,21,R,17518140,17518226,88,1607.6,533.8,4854,right
52,1,binary,21,1,trial,17516628.0,17518578.0,1950.0,21,R,17518304,17518650,348,469.7,527.1,4976,left
52,1,binary,21,1,postResponse,17516628.0,17518578.0,1950.0,21,R,17518666,17518922,258,417.4,547.7,4983,left
52,1,binary,22,2,fixationCross,17519695.0,17521411.0,1716.0,22,R,17519022,17519068,48,421.2,557.5,5014,left
52,1,binary,22,2,fixationCross,17519695.0,17521411.0,1716.0,22,R,17519102,17519368,268,653.5,544.9,5079,left
52,1,binary,22,2,trial,17519695.0,17521411.0,1716.0,22,R,17519410,17519848,440,943.2,538.1,5261,NA
52,1,binary,22,2,trial,17519695.0,17521411.0,1716.0,22,R,17519900,17520242,344,503.2,552.8,5451,left
52,1,binary,22,2,trial,17519695.0,17521411.0,1716.0,22,R,17520254,17520546,294,480.0,585.8,5256,left
52,1,binary,22,2,trial,17519695.0,17521411.0,1716.0,22,R,17520616,17520816,202,1423.7,495.1,4864,right
52,1,binary,22,2,trial,17519695.0,17521411.0,1716.0,22,R,17520838,17521254,418,1530.4,553.5,4752,right
52,1,binary,22,2,trial,17519695.0,17521411.0,1716.0,22,R,17521272,17521502,232,1608.4,581.9,4647,right
52,1,binary,22,2,postResponse,17519695.0,17521411.0,1716.0,22,R,17521530,17521760,232,1599.0,469.9,4589,right
52,1,binary,23,1,fixationCross,17522495.0,17525045.0,2550.0,23,R,17521836,17522154,320,1593.9,478.0,4798,right
52,1,binary,23,1,fixationCross,17522495.0,17525045.0,2550.0,23,R,17522214,17522370,158,885.3,566.6,5233,NA
52,1,binary,23,1,trial,17522495.0,17525045.0,2550.0,23,R,17522388,17522642,256,950.9,543.2,5336,NA
52,1,binary,23,1,trial,17522495.0,17525045.0,2550.0,23,R,17522690,17522848,160,561.9,506.3,5425,left
52,1,binary,23,1,trial,17522495.0,17525045.0,2550.0,23,R,17522872,17523138,268,473.1,441.4,5200,left
52,1,binary,23,1,trial,17522495.0,17525045.0,2550.0,23,R,17523162,17523380,220,606.4,473.0,4856,left
52,1,binary,23,1,trial,17522495.0,17525045.0,2550.0,23,R,17523396,17523616,222,638.7,510.5,4706,left
52,1,binary,23,1,trial,17522495.0,17525045.0,2550.0,23,R,17523642,17523850,210,471.0,427.1,4555,left
52,1,binary,23,1,trial,17522495.0,17525045.0,2550.0,23,R,17523924,17524154,232,1438.3,461.2,4321,right
52,1,binary,23,1,trial,17522495.0,17525045.0,2550.0,23,R,17524176,17524370,196,1470.5,538.8,4359,right
52,1,binary,23,1,trial,17522495.0,17525045.0,2550.0,23,R,17524398,17524664,268,1426.3,422.6,4525,right
52,1,binary,23,1,trial,17522495.0,17525045.0,2550.0,23,R,17524738,17524992,256,473.2,478.5,4769,left
52,1,binary,23,1,postResponse,17522495.0,17525045.0,2550.0,23,R,17525022,17525390,370,642.0,529.6,4725,left
52,1,binary,24,2,fixationCross,17526111.0,17527245.0,1134.0,24,R,17525490,17525620,132,642.5,534.5,4696,left
52,1,binary,24,2,fixationCross,17526111.0,17527245.0,1134.0,24,R,17525652,17525820,170,840.9,521.8,4751,NA
52,1,binary,24,2,trial,17526111.0,17527245.0,1134.0,24,R,17525844,17526260,418,965.7,532.2,4922,NA
52,1,binary,24,2,trial,17526111.0,17527245.0,1134.0,24,R,17526318,17526456,140,446.6,510.8,5113,left
52,1,binary,24,2,trial,17526111.0,17527245.0,1134.0,24,R,17526476,17526648,174,382.6,448.5,5025,left
52,1,binary,24,2,trial,17526111.0,17527245.0,1134.0,24,R,17526724,17526872,150,1446.7,483.2,4678,right
52,1,binary,24,2,postResponse,17526111.0,17527245.0,1134.0,24,R,17526898,17527590,694,1636.6,443.6,4635,right
52,1,binary,25,2,fixationCross,17528312.0,17530578.0,2266.0,25,R,17527720,17528006,288,1109.6,529.0,5041,NA
52,1,binary,25,2,trial,17528312.0,17530578.0,2266.0,25,R,17528030,17528484,456,951.1,527.3,5265,NA
52,1,binary,25,2,trial,17528312.0,17530578.0,2266.0,25,R,17528534,17528718,186,495.0,496.9,5239,left
52,1,binary,25,2,trial,17528312.0,17530578.0,2266.0,25,R,17528736,17528896,162,520.2,544.2,5170,left
52,1,binary,25,2,trial,17528312.0,17530578.0,2266.0,25,R,17528918,17529160,244,648.9,591.5,5024,left
52,1,binary,25,2,trial,17528312.0,17530578.0,2266.0,25,R,17529176,17529314,140,651.9,632.9,4941,left
52,1,binary,25,2,trial,17528312.0,17530578.0,2266.0,25,R,17529382,17529606,226,1431.0,454.7,4766,right
52,1,binary,25,2,trial,17528312.0,17530578.0,2266.0,25,R,17529624,17529758,136,1355.0,473.7,4827,right
52,1,binary,25,2,trial,17528312.0,17530578.0,2266.0,25,R,17529778,17529942,166,1409.0,543.0,4887,right
52,1,binary,25,2,trial,17528312.0,17530578.0,2266.0,25,R,17529962,17530624,664,1454.8,600.5,4848,right
52,1,binary,25,2,postResponse,17528312.0,17530578.0,2266.0,25,R,17530646,17530930,286,1461.3,538.4,4788,right
52,1,binary,26,1,fixationCross,17556662.0,17558078.0,1416.0,26,R,17555795,17556115,322,121.4,55.6,4870,NA
52,1,binary,26,1,fixationCross,17556662.0,17558078.0,1416.0,26,R,17556175,17556225,52,789.0,434.5,5060,NA
52,1,binary,26,1,trial,17556662.0,17558078.0,1416.0,26,R,17556393,17556897,506,961.1,539.5,5579,NA
52,1,binary,26,1,trial,17556662.0,17558078.0,1416.0,26,R,17556949,17557295,348,468.6,546.7,5393,left
52,1,binary,26,1,trial,17556662.0,17558078.0,1416.0,26,R,17557329,17557391,64,683.9,526.4,5044,left
52,1,binary,26,1,trial,17556662.0,17558078.0,1416.0,26,R,17557455,17557981,528,1460.6,526.4,4733,right
52,1,binary,26,1,postResponse,17556662.0,17558078.0,1416.0,26,R,17558005,17558423,420,1499.7,630.6,4843,right
52,1,binary,27,1,fixationCross,17559195.0,17560446.0,1251.0,27,R,17558525,17558889,366,857.5,502.7,5380,NA
52,1,binary,27,1,trial,17559195.0,17560446.0,1251.0,27,R,17558909,17559351,444,946.8,519.4,5611,NA
52,1,binary,27,1,trial,17559195.0,17560446.0,1251.0,27,R,17559401,17559603,204,626.7,544.8,5575,left
52,1,binary,27,1,trial,17559195.0,17560446.0,1251.0,27,R,17559629,17559779,152,473.7,526.9,5382,left
52,1,binary,27,1,trial,17559195.0,17560446.0,1251.0,27,R,17559849,17560141,294,1421.0,550.4,5027,right
52,1,binary,27,1,postResponse,17559195.0,17560446.0,1251.0,27,R,17560207,17560791,586,516.2,467.1,5133,left
52,1,binary,28,1,fixationCross,17561362.0,17563562.0,2200.0,28,R,17560891,17561195,306,998.8,555.8,5130,NA
52,1,binary,28,1,trial,17561362.0,17563562.0,2200.0,28,R,17561205,17561393,190,1012.6,539.6,5395,NA
52,1,binary,28,1,trial,17561362.0,17563562.0,2200.0,28,R,17561407,17561585,180,966.9,541.9,5498,NA
52,1,binary,28,1,trial,17561362.0,17563562.0,2200.0,28,R,17561639,17561803,166,520.2,533.4,5477,left
52,1,binary,28,1,trial,17561362.0,17563562.0,2200.0,28,R,17561823,17561953,132,482.5,586.1,5334,left
52,1,binary,28,1,trial,17561362.0,17563562.0,2200.0,28,R,17562017,17562251,236,1367.7,541.8,5081,right
52,1,binary,28,1,trial,17561362.0,17563562.0,2200.0,28,R,17562269,17562575,308,1430.6,568.5,4923,right
52,1,binary,28,1,trial,17561362.0,17563562.0,2200.0,28,R,17562643,17563137,496,485.9,574.7,4960,left
52,1,binary,28,1,trial,17561362.0,17563562.0,2200.0,28,R,17563155,17563493,340,436.3,604.5,5009,left
52,1,binary,28,1,postResponse,17561362.0,17563562.0,2200.0,28,R,17563531,17563909,380,382.8,375.3,4916,left
52,1,binary,29,1,fixationCross,17564461.0,17566345.0,1884.0,29,R,17563985,17564063,80,381.1,378.4,4908,left
52,1,binary,29,1,fixationCross,17564461.0,17566345.0,1884.0,29,R,17564129,17564315,188,878.7,546.9,5021,NA
52,1,binary,29,1,trial,17564461.0,17566345.0,1884.0,29,R,17564335,17564687,354,958.5,545.5,5251,NA
52,1,binary,29,1,trial,17564461.0,17566345.0,1884.0,29,R,17564737,17564901,166,537.6,539.0,5477,left
52,1,binary,29,1,trial,17564461.0,17566345.0,1884.0,29,R,17564919,17565003,86,516.4,590.0,5382,left
52,1,binary,29,1,trial,17564461.0,17566345.0,1884.0,29,R,17565069,17565311,244,1395.0,486.3,5051,right
52,1,binary,29,1,trial,17564461.0,17566345.0,1884.0,29,R,17565339,17565607,270,1605.0,491.7,4977,right
52,1,binary,29,1,trial,17564461.0,17566345.0,1884.0,29,R,17565627,17565909,284,1496.3,506.7,4924,right
52,1,binary,29,1,trial,17564461.0,17566345.0,1884.0,29,R,17565981,17566263,284,545.1,585.5,4943,left
52,1,binary,29,1,postResponse,17564461.0,17566345.0,1884.0,29,R,17566281,17566693,414,450.3,595.7,4905,left
52,1,binary,30,1,trial,17567278.0,17570145.0,2867.0,30,R,17566775,17567439,666,942.3,527.8,5101,NA
52,1,binary,30,1,trial,17567278.0,17570145.0,2867.0,30,R,17567493,17567785,294,531.7,550.6,5283,left
52,1,binary,30,1,trial,17567278.0,17570145.0,2867.0,30,R,17567865,17568181,318,1504.0,552.7,4838,right
52,1,binary,30,1,trial,17567278.0,17570145.0,2867.0,30,R,17568197,17568433,238,1440.7,526.5,4821,right
52,1,binary,30,1,trial,17567278.0,17570145.0,2867.0,30,R,17568503,17568915,414,553.3,555.2,4919,left
52,1,binary,30,1,trial,17567278.0,17570145.0,2867.0,30,R,17568931,17569089,160,597.9,529.6,4847,left
52,1,binary,30,1,trial,17567278.0,17570145.0,2867.0,30,R,17569169,17569405,238,1547.3,535.7,4660,right
52,1,binary,30,1,trial,17567278.0,17570145.0,2867.0,30,R,17569427,17569737,312,1425.1,517.8,4702,right
52,1,binary,30,1,trial,17567278.0,17570145.0,2867.0,30,R,17569815,17570453,640,431.5,557.1,4758,left
52,1,binary,31,2,fixationCross,17571079.0,17572428.0,1349.0,31,R,17570593,17570673,82,666.5,521.9,4934,left
52,1,binary,31,2,fixationCross,17571079.0,17572428.0,1349.0,31,R,17570709,17570923,216,911.5,520.4,5112,NA
52,1,binary,31,2,trial,17571079.0,17572428.0,1349.0,31,R,17570939,17571229,292,957.3,534.8,5424,NA
52,1,binary,31,2,trial,17571079.0,17572428.0,1349.0,31,R,17571281,17571521,242,482.2,521.6,5467,left
52,1,binary,31,2,trial,17571079.0,17572428.0,1349.0,31,R,17571541,17571653,114,529.2,475.4,5269,left
52,1,binary,31,2,trial,17571079.0,17572428.0,1349.0,31,R,17571725,17571883,160,1496.9,565.9,4923,right
52,1,binary,31,2,trial,17571079.0,17572428.0,1349.0,31,R,17571903,17572441,540,1401.7,564.4,4778,right
52,1,binary,31,2,postResponse,17571079.0,17572428.0,1349.0,31,R,17572465,17572773,310,1532.9,599.1,4615,right
52,1,binary,32,2,fixationCross,17573412.0,17574479.0,1067.0,32,R,17572849,17573075,228,1526.4,604.9,4831,right
52,1,binary,32,2,fixationCross,17573412.0,17574479.0,1067.0,32,R,17573131,17573269,140,994.1,552.0,5139,NA
52,1,binary,32,2,trial,17573412.0,17574479.0,1067.0,32,R,17573281,17573551,272,956.0,547.4,5339,NA
52,1,binary,32,2,trial,17573412.0,17574479.0,1067.0,32,R,17573599,17573761,164,548.0,539.0,5524,left
52,1,binary,32,2,trial,17573412.0,17574479.0,1067.0,32,R,17573779,17573919,142,484.8,564.8,5336,left
52,1,binary,32,2,trial,17573412.0,17574479.0,1067.0,32,R,17573985,17574327,344,1372.1,527.6,4873,right
52,1,binary,32,2,postResponse,17573412.0,17574479.0,1067.0,32,R,17574347,17574825,480,1448.1,553.1,4655,right
52,1,binary,33,2,fixationCross,17575529.0,17577512.0,1983.0,33,R,17574901,17575213,314,1442.2,549.2,4650,right
52,1,binary,33,2,trial,17575529.0,17577512.0,1983.0,33,R,17575267,17575589,324,911.6,520.6,5146,NA
52,1,binary,33,2,trial,17575529.0,17577512.0,1983.0,33,R,17575607,17575711,106,837.3,529.0,5308,NA
52,1,binary,33,2,trial,17575529.0,17577512.0,1983.0,33,R,17575749,17576059,312,546.9,520.1,5256,left
52,1,binary,33,2,trial,17575529.0,17577512.0,1983.0,33,R,17576121,17576299,180,1334.6,581.8,4820,right
52,1,binary,33,2,trial,17575529.0,17577512.0,1983.0,33,R,17576313,17576719,408,1372.2,601.2,4723,right
52,1,binary,33,2,trial,17575529.0,17577512.0,1983.0,33,R,17576791,17577391,602,413.5,514.2,4609,left
52,1,binary,33,2,postResponse,17575529.0,17577512.0,1983.0,33,R,17577487,17577841,356,1447.7,608.5,4583,right
52,1,binary,34,2,fixationCross,17578712.0,17580529.0,1817.0,34,R,17577941,17578115,176,1439.5,612.7,4954,right
52,1,binary,34,2,fixationCross,17578712.0,17580529.0,1817.0,34,R,17578203,17578363,162,738.0,485.9,5199,NA
52,1,binary,34,2,fixationCross,17578712.0,17580529.0,1817.0,34,R,17578395,17578463,70,964.9,533.7,5241,NA
52,1,binary,34,2,trial,17578712.0,17580529.0,1817.0,34,R,17578625,17578857,234,932.4,526.9,5373,NA
52,1,binary,34,2,trial,17578712.0,17580529.0,1817.0,34,R,17578901,17579033,134,622.3,507.1,5522,left
52,1,binary,34,2,trial,17578712.0,17580529.0,1817.0,34,R,17579055,17579281,228,490.3,509.0,5266,left
52,1,binary,34,2,trial,17578712.0,17580529.0,1817.0,34,R,17579301,17579717,418,515.2,576.5,4914,left
52,1,binary,34,2,trial,17578712.0,17580529.0,1817.0,34,R,17579737,17579981,246,494.2,500.3,4810,left
52,1,binary,34,2,trial,17578712.0,17580529.0,1817.0,34,R,17580053,17580443,392,1474.4,512.0,4737,right
52,1,binary,34,2,postResponse,17578712.0,17580529.0,1817.0,34,R,17580469,17580879,412,1444.9,668.9,5000,right
52,1,binary,35,1,fixationCross,17581628.0,17583245.0,1617.0,35,R,17580955,17581029,76,1445.1,671.1,5098,right
52,1,binary,35,1,fixationCross,17581628.0,17583245.0,1617.0,35,R,17581099,17581323,226,784.1,494.4,5212,NA
52,1,binary,35,1,trial,17581628.0,17583245.0,1617.0,35,R,17581347,17581769,424,950.2,535.6,5234,NA
52,1,binary,35,1,trial,17581628.0,17583245.0,1617.0,35,R,17581815,17581995,182,568.9,518.1,5191,left
52,1,binary,35,1,trial,17581628.0,17583245.0,1617.0,35,R,17582019,17582239,222,408.5,559.6,5069,left
52,1,binary,35,1,trial,17581628.0,17583245.0,1617.0,35,R,17582259,17582373,116,414.2,625.1,4957,left
52,1,binary,35,1,trial,17581628.0,17583245.0,1617.0,35,R,17582443,17582791,350,1390.8,568.4,4719,right
52,1,binary,35,1,trial,17581628.0,17583245.0,1617.0,35,R,17582811,17583185,376,1366.9,512.4,4649,right
52,1,binary,35,1,postResponse,17581628.0,17583245.0,1617.0,35,R,17583253,17583591,340,507.9,531.6,4831,left
52,1,binary,36,1,fixationCross,17584445.0,17585996.0,1551.0,36,R,17583693,17583729,38,510.2,533.0,4999,left
52,1,binary,36,1,fixationCross,17584445.0,17585996.0,1551.0,36,R,17583805,17583995,192,1097.0,546.2,5006,NA
52,1,binary,36,1,fixationCross,17584445.0,17585996.0,1551.0,36,R,17584013,17584149,138,1151.4,584.6,5045,NA
52,1,binary,36,1,trial,17584445.0,17585996.0,1551.0,36,R,17584175,17584621,448,947.4,527.1,5210,NA
52,1,binary,36,1,trial,17584445.0,17585996.0,1551.0,36,R,17584677,17584749,74,429.6,498.1,5141,left
52,1,binary,36,1,trial,17584445.0,17585996.0,1551.0,36,R,17584835,17585083,250,405.7,474.6,4883,left
52,1,binary,36,1,trial,17584445.0,17585996.0,1551.0,36,R,17585101,17585333,234,474.7,515.1,4715,left
52,1,binary,36,1,trial,17584445.0,17585996.0,1551.0,36,R,17585361,17585479,120,308.7,652.3,4607,left
52,1,binary,36,1,trial,17584445.0,17585996.0,1551.0,36,R,17585555,17585917,364,1406.4,457.0,4373,right
52,1,binary,36,1,postResponse,17584445.0,17585996.0,1551.0,36,R,17585941,17586349,410,1377.3,558.2,4507,right
52,1,binary,37,1,fixationCross,17587079.0,17588645.0,1566.0,37,R,17586451,17586761,312,1374.7,569.3,4592,right
52,1,binary,37,1,trial,17587079.0,17588645.0,1566.0,37,R,17586807,17587215,410,957.2,541.7,4930,NA
52,1,binary,37,1,trial,17587079.0,17588645.0,1566.0,37,R,17587267,17587637,372,542.9,521.6,5127,left
52,1,binary,37,1,trial,17587079.0,17588645.0,1566.0,37,R,17587705,17587865,162,1460.5,510.4,4797,right
52,1,binary,37,1,trial,17587079.0,17588645.0,1566.0,37,R,17587887,17588025,140,1535.5,440.9,4701,right
52,1,binary,37,1,trial,17587079.0,17588645.0,1566.0,37,R,17588059,17588239,182,1319.3,570.2,4839,right
52,1,binary,37,1,postResponse,17587079.0,17588645.0,1566.0,37,R,17588307,17588995,690,525.2,520.7,4950,left
52,1,binary,38,1,fixationCross,17589762.0,17592046.0,2284.0,38,R,17589071,17589343,274,529.0,531.4,4877,left
52,1,binary,38,1,fixationCross,17589762.0,17592046.0,2284.0,38,R,17589409,17589515,108,1073.1,554.4,4933,NA
52,1,binary,38,1,trial,17589762.0,17592046.0,2284.0,38,R,17589537,17589897,362,954.1,546.2,5086,NA
52,1,binary,38,1,trial,17589762.0,17592046.0,2284.0,38,R,17589949,17590167,220,501.0,540.7,5304,left
52,1,binary,38,1,trial,17589762.0,17592046.0,2284.0,38,R,17590179,17590627,450,469.6,560.3,5014,left
52,1,binary,38,1,trial,17589762.0,17592046.0,2284.0,38,R,17590701,17590861,162,1445.9,493.2,4566,right
52,1,binary,38,1,trial,17589762.0,17592046.0,2284.0,38,R,17590883,17591343,462,1553.9,494.7,4601,right
52,1,binary,38,1,trial,17589762.0,17592046.0,2284.0,38,R,17591419,17592099,682,497.7,566.6,4872,left
52,1,binary,38,1,postResponse,17589762.0,17592046.0,2284.0,38,R,17592119,17592393,276,559.0,517.5,4898,left
52,1,binary,39,2,fixationCross,17592962.0,17595329.0,2367.0,39,R,17592495,17592597,104,559.0,519.4,5055,left
52,1,binary,39,2,fixationCross,17592962.0,17595329.0,2367.0,39,R,17592655,17592825,172,1042.1,530.0,4962,NA
52,1,binary,39,2,trial,17592962.0,17595329.0,2367.0,39,R,17592845,17593219,376,956.6,538.7,5095,NA
52,1,binary,39,2,trial,17592962.0,17595329.0,2367.0,39,R,17593273,17593777,506,457.8,538.1,5015,left
52,1,binary,39,2,trial,17592962.0,17595329.0,2367.0,39,R,17593793,17594019,228,491.1,518.5,4858,left
52,1,binary,39,2,trial,17592962.0,17595329.0,2367.0,39,R,17594095,17594305,212,1369.9,471.8,4721,right
52,1,binary,39,2,trial,17592962.0,17595329.0,2367.0,39,R,17594333,17594565,234,1552.4,494.5,4679,right
52,1,binary,39,2,trial,17592962.0,17595329.0,2367.0,39,R,17594583,17594697,116,1622.3,514.6,4630,right
52,1,binary,39,2,trial,17592962.0,17595329.0,2367.0,39,R,17594777,17595113,338,456.4,512.9,4709,left
52,1,binary,39,2,postResponse,17592962.0,17595329.0,2367.0,39,R,17595135,17595673,540,515.9,501.7,4623,left
52,1,binary,40,2,fixationCross,17596528.0,17598579.0,2051.0,40,R,17595773,17596199,428,518.7,510.4,4847,left
52,1,binary,40,2,trial,17596528.0,17598579.0,2051.0,40,R,17596247,17596653,408,930.4,519.3,5106,NA
52,1,binary,40,2,trial,17596528.0,17598579.0,2051.0,40,R,17596703,17596909,208,518.7,518.2,5355,left
52,1,binary,40,2,trial,17596528.0,17598579.0,2051.0,40,R,17596933,17597185,254,415.8,507.1,5147,left
52,1,binary,40,2,trial,17596528.0,17598579.0,2051.0,40,R,17597205,17597357,154,337.6,537.0,4936,left
52,1,binary,40,2,trial,17596528.0,17598579.0,2051.0,40,R,17597443,17597647,206,1487.9,538.3,4705,right
52,1,binary,40,2,trial,17596528.0,17598579.0,2051.0,40,R,17597665,17598231,568,1444.2,577.8,4821,right
52,1,binary,40,2,postResponse,17596528.0,17598579.0,2051.0,40,R,17598247,17598923,678,1486.3,620.7,4823,right
52,1,binary,41,1,fixationCross,17599729.0,17600762.0,1033.0,41,R,17599025,17599051,28,1484.9,626.2,5041,right
52,1,binary,41,1,fixationCross,17599729.0,17600762.0,1033.0,41,R,17599119,17599421,304,860.3,592.8,5410,NA
52,1,binary,41,1,trial,17599729.0,17600762.0,1033.0,41,R,17599443,17599865,424,950.5,530.2,5539,NA
52,1,binary,41,1,trial,17599729.0,17600762.0,1033.0,41,R,17599913,17600199,288,537.2,523.0,5413,left
52,1,binary,41,1,trial,17599729.0,17600762.0,1033.0,41,R,17600275,17600737,464,1481.0,529.5,4806,right
52,1,binary,41,1,postResponse,17599729.0,17600762.0,1033.0,41,R,17600809,17601111,304,515.7,502.8,4826,left
52,1,binary,42,1,fixationCross,17601812.0,17604379.0,2567.0,42,R,17601215,17601495,282,515.8,508.2,4917,left
52,1,binary,42,1,trial,17601812.0,17604379.0,2567.0,42,R,17601545,17602059,516,961.8,541.3,5072,NA
52,1,binary,42,1,trial,17601812.0,17604379.0,2567.0,42,R,17602113,17602541,430,1398.7,500.2,5021,right
52,1,binary,42,1,trial,17601812.0,17604379.0,2567.0,42,R,17602615,17603865,1252,494.0,574.1,4940,left
52,1,binary,42,1,postResponse,17601812.0,17604379.0,2567.0,42,R,17603947,17604725,780,1454.1,522.5,4761,right
52,1,binary,43,2,fixationCross,17605429.0,17607462.0,2033.0,43,R,17604913,17605123,212,769.4,574.7,5090,NA
52,1,binary,43,2,trial,17605429.0,17607462.0,2033.0,43,R,17605149,17605463,316,964.9,554.3,5210,NA
52,1,binary,43,2,trial,17605429.0,17607462.0,2033.0,43,R,17605493,17605635,144,701.0,542.7,5284,left
52,1,binary,43,2,trial,17605429.0,17607462.0,2033.0,43,R,17605663,17605823,162,506.7,498.9,5276,left
52,1,binary,43,2,trial,17605429.0,17607462.0,2033.0,43,R,17605843,17605929,88,506.4,564.3,5194,left
52,1,binary,43,2,trial,17605429.0,17607462.0,2033.0,43,R,17606001,17606151,152,1452.3,561.9,4857,right
52,1,binary,43,2,trial,17605429.0,17607462.0,2033.0,43,R,17606169,17606645,478,1367.0,578.7,4827,right
52,1,binary,43,2,trial,17605429.0,17607462.0,2033.0,43,R,17606723,17607015,294,447.9,534.4,4985,left
52,1,binary,43,2,trial,17605429.0,17607462.0,2033.0,43,R,17607085,17607291,208,1328.6,564.6,4762,right
52,1,binary,43,2,postResponse,17605429.0,17607462.0,2033.0,43,R,17607305,17607811,508,1355.6,588.7,4732,right
52,1,binary,44,2,fixationCross,17608795.0,17611230.0,2435.0,44,R,17607911,17608183,274,785.1,521.2,4995,NA
52,1,binary,44,2,fixationCross,17608795.0,17611230.0,2435.0,44,R,17608205,17608467,264,658.1,512.5,5267,left
52,1,binary,44,2,trial,17608795.0,17611230.0,2435.0,44,R,17608517,17609017,502,960.9,511.4,5368,NA
52,1,binary,44,2,trial,17608795.0,17611230.0,2435.0,44,R,17609065,17609321,258,567.9,455.0,5334,left
52,1,binary,44,2,trial,17608795.0,17611230.0,2435.0,44,R,17609391,17609671,282,1439.3,521.5,4931,right
52,1,binary,44,2,trial,17608795.0,17611230.0,2435.0,44,R,17609693,17610029,338,1462.2,589.9,4765,right
52,1,binary,44,2,trial,17608795.0,17611230.0,2435.0,44,R,17610413,17610563,152,517.3,493.0,4668,left
52,1,binary,44,2,trial,17608795.0,17611230.0,2435.0,44,R,17610587,17610835,250,598.0,419.0,4925,left
52,1,binary,44,2,postResponse,17608795.0,17611230.0,2435.0,44,R,17610909,17611579,672,1590.1,516.0,4676,right
52,1,binary,45,2,fixationCross,17612329.0,17613746.0,1417.0,45,R,17611681,17612011,332,728.7,534.5,5007,left
52,1,binary,45,2,trial,17612329.0,17613746.0,1417.0,45,R,17612033,17612477,446,889.7,522.8,5176,NA
52,1,binary,45,2,trial,17612329.0,17613746.0,1417.0,45,R,17612525,17612679,156,509.3,521.0,5354,left
52,1,binary,45,2,trial,17612329.0,17613746.0,1417.0,45,R,17612699,17612881,184,575.2,553.0,5201,left
52,1,binary,45,2,trial,17612329.0,17613746.0,1417.0,45,R,17612947,17613235,290,1459.1,530.3,4888,right
52,1,binary,45,2,trial,17612329.0,17613746.0,1417.0,45,R,17613257,17613515,260,1557.4,512.6,4915,right
52,1,binary,45,2,trial,17612329.0,17613746.0,1417.0,45,R,17613539,17614009,472,1417.5,629.8,4933,right
52,1,binary,46,2,fixationCross,17614846.0,17616612.0,1766.0,46,R,17614379,17614527,150,680.1,634.3,5002,left
52,1,binary,46,2,fixationCross,17614846.0,17616612.0,1766.0,46,R,17614565,17614787,224,954.7,533.2,5120,NA
52,1,binary,46,2,trial,17614846.0,17616612.0,1766.0,46,R,17614819,17614995,178,702.4,566.3,5161,left
52,1,binary,46,2,trial,17614846.0,17616612.0,1766.0,46,R,17615023,17615193,172,480.9,542.2,5090,left
52,1,binary,46,2,trial,17614846.0,17616612.0,1766.0,46,R,17615273,17615471,200,1519.4,522.9,4648,right
52,1,binary,46,2,trial,17614846.0,17616612.0,1766.0,46,R,17615485,17615991,508,1492.4,561.3,4717,right
52,1,binary,46,2,trial,17614846.0,17616612.0,1766.0,46,R,17616005,17616097,94,1494.5,540.7,4738,right
52,1,binary,46,2,trial,17614846.0,17616612.0,1766.0,46,R,17616171,17616489,320,477.7,585.1,4921,left
52,1,binary,46,2,postResponse,17614846.0,17616612.0,1766.0,46,R,17616551,17616959,410,1216.8,572.1,4860,right
52,1,binary,47,2,fixationCross,17618312.0,17620329.0,2017.0,47,R,17617061,17617309,250,785.6,503.5,5247,NA
52,1,binary,47,2,fixationCross,17618312.0,17620329.0,2017.0,47,R,17617325,17618015,692,835.1,503.3,5331,NA
52,1,binary,47,2,trial,17618312.0,17620329.0,2017.0,47,R,17618037,17618491,456,950.2,531.6,5479,NA
52,1,binary,47,2,trial,17618312.0,17620329.0,2017.0,47,R,17618551,17618827,278,545.2,483.6,5628,left
52,1,binary,47,2,trial,17618312.0,17620329.0,2017.0,47,R,17618901,17619195,296,1487.8,533.9,5159,right
52,1,binary,47,2,trial,17618312.0,17620329.0,2017.0,47,R,17619213,17619351,140,1531.9,572.7,5039,right
52,1,binary,47,2,trial,17618312.0,17620329.0,2017.0,47,R,17619425,17619677,254,501.2,464.6,5070,left
52,1,binary,47,2,trial,17618312.0,17620329.0,2017.0,47,R,17619699,17619993,296,581.6,439.0,4836,left
52,1,binary,47,2,trial,17618312.0,17620329.0,2017.0,47,R,17620063,17620599,538,1522.7,617.0,4545,right
52,1,binary,48,2,fixationCross,17621246.0,17622146.0,900.0,48,R,17620767,17620969,204,998.2,578.9,4958,NA
52,1,binary,48,2,trial,17621246.0,17622146.0,900.0,48,R,17620989,17621391,404,959.8,532.8,5190,NA
52,1,binary,48,2,trial,17621246.0,17622146.0,900.0,48,R,17621441,17621679,240,544.0,508.7,5218,left
52,1,binary,48,2,trial,17621246.0,17622146.0,900.0,48,R,17621747,17621955,210,1452.3,509.8,4914,right
52,1,binary,48,2,postResponse,17621246.0,17622146.0,900.0,48,R,17621977,17622495,520,1543.9,473.7,4749,right
52,1,binary,49,1,fixationCross,17623096.0,17625362.0,2266.0,49,R,17622595,17622649,56,1541.1,479.3,4758,right
52,1,binary,49,1,trial,17623096.0,17625362.0,2266.0,49,R,17622719,17623229,512,956.5,524.2,5197,NA
52,1,binary,49,1,trial,17623096.0,17625362.0,2266.0,49,R,17623279,17623597,320,532.7,484.3,5325,left
52,1,binary,49,1,trial,17623096.0,17625362.0,2266.0,49,R,17623611,17623733,124,535.4,511.6,5185,left
52,1,binary,49,1,trial,17623096.0,17625362.0,2266.0,49,R,17623799,17624203,406,1398.7,515.3,4855,right
52,1,binary,49,1,trial,17623096.0,17625362.0,2266.0,49,R,17624269,17624649,382,600.1,490.0,4873,left
52,1,binary,49,1,trial,17623096.0,17625362.0,2266.0,49,R,17624663,17625163,502,579.7,510.0,4830,left
52,1,binary,49,1,trial,17623096.0,17625362.0,2266.0,49,R,17625179,17625359,182,549.0,482.9,4835,left
52,1,binary,49,1,postResponse,17623096.0,17625362.0,2266.0,49,R,17625379,17625709,332,524.0,421.0,4784,left
52,1,binary,50,2,fixationCross,17626296.0,17628646.0,2350.0,50,R,17625785,17625811,28,546.6,424.2,4821,left
52,1,binary,50,2,trial,17626296.0,17628646.0,2350.0,50,R,17626029,17626457,430,959.9,514.9,5199,NA
52,1,binary,50,2,trial,17626296.0,17628646.0,2350.0,50,R,17626509,17626781,274,485.0,476.5,5290,left
52,1,binary,50,2,trial,17626296.0,17628646.0,2350.0,50,R,17626801,17626947,148,536.4,463.7,4971,left
52,1,binary,50,2,trial,17626296.0,17628646.0,2350.0,50,R,17626959,17627107,150,549.3,444.1,4795,left
52,1,binary,50,2,trial,17626296.0,17628646.0,2350.0,50,R,17627173,17627361,190,1301.7,515.9,4534,right
52,1,binary,50,2,trial,17626296.0,17628646.0,2350.0,50,R,17627383,17627715,334,1383.9,562.7,4507,right
52,1,binary,50,2,trial,17626296.0,17628646.0,2350.0,50,R,17627781,17628229,450,512.9,458.6,4515,left
52,1,binary,50,2,trial,17626296.0,17628646.0,2350.0,50,R,17628297,17628629,334,1257.4,901.9,4707,NA
52,1,binary,50,2,postResponse,17626296.0,17628646.0,2350.0,50,R,17628705,17628991,288,674.0,414.7,5118,left
52,2,continuous,1,17,fixationCross,17707313.0,17712947.0,5634.0,51,R,17706627,17707017,392,932.7,416.1,5735,NA
52,2,continuous,1,17,fixationCross,17707313.0,17712947.0,5634.0,51,R,17707047,17707287,242,946.7,536.9,5649,NA
52,2,continuous,1,17,trial,17707313.0,17712947.0,5634.0,51,R,17707469,17707651,184,955.9,525.2,5880,NA
52,2,continuous,1,17,trial,17707313.0,17712947.0,5634.0,51,R,17707703,17707853,152,537.0,572.5,5899,left
52,2,continuous,1,17,trial,17707313.0,17712947.0,5634.0,51,R,17707917,17708057,142,819.5,1018.0,5627,likertHorizontal
52,2,continuous,1,17,trial,17707313.0,17712947.0,5634.0,51,R,17708103,17708293,192,485.8,1050.9,5435,NA
52,2,continuous,1,17,trial,17707313.0,17712947.0,5634.0,51,R,17708357,17708453,98,953.0,982.6,5393,likertHorizontal
52,2,continuous,1,17,trial,17707313.0,17712947.0,5634.0,51,R,17708513,17708711,200,1423.6,501.5,5247,right
52,2,continuous,1,17,trial,17707313.0,17712947.0,5634.0,51,R,17708729,17708989,262,1493.1,486.3,5366,right
52,2,continuous,1,17,trial,17707313.0,17712947.0,5634.0,51,R,17709057,17709333,278,579.9,508.6,5516,left
52,2,continuous,1,17,trial,17707313.0,17712947.0,5634.0,51,R,17709351,17709581,232,619.3,477.2,5447,left
52,2,continuous,1,17,trial,17707313.0,17712947.0,5634.0,51,R,17709637,17709991,356,819.9,981.1,5319,likertHorizontal
52,2,continuous,1,17,trial,17707313.0,17712947.0,5634.0,51,R,17710011,17710371,362,868.2,986.2,5505,likertHorizontal
52,2,continuous,1,17,trial,17707313.0,17712947.0,5634.0,51,R,17710409,17710571,164,736.9,841.4,5548,NA
52,2,continuous,1,17,trial,17707313.0,17712947.0,5634.0,51,R,17710617,17710755,140,645.7,571.7,5440,left
52,2,continuous,1,17,trial,17707313.0,17712947.0,5634.0,51,R,17710785,17710981,198,621.9,448.2,5470,left
52,2,continuous,1,17,trial,17707313.0,17712947.0,5634.0,51,R,17710993,17711273,282,624.3,479.4,5440,left
52,2,continuous,1,17,trial,17707313.0,17712947.0,5634.0,51,R,17711343,17711537,196,1354.1,501.3,5282,right
52,2,continuous,1,17,trial,17707313.0,17712947.0,5634.0,51,R,17711561,17711881,322,1503.5,479.1,5247,right
52,2,continuous,1,17,trial,17707313.0,17712947.0,5634.0,51,R,17711903,17712139,238,1458.4,558.8,5250,right
52,2,continuous,1,17,trial,17707313.0,17712947.0,5634.0,51,R,17712155,17712261,108,1416.1,589.3,5180,right
52,2,continuous,1,17,trial,17707313.0,17712947.0,5634.0,51,R,17712341,17712517,178,576.4,977.0,5243,NA
52,2,continuous,1,17,trial,17707313.0,17712947.0,5634.0,51,R,17712539,17712705,168,664.5,986.4,5162,NA
52,2,continuous,1,17,trial,17707313.0,17712947.0,5634.0,51,R,17712749,17712817,70,605.4,522.1,5125,left
52,2,continuous,1,17,trial,17707313.0,17712947.0,5634.0,51,R,17712971,17713241,272,630.6,445.6,5223,left
52,2,continuous,1,17,postResponse,17707313.0,17712947.0,5634.0,51,R,17713263,17713293,32,792.6,435.8,5356,NA
52,2,continuous,2,26,fixationCross,17714014.0,17718581.0,4567.0,52,R,17713369,17713707,340,961.1,433.0,5393,NA
52,2,continuous,2,26,trial,17714014.0,17718581.0,4567.0,52,R,17713731,17714247,518,946.8,514.9,5665,NA
52,2,continuous,2,26,trial,17714014.0,17718581.0,4567.0,52,R,17714297,17714501,206,599.1,529.8,5709,left
52,2,continuous,2,26,trial,17714014.0,17718581.0,4567.0,52,R,17714523,17714697,176,527.5,610.7,5483,left
52,2,continuous,2,26,trial,17714014.0,17718581.0,4567.0,52,R,17714765,17714941,178,1411.9,518.0,5090,right
52,2,continuous,2,26,trial,17714014.0,17718581.0,4567.0,52,R,17714965,17715561,598,1539.0,536.2,4992,right
52,2,continuous,2,26,trial,17714014.0,17718581.0,4567.0,52,R,17715645,17715931,288,558.0,514.4,5124,left
52,2,continuous,2,26,trial,17714014.0,17718581.0,4567.0,52,R,17715955,17716087,134,585.3,615.1,5156,left
52,2,continuous,2,26,trial,17714014.0,17718581.0,4567.0,52,R,17716139,17716363,226,953.7,990.5,5125,likertHorizontal
52,2,continuous,2,26,trial,17714014.0,17718581.0,4567.0,52,R,17716429,17716577,150,482.0,1029.3,5242,NA
52,2,continuous,2,26,trial,17714014.0,17718581.0,4567.0,52,R,17716625,17716765,142,498.2,553.9,5360,left
52,2,continuous,2,26,trial,17714014.0,17718581.0,4567.0,52,R,17716935,17717355,422,509.6,514.2,5391,left
52,2,continuous,2,26,trial,17714014.0,17718581.0,4567.0,52,R,17717375,17717577,204,617.1,524.7,5233,left
52,2,continuous,2,26,trial,17714014.0,17718581.0,4567.0,52,R,17717611,17718325,716,566.3,733.4,5062,NA
52,2,continuous,2,26,postResponse,17714014.0,17718581.0,4567.0,52,R,17718403,17718923,522,1516.6,563.6,4981,right
52,2,continuous,3,1,fixationCross,17719864.0,17722314.0,2450.0,53,R,17719061,17719291,232,1185.6,578.6,5270,right
52,2,continuous,3,1,fixationCross,17719864.0,17722314.0,2450.0,53,R,17719307,17719475,170,1137.9,599.6,5518,NA
52,2,continuous,3,1,fixationCross,17719864.0,17722314.0,2450.0,53,R,17719501,17719605,106,946.3,537.1,5727,NA
52,2,continuous,3,1,trial,17719864.0,17722314.0,2450.0,53,R,17719747,17720017,272,951.8,519.2,5762,NA
52,2,continuous,3,1,trial,17719864.0,17722314.0,2450.0,53,R,17720065,17720319,256,558.9,522.2,5819,left
52,2,continuous,3,1,trial,17719864.0,17722314.0,2450.0,53,R,17720337,17720417,82,512.6,563.3,5537,left
52,2,continuous,3,1,trial,17719864.0,17722314.0,2450.0,53,R,17720489,17720649,162,1440.3,497.2,5110,right
52,2,continuous,3,1,trial,17719864.0,17722314.0,2450.0,53,R,17720663,17720907,246,1408.7,522.7,4992,right
52,2,continuous,3,1,trial,17719864.0,17722314.0,2450.0,53,R,17720931,17721105,176,1504.5,536.7,4945,right
52,2,continuous,3,1,trial,17719864.0,17722314.0,2450.0,53,R,17721177,17721309,134,747.2,916.0,5088,likertHorizontal
52,2,continuous,3,1,trial,17719864.0,17722314.0,2450.0,53,R,17721375,17721545,172,1464.4,578.5,4902,right
52,2,continuous,3,1,trial,17719864.0,17722314.0,2450.0,53,R,17721627,17722049,424,569.1,995.0,5223,NA
52,2,continuous,3,1,trial,17719864.0,17722314.0,2450.0,53,R,17722069,17722183,116,460.0,989.3,5290,NA
52,2,continuous,3,1,trial,17719864.0,17722314.0,2450.0,53,R,17722227,17722601,376,563.9,530.6,5347,left
52,2,continuous,3,1,postResponse,17719864.0,17722314.0,2450.0,53,R,17722617,17722661,46,618.9,525.1,5406,left
52,2,continuous,4,92,fixationCross,17723614.0,17727680.0,4066.0,54,R,17722743,17723137,396,1151.2,483.6,5527,NA
52,2,continuous,4,92,fixationCross,17723614.0,17727680.0,4066.0,54,R,17723163,17723183,22,971.8,504.9,5747,NA
52,2,continuous,4,92,fixationCross,17723614.0,17727680.0,4066.0,54,R,17723389,17723501,114,924.8,515.6,5654,NA
52,2,continuous,4,92,trial,17723614.0,17727680.0,4066.0,54,R,17723513,17723765,254,955.2,540.3,5651,NA
52,2,continuous,4,92,trial,17723614.0,17727680.0,4066.0,54,R,17723815,17724103,290,588.1,541.8,5542,left
52,2,continuous,4,92,trial,17723614.0,17727680.0,4066.0,54,R,17724121,17724355,236,524.3,569.3,5158,left
52,2,continuous,4,92,trial,17723614.0,17727680.0,4066.0,54,R,17724377,17724559,184,396.9,569.4,4995,left
52,2,continuous,4,92,trial,17723614.0,17727680.0,4066.0,54,R,17724585,17724811,228,338.9,554.5,5003,left
52,2,continuous,4,92,trial,17723614.0,17727680.0,4066.0,54,R,17724833,17725033,202,418.4,516.7,5063,left
52,2,continuous,4,92,trial,17723614.0,17727680.0,4066.0,54,R,17725109,17725343,236,1467.5,520.1,4836,right
52,2,continuous,4,92,trial,17723614.0,17727680.0,4066.0,54,R,17725353,17725689,338,1445.8,535.0,4849,right
52,2,continuous,4,92,trial,17723614.0,17727680.0,4066.0,54,R,17725765,17726159,396,455.3,555.9,4901,left
52,2,continuous,4,92,trial,17723614.0,17727680.0,4066.0,54,R,17726185,17726475,292,600.1,551.9,4888,left
52,2,continuous,4,92,trial,17723614.0,17727680.0,4066.0,54,R,17726541,17727549,1010,1375.0,607.4,4979,right
52,2,continuous,4,92,trial,17723614.0,17727680.0,4066.0,54,R,17727593,17727877,286,1361.2,900.5,5374,NA
52,2,continuous,4,92,postResponse,17723614.0,17727680.0,4066.0,54,R,17727955,17728027,74,704.3,562.2,5574,left
52,2,continuous,5,59,fixationCross,17728814.0,17732181.0,3367.0,55,R,17728103,17728169,68,700.0,565.1,5655,left
52,2,continuous,5,59,fixationCross,17728814.0,17732181.0,3367.0,55,R,17728189,17728377,190,801.3,524.5,5694,NA
52,2,continuous,5,59,fixationCross,17728814.0,17732181.0,3367.0,55,R,17728397,17728531,136,912.3,508.2,5593,NA
52,2,continuous,5,59,trial,17728814.0,17732181.0,3367.0,55,R,17728709,17728963,256,945.0,541.9,5461,NA
52,2,continuous,5,59,trial,17728814.0,17732181.0,3367.0,55,R,17729015,17729177,164,485.7,538.8,5511,left
52,2,continuous,5,59,trial,17728814.0,17732181.0,3367.0,55,R,17729199,17729353,156,382.9,562.0,5266,left
52,2,continuous,5,59,trial,17728814.0,17732181.0,3367.0,55,R,17729425,17729687,264,1395.5,515.6,4776,right
52,2,continuous,5,59,trial,17728814.0,17732181.0,3367.0,55,R,17729713,17729871,160,1400.9,614.2,4794,right
52,2,continuous,5,59,trial,17728814.0,17732181.0,3367.0,55,R,17729891,17730083,194,1382.5,683.7,4938,right
52,2,continuous,5,59,trial,17728814.0,17732181.0,3367.0,55,R,17730159,17730381,224,547.3,589.8,5096,left
52,2,continuous,5,59,trial,17728814.0,17732181.0,3367.0,55,R,17730433,17730597,166,952.0,965.8,5101,likertHorizontal
52,2,continuous,5,59,trial,17728814.0,17732181.0,3367.0,55,R,17730655,17731043,390,441.4,572.6,5277,left
52,2,continuous,5,59,trial,17728814.0,17732181.0,3367.0,55,R,17731113,17731799,688,1283.6,596.7,5125,right
52,2,continuous,5,59,trial,17728814.0,17732181.0,3367.0,55,R,17731877,17732479,604,427.3,545.0,5273,left
52,2,continuous,6,48,fixationCross,17733180.0,17736664.0,3484.0,56,R,17732625,17732883,260,788.1,509.8,5261,NA
52,2,continuous,6,48,fixationCross,17733180.0,17736664.0,3484.0,56,R,17732903,17733045,144,885.0,500.3,5505,NA
52,2,continuous,6,48,trial,17733180.0,17736664.0,3484.0,56,R,17733063,17733337,276,950.6,524.3,5558,NA
52,2,continuous,6,48,trial,17733180.0,17736664.0,3484.0,56,R,17733381,17733615,236,602.7,526.5,5625,left
52,2,continuous,6,48,trial,17733180.0,17736664.0,3484.0,56,R,17733633,17733809,178,519.1,582.5,5382,left
52,2,continuous,6,48,trial,17733180.0,17736664.0,3484.0,56,R,17733879,17734071,194,1373.7,575.2,4910,right
52,2,continuous,6,48,trial,17733180.0,17736664.0,3484.0,56,R,17734091,17734415,326,1459.6,564.8,4805,right
52,2,continuous,6,48,trial,17733180.0,17736664.0,3484.0,56,R,17734589,17734983,396,502.6,531.8,4936,left
52,2,continuous,6,48,trial,17733180.0,17736664.0,3484.0,56,R,17735033,17735271,240,937.6,966.7,4928,likertHorizontal
52,2,continuous,6,48,trial,17733180.0,17736664.0,3484.0,56,R,17735323,17735859,538,527.7,589.0,5043,left
52,2,continuous,6,48,trial,17733180.0,17736664.0,3484.0,56,R,17735927,17736055,130,1287.5,603.2,4874,right
52,2,continuous,6,48,trial,17733180.0,17736664.0,3484.0,56,R,17736105,17736277,174,898.3,989.2,5010,likertHorizontal
52,2,continuous,6,48,trial,17733180.0,17736664.0,3484.0,56,R,17736287,17736439,154,929.6,986.1,5181,likertHorizontal
52,2,continuous,6,48,trial,17733180.0,17736664.0,3484.0,56,R,17736493,17736867,376,1203.7,611.4,5333,right
52,2,continuous,7,90,fixationCross,17737764.0,17741048.0,3284.0,57,R,17737121,17737453,334,1129.9,626.5,5772,NA
52,2,continuous,7,90,trial,17737764.0,17741048.0,3284.0,57,R,17737479,17737909,432,982.1,571.9,5655,NA
52,2,continuous,7,90,trial,17737764.0,17741048.0,3284.0,57,R,17737957,17738285,330,577.8,522.6,5370,left
52,2,continuous,7,90,trial,17737764.0,17741048.0,3284.0,57,R,17738301,17738397,98,565.1,476.0,5137,left
52,2,continuous,7,90,trial,17737764.0,17741048.0,3284.0,57,R,17738467,17738681,216,1462.2,495.1,4785,right
52,2,continuous,7,90,trial,17737764.0,17741048.0,3284.0,57,R,17738705,17739045,342,1587.9,532.7,4697,right
52,2,continuous,7,90,trial,17737764.0,17741048.0,3284.0,57,R,17739075,17739459,386,1348.1,500.9,4608,right
52,2,continuous,7,90,trial,17737764.0,17741048.0,3284.0,57,R,17739477,17739869,394,1298.0,459.9,4571,right
52,2,continuous,7,90,trial,17737764.0,17741048.0,3284.0,57,R,17739919,17740081,164,1129.0,939.8,4838,likertHorizontal
52,2,continuous,7,90,trial,17737764.0,17741048.0,3284.0,57,R,17740119,17740453,336,1379.8,964.0,5097,NA
52,2,continuous,7,90,trial,17737764.0,17741048.0,3284.0,57,R,17740509,17740769,262,956.2,760.0,5421,likertHorizontal
52,2,continuous,7,90,trial,17737764.0,17741048.0,3284.0,57,R,17740825,17741233,410,536.3,473.4,5282,left
52,2,continuous,8,29,fixationCross,17742098.0,17748714.0,6616.0,58,R,17741687,17741781,96,1274.3,519.7,5185,right
52,2,continuous,8,29,fixationCross,17742098.0,17748714.0,6616.0,58,R,17741813,17741941,130,994.5,545.5,5353,NA
52,2,continuous,8,29,trial,17742098.0,17748714.0,6616.0,58,R,17741953,17742233,282,960.2,540.4,5533,NA
52,2,continuous,8,29,trial,17742098.0,17748714.0,6616.0,58,R,17742283,17742445,164,529.2,504.6,5291,left
52,2,continuous,8,29,trial,17742098.0,17748714.0,6616.0,58,R,17742469,17742739,272,427.4,578.7,5058,left
52,2,continuous,8,29,trial,17742098.0,17748714.0,6616.0,58,R,17742753,17743133,382,407.7,597.9,5008,left
52,2,continuous,8,29,trial,17742098.0,17748714.0,6616.0,58,R,17743151,17743333,184,454.1,562.0,4994,left
52,2,continuous,8,29,trial,17742098.0,17748714.0,6616.0,58,R,17743407,17743701,296,1407.0,528.1,4755,right
52,2,continuous,8,29,trial,17742098.0,17748714.0,6616.0,58,R,17743725,17743977,254,1526.8,455.1,4765,right
52,2,continuous,8,29,trial,17742098.0,17748714.0,6616.0,58,R,17744003,17744293,292,1359.0,570.7,4736,right
52,2,continuous,8,29,trial,17742098.0,17748714.0,6616.0,58,R,17744309,17744571,264,1307.4,586.4,4700,right
52,2,continuous,8,29,trial,17742098.0,17748714.0,6616.0,58,R,17744607,17744731,126,1553.1,572.5,4573,right
52,2,continuous,8,29,trial,17742098.0,17748714.0,6616.0,58,R,17744809,17745019,212,441.4,523.5,4865,left
52,2,continuous,8,29,trial,17742098.0,17748714.0,6616.0,58,R,17745043,17745611,570,412.4,608.4,5102,left
52,2,continuous,8,29,trial,17742098.0,17748714.0,6616.0,58,R,17745633,17746145,514,448.3,552.0,5063,left
52,2,continuous,8,29,trial,17742098.0,17748714.0,6616.0,58,R,17746165,17746387,224,401.7,607.3,5009,left
52,2,continuous,8,29,trial,17742098.0,17748714.0,6616.0,58,R,17746513,17746729,218,421.3,568.5,4959,left
52,2,continuous,8,29,trial,17742098.0,17748714.0,6616.0,58,R,17746813,17746957,146,1592.9,514.6,4761,right
52,2,continuous,8,29,trial,17742098.0,17748714.0,6616.0,58,R,17746977,17747139,164,1500.7,509.6,4719,right
52,2,continuous,8,29,trial,17742098.0,17748714.0,6616.0,58,R,17747165,17747715,552,1322.4,556.5,4825,right
52,2,continuous,8,29,trial,17742098.0,17748714.0,6616.0,58,R,17747739,17747855,118,1446.2,566.1,4826,right
52,2,continuous,8,29,trial,17742098.0,17748714.0,6616.0,58,R,17747919,17748251,334,555.7,600.5,5079,left
52,2,continuous,8,29,trial,17742098.0,17748714.0,6616.0,58,R,17748311,17748427,118,709.8,1008.4,5108,NA
52,2,continuous,8,29,trial,17742098.0,17748714.0,6616.0,58,R,17748443,17748539,98,748.5,972.0,5108,likertHorizontal
52,2,continuous,8,29,postResponse,17742098.0,17748714.0,6616.0,58,R,17748587,17749049,464,552.9,533.3,5183,left
52,2,continuous,9,71,fixationCross,17749764.0,17753547.0,3783.0,59,R,17749151,17749437,288,897.9,580.4,5131,NA
52,2,continuous,9,71,fixationCross,17749764.0,17753547.0,3783.0,59,R,17749649,17749719,72,981.5,494.7,5472,NA
52,2,continuous,9,71,trial,17749764.0,17753547.0,3783.0,59,R,17749729,17749943,216,952.8,531.4,5480,NA
52,2,continuous,9,71,trial,17749764.0,17753547.0,3783.0,59,R,17749993,17750287,296,539.9,549.0,5419,left
52,2,continuous,9,71,trial,17749764.0,17753547.0,3783.0,59,R,17750361,17750727,368,1385.1,545.6,4837,right
52,2,continuous,9,71,trial,17749764.0,17753547.0,3783.0,59,R,17750741,17751005,266,1385.0,513.5,4885,right
52,2,continuous,9,71,trial,17749764.0,17753547.0,3783.0,59,R,17751029,17751313,286,1420.5,646.9,4951,right
52,2,continuous,9,71,trial,17749764.0,17753547.0,3783.0,59,R,17751387,17751641,256,534.4,492.5,5095,left
52,2,continuous,9,71,trial,17749764.0,17753547.0,3783.0,59,R,17751655,17751941,288,538.6,533.9,5008,left
52,2,continuous,9,71,trial,17749764.0,17753547.0,3783.0,59,R,17752011,17752169,160,1404.6,536.8,4722,right
52,2,continuous,9,71,trial,17749764.0,17753547.0,3783.0,59,R,17752223,17752435,214,972.6,960.9,4824,likertHorizontal
52,2,continuous,9,71,trial,17749764.0,17753547.0,3783.0,59,R,17752491,17752921,432,1410.7,581.8,4833,right
52,2,continuous,9,71,trial,17749764.0,17753547.0,3783.0,59,R,17752941,17753345,406,1420.3,646.5,4812,right
52,2,continuous,9,71,trial,17749764.0,17753547.0,3783.0,59,R,17753373,17753757,386,1518.8,510.8,4778,right
52,2,continuous,10,84,fixationCross,17754464.0,17759330.0,4866.0,60,R,17753983,17754329,348,1025.6,539.9,5139,NA
52,2,continuous,10,84,trial,17754464.0,17759330.0,4866.0,60,R,17754347,17754631,286,942.5,543.7,5248,NA
52,2,continuous,10,84,trial,17754464.0,17759330.0,4866.0,60,R,17754679,17754917,240,548.2,514.1,5051,left
52,2,continuous,10,84,trial,17754464.0,17759330.0,4866.0,60,R,17754937,17755245,310,455.6,535.6,4897,left
52,2,continuous,10,84,trial,17754464.0,17759330.0,4866.0,60,R,17755271,17755609,340,331.5,458.9,4754,left
52,2,continuous,10,84,trial,17754464.0,17759330.0,4866.0,60,R,17755635,17756009,376,495.0,417.2,4813,left
52,2,continuous,10,84,trial,17754464.0,17759330.0,4866.0,60,R,17756029,17756369,342,579.5,439.3,5037,left
52,2,continuous,10,84,trial,17754464.0,17759330.0,4866.0,60,R,17756439,17756645,208,1382.1,440.0,5024,right
52,2,continuous,10,84,trial,17754464.0,17759330.0,4866.0,60,R,17756663,17756809,148,1459.6,451.9,5061,right
52,2,continuous,10,84,trial,17754464.0,17759330.0,4866.0,60,R,17756835,17757859,1026,1311.3,587.1,5033,right
52,2,continuous,10,84,trial,17754464.0,17759330.0,4866.0,60,R,17757921,17758135,216,1394.0,965.9,5269,NA
52,2,continuous,10,84,trial,17754464.0,17759330.0,4866.0,60,R,17758229,17758543,316,460.9,444.7,5496,left
52,2,continuous,10,84,trial,17754464.0,17759330.0,4866.0,60,R,17758571,17758681,112,656.1,443.6,5577,left
52,2,continuous,10,84,trial,17754464.0,17759330.0,4866.0,60,R,17758755,17759183,430,1465.1,432.0,5327,right
52,2,continuous,10,84,postResponse,17754464.0,17759330.0,4866.0,60,R,17759203,17759679,478,1364.4,415.8,5157,right
52,2,continuous,11,14,fixationCross,17760448.0,17763764.0,3316.0,61,R,17759781,17759821,42,1358.6,414.9,5072,right
52,2,continuous,11,14,fixationCross,17760448.0,17763764.0,3316.0,61,R,17759871,17760141,272,997.7,433.3,5201,NA
52,2,continuous,11,14,trial,17760448.0,17763764.0,3316.0,61,R,17760161,17760705,546,960.4,501.8,5424,NA
52,2,continuous,11,14,trial,17760448.0,17763764.0,3316.0,61,R,17760757,17760955,200,541.6,551.7,5555,left
52,2,continuous,11,14,trial,17760448.0,17763764.0,3316.0,61,R,17760981,17761155,176,427.4,647.0,5477,left
52,2,continuous,11,14,trial,17760448.0,17763764.0,3316.0,61,R,17761227,17761535,310,1337.1,461.1,5046,right
52,2,continuous,11,14,trial,17760448.0,17763764.0,3316.0,61,R,17761561,17761829,270,1400.2,593.0,5054,right
52,2,continuous,11,14,trial,17760448.0,17763764.0,3316.0,61,R,17762021,17762387,368,460.0,648.2,5094,left
52,2,continuous,11,14,trial,17760448.0,17763764.0,3316.0,61,R,17762417,17762573,158,412.3,755.7,5028,NA
52,2,continuous,11,14,trial,17760448.0,17763764.0,3316.0,61,R,17762613,17763071,460,613.1,1006.4,5019,NA
52,2,continuous,11,14,postResponse,17760448.0,17763764.0,3316.0,61,R,17763127,17764111,986,478.2,588.9,5265,left
52,2,continuous,12,95,fixationCross,17764964.0,17769314.0,4350.0,62,R,17764219,17764417,200,488.3,590.9,5254,left
52,2,continuous,12,95,fixationCross,17764964.0,17769314.0,4350.0,62,R,17764509,17764675,168,1414.8,521.6,5165,right
52,2,continuous,12,95,fixationCross,17764964.0,17769314.0,4350.0,62,R,17764731,17764859,130,927.6,540.3,5311,NA
52,2,continuous,12,95,trial,17764964.0,17769314.0,4350.0,62,R,17764871,17765131,262,950.8,535.9,5406,NA
52,2,continuous,12,95,trial,17764964.0,17769314.0,4350.0,62,R,17765181,17765537,358,511.9,535.2,5281,left
52,2,continuous,12,95,trial,17764964.0,17769314.0,4350.0,62,R,17765561,17765757,198,606.5,553.3,5009,left
52,2,continuous,12,95,trial,17764964.0,17769314.0,4350.0,62,R,17765819,17766011,194,1264.1,469.2,4802,right
52,2,continuous,12,95,trial,17764964.0,17769314.0,4350.0,62,R,17766043,17766217,176,1441.7,485.9,4837,right
52,2,continuous,12,95,trial,17764964.0,17769314.0,4350.0,62,R,17766241,17766449,210,1580.1,485.5,4860,right
52,2,continuous,12,95,trial,17764964.0,17769314.0,4350.0,62,R,17766525,17766837,314,559.0,546.3,4980,left
52,2,continuous,12,95,trial,17764964.0,17769314.0,4350.0,62,R,17766851,17767365,516,506.4,545.3,4840,left
52,2,continuous,12,95,trial,17764964.0,17769314.0,4350.0,62,R,17767383,17767631,250,564.8,503.2,4768,left
52,2,continuous,12,95,trial,17764964.0,17769314.0,4350.0,62,R,17767645,17767767,124,619.8,515.3,4797,left
52,2,continuous,12,95,trial,17764964.0,17769314.0,4350.0,62,R,17767797,17768121,326,599.3,647.6,4827,left
52,2,continuous,12,95,trial,17764964.0,17769314.0,4350.0,62,R,17768191,17768783,594,1358.5,493.5,4659,right
52,2,continuous,12,95,trial,17764964.0,17769314.0,4350.0,62,R,17768829,17769017,190,1277.3,947.4,4824,NA
52,2,continuous,12,95,trial,17764964.0,17769314.0,4350.0,62,R,17769041,17769501,462,1398.1,951.8,5001,NA
52,2,continuous,13,16,trial,17770230.0,17775815.0,5585.0,63,R,17769833,17770385,554,956.7,550.3,5278,NA
52,2,continuous,13,16,trial,17770230.0,17775815.0,5585.0,63,R,17770431,17770673,244,572.0,528.0,5070,left
52,2,continuous,13,16,trial,17770230.0,17775815.0,5585.0,63,R,17770699,17771013,316,383.9,489.5,4753,left
52,2,continuous,13,16,trial,17770230.0,17775815.0,5585.0,63,R,17771075,17771167,94,430.8,1120.3,4805,NA
52,2,continuous,13,16,trial,17770230.0,17775815.0,5585.0,63,R,17771189,17771331,144,497.0,1044.6,4892,NA
52,2,continuous,13,16,trial,17770230.0,17775815.0,5585.0,63,R,17771399,17771593,196,1372.6,628.1,4936,right
52,2,continuous,13,16,trial,17770230.0,17775815.0,5585.0,63,R,17771623,17772217,596,1418.0,486.3,5029,right
52,2,continuous,13,16,trial,17770230.0,17775815.0,5585.0,63,R,17772235,17772513,280,1453.2,553.1,4981,right
52,2,continuous,13,16,trial,17770230.0,17775815.0,5585.0,63,R,17772587,17773403,818,524.4,528.2,4959,left
52,2,continuous,13,16,trial,17770230.0,17775815.0,5585.0,63,R,17773423,17773773,352,455.3,506.2,4936,left
52,2,continuous,13,16,trial,17770230.0,17775815.0,5585.0,63,R,17773851,17774249,400,1459.5,497.9,4804,right
52,2,continuous,13,16,trial,17770230.0,17775815.0,5585.0,63,R,17774273,17774691,420,1410.8,625.3,4948,right
52,2,continuous,13,16,trial,17770230.0,17775815.0,5585.0,63,R,17774761,17775005,246,604.0,563.8,5017,left
52,2,continuous,13,16,trial,17770230.0,17775815.0,5585.0,63,R,17775073,17775115,44,1200.7,656.1,4864,right
52,2,continuous,13,16,trial,17770230.0,17775815.0,5585.0,63,R,17775165,17775349,186,896.1,929.4,5030,likertHorizontal
52,2,continuous,13,16,trial,17770230.0,17775815.0,5585.0,63,R,17775375,17775775,402,686.5,983.2,5276,NA
52,2,continuous,13,16,postResponse,17770230.0,17775815.0,5585.0,63,R,17775849,17776161,314,1438.0,512.5,5053,right
52,2,continuous,14,84,fixationCross,17776898.0,17780164.0,3266.0,64,R,17776515,17776589,76,1277.4,479.3,5253,right
52,2,continuous,14,84,fixationCross,17776898.0,17780164.0,3266.0,64,R,17776623,17776739,118,1005.8,517.1,5377,NA
52,2,continuous,14,84,trial,17776898.0,17780164.0,3266.0,64,R,17776753,17777037,286,968.2,518.2,5604,NA
52,2,continuous,14,84,trial,17776898.0,17780164.0,3266.0,64,R,17777091,17777263,174,463.1,530.7,5503,left
52,2,continuous,14,84,trial,17776898.0,17780164.0,3266.0,64,R,17777281,17777401,122,403.3,584.2,5321,left
52,2,continuous,14,84,trial,17776898.0,17780164.0,3266.0,64,R,17777469,17777731,264,1359.8,503.3,4900,right
52,2,continuous,14,84,trial,17776898.0,17780164.0,3266.0,64,R,17777759,17778137,380,1356.5,588.7,4861,right
52,2,continuous,14,84,trial,17776898.0,17780164.0,3266.0,64,R,17778173,17778427,256,1254.3,934.9,4907,NA
52,2,continuous,14,84,trial,17776898.0,17780164.0,3266.0,64,R,17778493,17778673,182,464.6,630.1,5089,left
52,2,continuous,14,84,trial,17776898.0,17780164.0,3266.0,64,R,17778693,17779281,590,395.4,566.4,5179,left
52,2,continuous,14,84,trial,17776898.0,17780164.0,3266.0,64,R,17779341,17779501,162,974.6,960.9,5144,likertHorizontal
52,2,continuous,14,84,trial,17776898.0,17780164.0,3266.0,64,R,17779541,17779847,308,1289.6,956.7,5207,NA
52,2,continuous,14,84,postResponse,17776898.0,17780164.0,3266.0,64,R,17779899,17780507,610,1347.7,445.4,5270,right
52,2,continuous,15,100,fixationCross,17781098.0,17783381.0,2283.0,65,R,17780609,17780741,134,759.7,465.1,5287,NA
52,2,continuous,15,100,fixationCross,17781098.0,17783381.0,2283.0,65,R,17780765,17780961,198,960.3,450.9,5396,NA
52,2,continuous,15,100,trial,17781098.0,17783381.0,2283.0,65,R,17780979,17781237,260,947.6,511.8,5514,NA
52,2,continuous,15,100,trial,17781098.0,17783381.0,2283.0,65,R,17781287,17781461,176,536.1,506.4,5603,left
52,2,continuous,15,100,trial,17781098.0,17783381.0,2283.0,65,R,17781475,17781679,206,559.0,532.7,5508,left
52,2,continuous,15,100,trial,17781098.0,17783381.0,2283.0,65,R,17781703,17782041,340,430.9,507.8,5318,left
52,2,continuous,15,100,trial,17781098.0,17783381.0,2283.0,65,R,17782115,17782261,148,1270.2,512.5,5005,right
52,2,continuous,15,100,trial,17781098.0,17783381.0,2283.0,65,R,17782281,17782481,202,1359.5,495.9,4908,right
52,2,continuous,15,100,trial,17781098.0,17783381.0,2283.0,65,R,17782503,17783051,550,1373.9,567.6,4786,right
52,2,continuous,15,100,trial,17781098.0,17783381.0,2283.0,65,R,17783093,17783319,228,1410.2,968.6,4765,NA
52,2,continuous,15,100,trial,17781098.0,17783381.0,2283.0,65,R,17783329,17783679,352,1432.8,959.1,5037,NA
52,2,continuous,16,62,fixationCross,17784315.0,17788015.0,3700.0,66,R,17783829,17784187,360,999.8,607.5,5424,NA
52,2,continuous,16,62,trial,17784315.0,17788015.0,3700.0,66,R,17784207,17784473,268,950.8,536.6,5610,NA
52,2,continuous,16,62,trial,17784315.0,17788015.0,3700.0,66,R,17784527,17784703,178,483.8,524.2,5614,left
52,2,continuous,16,62,trial,17784315.0,17788015.0,3700.0,66,R,17784713,17785231,520,469.6,556.5,5291,left
52,2,continuous,16,62,trial,17784315.0,17788015.0,3700.0,66,R,17785241,17785355,116,452.3,585.2,4956,left
52,2,continuous,16,62,trial,17784315.0,17788015.0,3700.0,66,R,17785425,17785617,194,1354.3,518.9,4704,right
52,2,continuous,16,62,trial,17784315.0,17788015.0,3700.0,66,R,17785637,17786213,578,1447.0,546.3,4675,right
52,2,continuous,16,62,trial,17784315.0,17788015.0,3700.0,66,R,17786291,17786541,252,607.8,627.1,4848,left
52,2,continuous,16,62,trial,17784315.0,17788015.0,3700.0,66,R,17786567,17787473,908,462.7,576.3,4979,left
52,2,continuous,16,62,postResponse,17784315.0,17788015.0,3700.0,66,R,17787555,17788361,808,1388.2,535.0,4916,right
52,2,continuous,17,20,fixationCross,17788965.0,17791665.0,2700.0,67,R,17788461,17788595,136,1376.0,544.3,5077,right
52,2,continuous,17,20,fixationCross,17788965.0,17791665.0,2700.0,67,R,17788641,17788791,152,1049.5,495.9,5318,NA
52,2,continuous,17,20,trial,17788965.0,17791665.0,2700.0,67,R,17788813,17789115,304,938.5,527.1,5506,NA
52,2,continuous,17,20,trial,17788965.0,17791665.0,2700.0,67,R,17789163,17789383,222,538.1,521.8,5637,left
52,2,continuous,17,20,trial,17788965.0,17791665.0,2700.0,67,R,17789407,17789547,142,435.5,445.9,5379,left
52,2,continuous,17,20,trial,17788965.0,17791665.0,2700.0,67,R,17789621,17789823,204,1399.4,489.3,4912,right
52,2,continuous,17,20,trial,17788965.0,17791665.0,2700.0,67,R,17789847,17789889,44,1522.5,473.8,4793,right
52,2,continuous,17,20,trial,17788965.0,17791665.0,2700.0,67,R,17789967,17790043,78,505.3,462.0,5000,left
52,2,continuous,17,20,trial,17788965.0,17791665.0,2700.0,67,R,17790223,17790385,164,461.2,439.1,4868,left
52,2,continuous,17,20,trial,17788965.0,17791665.0,2700.0,67,R,17790413,17790837,426,308.1,591.0,4844,left
52,2,continuous,17,20,trial,17788965.0,17791665.0,2700.0,67,R,17790893,17791153,262,773.1,778.8,4735,likertHorizontal
52,2,continuous,17,20,trial,17788965.0,17791665.0,2700.0,67,R,17791217,17791423,208,1457.5,497.9,4751,right
52,2,continuous,17,20,trial,17788965.0,17791665.0,2700.0,67,R,17791447,17791889,444,1567.0,458.6,4812,right
52,2,continuous,17,20,postResponse,17788965.0,17791665.0,2700.0,67,R,17791905,17792011,108,1513.7,461.9,4796,right
52,2,continuous,18,14,fixationCross,17792748.0,17794315.0,1567.0,68,R,17792089,17792255,168,1509.2,464.5,5025,right
52,2,continuous,18,14,fixationCross,17792748.0,17794315.0,1567.0,68,R,17792299,17792429,132,1182.3,466.9,5429,NA
52,2,continuous,18,14,trial,17792748.0,17794315.0,1567.0,68,R,17792469,17792899,432,944.8,506.7,5673,NA
52,2,continuous,18,14,trial,17792748.0,17794315.0,1567.0,68,R,17792949,17793151,204,534.4,464.7,5695,left
52,2,continuous,18,14,trial,17792748.0,17794315.0,1567.0,68,R,17793213,17793369,158,1342.7,471.7,5174,right
52,2,continuous,18,14,trial,17792748.0,17794315.0,1567.0,68,R,17793391,17793737,348,1448.3,495.7,5001,right
52,2,continuous,18,14,trial,17792748.0,17794315.0,1567.0,68,R,17793803,17794045,244,714.7,682.1,5187,left
52,2,continuous,18,14,postResponse,17792748.0,17794315.0,1567.0,68,R,17794107,17794661,556,1475.9,490.5,5157,right
52,2,continuous,19,29,fixationCross,17795398.0,17799165.0,3767.0,69,R,17794737,17795057,322,1473.9,499.7,5259,right
52,2,continuous,19,29,fixationCross,17795398.0,17799165.0,3767.0,69,R,17795115,17795237,124,984.7,513.1,5504,NA
52,2,continuous,19,29,trial,17795398.0,17799165.0,3767.0,69,R,17795247,17795551,306,954.3,524.3,5528,NA
52,2,continuous,19,29,trial,17795398.0,17799165.0,3767.0,69,R,17795603,17795763,162,480.3,487.0,5526,left
52,2,continuous,19,29,trial,17795398.0,17799165.0,3767.0,69,R,17795831,17796007,178,1463.1,548.1,5041,right
52,2,continuous,19,29,trial,17795398.0,17799165.0,3767.0,69,R,17796033,17796555,524,1434.2,629.9,4898,right
52,2,continuous,19,29,trial,17795398.0,17799165.0,3767.0,69,R,17796573,17796713,142,1490.7,609.6,4832,right
52,2,continuous,19,29,trial,17795398.0,17799165.0,3767.0,69,R,17796737,17796945,210,1499.8,542.2,4838,right
52,2,continuous,19,29,trial,17795398.0,17799165.0,3767.0,69,R,17796973,17797071,100,1434.7,426.4,4872,right
52,2,continuous,19,29,trial,17795398.0,17799165.0,3767.0,69,R,17797141,17797335,196,492.8,458.2,5131,left
52,2,continuous,19,29,trial,17795398.0,17799165.0,3767.0,69,R,17797353,17797675,324,430.5,475.8,5180,left
52,2,continuous,19,29,trial,17795398.0,17799165.0,3767.0,69,R,17797689,17798729,1042,422.7,463.9,4927,left
52,2,continuous,19,29,postResponse,17795398.0,17799165.0,3767.0,69,R,17798807,17799511,706,1412.5,469.0,4920,right
52,2,continuous,20,87,fixationCross,17800248.0,17802498.0,2250.0,70,R,17799587,17799683,98,1406.7,465.4,5019,right
52,2,continuous,20,87,fixationCross,17800248.0,17802498.0,2250.0,70,R,17799771,17799931,162,649.4,508.2,5373,left
52,2,continuous,20,87,fixationCross,17800248.0,17802498.0,2250.0,70,R,17799963,17800091,130,903.2,506.7,5497,NA
52,2,continuous,20,87,trial,17800248.0,17802498.0,2250.0,70,R,17800105,17800369,266,944.0,514.5,5568,NA
52,2,continuous,20,87,trial,17800248.0,17802498.0,2250.0,70,R,17800421,17800589,170,483.2,471.4,5570,left
52,2,continuous,20,87,trial,17800248.0,17802498.0,2250.0,70,R,17800615,17800743,130,446.7,575.6,5278,left
52,2,continuous,20,87,trial,17800248.0,17802498.0,2250.0,70,R,17800771,17801009,240,374.2,450.7,4980,left
52,2,continuous,20,87,trial,17800248.0,17802498.0,2250.0,70,R,17801075,17801263,190,1321.8,566.4,4637,right
52,2,continuous,20,87,trial,17800248.0,17802498.0,2250.0,70,R,17801285,17801459,176,1415.8,621.6,4588,right
52,2,continuous,20,87,trial,17800248.0,17802498.0,2250.0,70,R,17801477,17801763,288,1417.5,656.9,4593,right
52,2,continuous,20,87,trial,17800248.0,17802498.0,2250.0,70,R,17801791,17802433,644,1330.7,555.0,4664,right
52,2,continuous,20,87,trial,17800248.0,17802498.0,2250.0,70,R,17802503,17802711,210,412.3,483.7,4895,left
52,2,continuous,21,29,fixationCross,17803681.0,17807598.0,3917.0,71,R,17802943,17803353,412,526.4,500.4,5082,left
52,2,continuous,21,29,trial,17803681.0,17807598.0,3917.0,71,R,17803397,17803827,432,922.3,517.3,5031,NA
52,2,continuous,21,29,trial,17803681.0,17807598.0,3917.0,71,R,17803881,17804199,320,433.6,529.9,5331,left
52,2,continuous,21,29,trial,17803681.0,17807598.0,3917.0,71,R,17804215,17804561,348,389.0,519.0,5279,left
52,2,continuous,21,29,trial,17803681.0,17807598.0,3917.0,71,R,17804577,17804863,288,442.7,512.2,5143,left
52,2,continuous,21,29,trial,17803681.0,17807598.0,3917.0,71,R,17804885,17805037,154,417.9,612.8,5133,left
52,2,continuous,21,29,trial,17803681.0,17807598.0,3917.0,71,R,17805111,17805355,246,1419.3,492.1,4901,right
52,2,continuous,21,29,trial,17803681.0,17807598.0,3917.0,71,R,17805375,17806097,724,1449.4,539.6,4795,right
52,2,continuous,21,29,trial,17803681.0,17807598.0,3917.0,71,R,17806117,17806343,228,1393.9,507.3,4707,right
52,2,continuous,21,29,trial,17803681.0,17807598.0,3917.0,71,R,17806357,17806651,296,1430.8,479.0,4693,right
52,2,continuous,21,29,trial,17803681.0,17807598.0,3917.0,71,R,17806681,17807365,686,1420.9,583.5,4661,right
52,2,continuous,21,29,trial,17803681.0,17807598.0,3917.0,71,R,17807389,17807561,174,1544.7,513.3,4678,right
52,2,continuous,21,29,postResponse,17803681.0,17807598.0,3917.0,71,R,17807641,17807927,288,454.6,504.6,4986,left
52,2,continuous,22,92,fixationCross,17808682.0,17810298.0,1616.0,72,R,17808047,17808371,326,774.3,437.4,5098,NA
52,2,continuous,22,92,trial,17808682.0,17810298.0,1616.0,72,R,17808401,17808839,440,942.6,518.6,5231,NA
52,2,continuous,22,92,trial,17808682.0,17810298.0,1616.0,72,R,17808889,17809175,288,504.1,524.2,5249,left
52,2,continuous,22,92,trial,17808682.0,17810298.0,1616.0,72,R,17809195,17809323,130,459.2,581.9,4988,left
52,2,continuous,22,92,trial,17808682.0,17810298.0,1616.0,72,R,17809395,17809561,168,1430.1,515.3,4615,right
52,2,continuous,22,92,postResponse,17808682.0,17810298.0,1616.0,72,R,17809575,17810645,1072,1403.3,546.9,4589,right
52,2,continuous,23,25,fixationCross,17811348.0,17813815.0,2467.0,73,R,17810719,17810873,156,1399.9,554.0,4982,right
52,2,continuous,23,25,fixationCross,17811348.0,17813815.0,2467.0,73,R,17810925,17810995,72,1032.0,559.3,5176,NA
52,2,continuous,23,25,fixationCross,17811348.0,17813815.0,2467.0,73,R,17811161,17811189,30,930.1,461.5,5355,NA
52,2,continuous,23,25,trial,17811348.0,17813815.0,2467.0,73,R,17811403,17811495,94,946.4,516.1,5555,NA
52,2,continuous,23,25,trial,17811348.0,17813815.0,2467.0,73,R,17811543,17811795,254,509.9,528.3,5653,left
52,2,continuous,23,25,trial,17811348.0,17813815.0,2467.0,73,R,17811823,17812023,202,488.6,448.7,5228,left
52,2,continuous,23,25,trial,17811348.0,17813815.0,2467.0,73,R,17812049,17812235,188,357.0,610.8,4858,left
52,2,continuous,23,25,trial,17811348.0,17813815.0,2467.0,73,R,17812253,17812421,170,398.8,579.5,4709,left
52,2,continuous,23,25,trial,17811348.0,17813815.0,2467.0,73,R,17812439,17812595,158,436.5,539.8,4607,left
52,2,continuous,23,25,trial,17811348.0,17813815.0,2467.0,73,R,17812667,17812807,142,1337.5,457.9,4354,right
52,2,continuous,23,25,trial,17811348.0,17813815.0,2467.0,73,R,17812823,17813441,620,1325.3,414.2,4387,right
52,2,continuous,23,25,trial,17811348.0,17813815.0,2467.0,73,R,17813503,17813713,212,577.9,454.1,4679,left
52,2,continuous,23,25,trial,17811348.0,17813815.0,2467.0,73,R,17813733,17814011,280,494.8,441.2,4837,left
52,2,continuous,24,32,fixationCross,17814882.0,17818265.0,3383.0,74,R,17814271,17814577,308,1127.7,495.7,5089,NA
52,2,continuous,24,32,trial,17814882.0,17818265.0,3383.0,74,R,17814603,17815039,438,956.1,521.6,5418,NA
52,2,continuous,24,32,trial,17814882.0,17818265.0,3383.0,74,R,17815091,17815323,234,535.6,488.5,5204,left
52,2,continuous,24,32,trial,17814882.0,17818265.0,3383.0,74,R,17815347,17815661,316,460.5,571.7,4944,left
52,2,continuous,24,32,trial,17814882.0,17818265.0,3383.0,74,R,17815741,17815921,182,1405.1,505.7,4635,right
52,2,continuous,24,32,trial,17814882.0,17818265.0,3383.0,74,R,17815939,17816079,142,1432.3,465.1,4627,right
52,2,continuous,24,32,trial,17814882.0,17818265.0,3383.0,74,R,17816097,17816313,218,1487.0,454.0,4687,right
52,2,continuous,24,32,trial,17814882.0,17818265.0,3383.0,74,R,17816387,17816595,210,558.3,423.2,4870,left
52,2,continuous,24,32,trial,17814882.0,17818265.0,3383.0,74,R,17816631,17816987,358,406.7,567.8,4944,left
52,2,continuous,24,32,trial,17814882.0,17818265.0,3383.0,74,R,17817007,17817255,250,467.8,615.4,4952,left
52,2,continuous,24,32,trial,17814882.0,17818265.0,3383.0,74,R,17817327,17818193,868,1378.3,521.3,4679,right
52,2,continuous,24,32,postResponse,17814882.0,17818265.0,3383.0,74,R,17818257,17818611,356,597.0,412.9,4906,left
52,2,continuous,25,7,fixationCross,17819348.0,17821132.0,1784.0,75,R,17818711,17818819,110,591.9,421.7,4940,left
52,2,continuous,25,7,fixationCross,17819348.0,17821132.0,1784.0,75,R,17818843,17819035,194,782.4,442.3,5037,NA
52,2,continuous,25,7,trial,17819348.0,17821132.0,1784.0,75,R,17819059,17819501,444,943.1,535.2,5331,NA
52,2,continuous,25,7,trial,17819348.0,17821132.0,1784.0,75,R,17819549,17819693,146,578.8,546.8,5555,left
52,2,continuous,25,7,trial,17819348.0,17821132.0,1784.0,75,R,17819715,17819919,206,593.4,615.1,5391,left
52,2,continuous,25,7,trial,17819348.0,17821132.0,1784.0,75,R,17819993,17820505,514,1343.2,466.1,4993,right
52,2,continuous,25,7,trial,17819348.0,17821132.0,1784.0,75,R,17820527,17820639,114,1323.6,531.9,4903,right
52,2,continuous,25,7,trial,17819348.0,17821132.0,1784.0,75,R,17820707,17821043,338,594.3,1019.3,4911,NA
52,2,continuous,25,7,postResponse,17819348.0,17821132.0,1784.0,75,R,17821111,17821477,368,1401.0,628.6,4775,right
52,2,continuous,26,16,fixationCross,17841898.0,17844032.0,2134.0,76,R,17841111,17841247,138,144.4,59.5,5506,NA
52,2,continuous,26,16,fixationCross,17841898.0,17844032.0,2134.0,76,R,17841537,17841645,110,1032.1,407.5,5233,NA
52,2,continuous,26,16,trial,17841898.0,17844032.0,2134.0,76,R,17841673,17842179,508,975.7,523.1,5729,NA
52,2,continuous,26,16,trial,17841898.0,17844032.0,2134.0,76,R,17842233,17842407,176,1425.0,486.4,5278,right
52,2,continuous,26,16,trial,17841898.0,17844032.0,2134.0,76,R,17842425,17842583,160,1452.1,531.7,5071,right
52,2,continuous,26,16,trial,17841898.0,17844032.0,2134.0,76,R,17842655,17842943,290,464.3,523.5,5127,left
52,2,continuous,26,16,trial,17841898.0,17844032.0,2134.0,76,R,17842963,17843117,156,519.9,479.3,5034,left
52,2,continuous,26,16,trial,17841898.0,17844032.0,2134.0,76,R,17843133,17844215,1084,497.8,454.5,4814,left
52,2,continuous,26,16,trial,17841898.0,17844032.0,2134.0,76,R,17844233,17844261,30,492.0,404.5,4908,left
52,2,continuous,27,71,fixationCross,17844932.0,17846199.0,1267.0,77,R,17844459,17844779,322,1041.8,502.2,5265,NA
52,2,continuous,27,71,trial,17844932.0,17846199.0,1267.0,77,R,17844799,17845089,292,956.9,512.1,5843,NA
52,2,continuous,27,71,trial,17844932.0,17846199.0,1267.0,77,R,17845141,17845389,250,542.1,506.8,5697,left
52,2,continuous,27,71,trial,17844932.0,17846199.0,1267.0,77,R,17845465,17845705,242,1467.2,522.0,5156,right
52,2,continuous,27,71,trial,17844932.0,17846199.0,1267.0,77,R,17845719,17846145,428,1419.6,532.4,5067,right
52,2,continuous,27,71,postResponse,17844932.0,17846199.0,1267.0,77,R,17846219,17846545,328,530.3,477.5,5150,left
52,2,continuous,28,83,fixationCross,17847282.0,17850132.0,2850.0,78,R,17846645,17846677,34,525.4,484.7,5308,left
52,2,continuous,28,83,fixationCross,17847282.0,17850132.0,2850.0,78,R,17846701,17846961,262,693.6,466.0,5396,left
52,2,continuous,28,83,trial,17847282.0,17850132.0,2850.0,78,R,17846993,17847457,466,911.6,511.8,5614,NA
52,2,continuous,28,83,trial,17847282.0,17850132.0,2850.0,78,R,17847503,17847681,180,506.1,547.7,5725,left
52,2,continuous,28,83,trial,17847282.0,17850132.0,2850.0,78,R,17847691,17847807,118,512.2,579.4,5579,left
52,2,continuous,28,83,trial,17847282.0,17850132.0,2850.0,78,R,17847873,17848039,168,1336.6,453.0,5103,right
52,2,continuous,28,83,trial,17847282.0,17850132.0,2850.0,78,R,17848059,17848469,412,1357.9,395.2,4852,right
52,2,continuous,28,83,trial,17847282.0,17850132.0,2850.0,78,R,17848537,17848783,248,502.6,498.9,4837,left
52,2,continuous,28,83,trial,17847282.0,17850132.0,2850.0,78,R,17848807,17849023,218,456.8,572.3,4849,left
52,2,continuous,28,83,trial,17847282.0,17850132.0,2850.0,78,R,17849047,17849331,286,604.0,580.4,4943,left
52,2,continuous,28,83,trial,17847282.0,17850132.0,2850.0,78,R,17849347,17849543,198,621.0,541.4,5013,left
52,2,continuous,28,83,trial,17847282.0,17850132.0,2850.0,78,R,17849603,17849925,324,1153.3,978.8,5093,likertHorizontal
52,2,continuous,28,83,postResponse,17847282.0,17850132.0,2850.0,78,R,17849979,17850475,498,1335.5,501.7,5248,right
52,2,continuous,29,81,fixationCross,17851249.0,17853398.0,2149.0,79,R,17850579,17850635,58,1330.1,501.6,5272,right
52,2,continuous,29,81,fixationCross,17851249.0,17853398.0,2149.0,79,R,17850705,17850943,240,771.3,505.9,5386,NA
52,2,continuous,29,81,trial,17851249.0,17853398.0,2149.0,79,R,17850969,17851435,468,957.3,521.9,5547,NA
52,2,continuous,29,81,trial,17851249.0,17853398.0,2149.0,79,R,17851489,17851699,212,522.6,512.5,5534,left
52,2,continuous,29,81,trial,17851249.0,17853398.0,2149.0,79,R,17851709,17851847,140,486.3,498.4,5352,left
52,2,continuous,29,81,trial,17851249.0,17853398.0,2149.0,79,R,17851865,17851961,98,415.7,472.8,5256,left
52,2,continuous,29,81,trial,17851249.0,17853398.0,2149.0,79,R,17852029,17852253,226,1327.4,567.8,4993,right
52,2,continuous,29,81,trial,17851249.0,17853398.0,2149.0,79,R,17852279,17853429,1152,1502.2,512.8,4709,right
52,2,continuous,29,81,postResponse,17851249.0,17853398.0,2149.0,79,R,17853451,17853747,298,1500.2,451.4,4706,right
52,2,continuous,30,100,fixationCross,17854515.0,17858916.0,4401.0,80,R,17853847,17854179,334,1498.2,459.0,4891,right
52,2,continuous,30,100,trial,17854515.0,17858916.0,4401.0,80,R,17854233,17854641,410,964.2,511.1,5327,NA
52,2,continuous,30,100,trial,17854515.0,17858916.0,4401.0,80,R,17854693,17854901,210,543.1,471.3,5600,left
52,2,continuous,30,100,trial,17854515.0,17858916.0,4401.0,80,R,17854977,17855153,178,1388.1,456.6,5182,right
52,2,continuous,30,100,trial,17854515.0,17858916.0,4401.0,80,R,17855169,17855943,776,1438.1,450.1,4748,right
52,2,continuous,30,100,trial,17854515.0,17858916.0,4401.0,80,R,17855973,17856273,302,1459.6,568.6,4410,right
52,2,continuous,30,100,trial,17854515.0,17858916.0,4401.0,80,R,17856293,17856427,136,1538.5,579.3,4454,right
52,2,continuous,30,100,trial,17854515.0,17858916.0,4401.0,80,R,17856457,17857213,758,1440.1,428.8,4458,right
52,2,continuous,30,100,trial,17854515.0,17858916.0,4401.0,80,R,17857255,17857621,368,1218.9,592.9,4520,right
52,2,continuous,30,100,trial,17854515.0,17858916.0,4401.0,80,R,17857653,17857803,152,1217.9,465.8,4633,right
52,2,continuous,30,100,trial,17854515.0,17858916.0,4401.0,80,R,17857869,17858223,356,566.1,455.2,4747,left
52,2,continuous,30,100,trial,17854515.0,17858916.0,4401.0,80,R,17858259,17858435,178,480.2,582.9,4787,left
52,2,continuous,30,100,trial,17854515.0,17858916.0,4401.0,80,R,17858499,17858741,244,1276.7,958.7,4800,NA
52,2,continuous,30,100,trial,17854515.0,17858916.0,4401.0,80,R,17858767,17859163,398,1435.9,970.8,4964,NA
52,2,continuous,31,22,fixationCross,17859832.0,17862549.0,2717.0,81,R,17859349,17859375,28,1098.3,592.1,5098,NA
52,2,continuous,31,22,fixationCross,17859832.0,17862549.0,2717.0,81,R,17859391,17859763,374,1040.5,525.9,5235,NA
52,2,continuous,31,22,trial,17859832.0,17862549.0,2717.0,81,R,17859781,17859981,202,955.1,517.5,5422,NA
52,2,continuous,31,22,trial,17859832.0,17862549.0,2717.0,81,R,17860033,17860423,392,522.9,483.1,5405,left
52,2,continuous,31,22,trial,17859832.0,17862549.0,2717.0,81,R,17860439,17860615,178,517.5,533.3,5173,left
52,2,continuous,31,22,trial,17859832.0,17862549.0,2717.0,81,R,17860655,17860945,292,270.2,585.0,5023,left
52,2,continuous,31,22,trial,17859832.0,17862549.0,2717.0,81,R,17860961,17861031,72,323.6,614.1,4961,left
52,2,continuous,31,22,trial,17859832.0,17862549.0,2717.0,81,R,17861107,17861347,242,1332.1,514.6,4731,right
52,2,continuous,31,22,trial,17859832.0,17862549.0,2717.0,81,R,17861365,17861743,380,1396.6,499.0,4680,right
52,2,continuous,31,22,trial,17859832.0,17862549.0,2717.0,81,R,17861767,17862093,328,1544.4,581.8,4576,right
52,2,continuous,31,22,trial,17859832.0,17862549.0,2717.0,81,R,17862167,17862355,190,765.2,957.2,4876,likertHorizontal
52,2,continuous,31,22,trial,17859832.0,17862549.0,2717.0,81,R,17862433,17862511,80,1406.4,640.1,4725,right
52,2,continuous,31,22,postResponse,17859832.0,17862549.0,2717.0,81,R,17862581,17862893,314,492.2,479.0,5040,left
52,2,continuous,32,94,fixationCross,17863482.0,17867332.0,3850.0,82,R,17863019,17863025,8,865.9,455.0,5115,NA
52,2,continuous,32,94,fixationCross,17863482.0,17867332.0,3850.0,82,R,17863049,17863333,286,1000.1,467.2,5125,NA
52,2,continuous,32,94,trial,17863482.0,17867332.0,3850.0,82,R,17863353,17863619,268,939.9,513.3,5286,NA
52,2,continuous,32,94,trial,17863482.0,17867332.0,3850.0,82,R,17863675,17863827,154,475.8,509.1,5340,left
52,2,continuous,32,94,trial,17863482.0,17867332.0,3850.0,82,R,17863893,17864159,268,1381.0,468.4,4986,right
52,2,continuous,32,94,trial,17863482.0,17867332.0,3850.0,82,R,17864181,17864513,334,1400.5,556.3,4815,right
52,2,continuous,32,94,trial,17863482.0,17867332.0,3850.0,82,R,17864543,17864775,234,1391.2,409.2,4698,right
52,2,continuous,32,94,trial,17863482.0,17867332.0,3850.0,82,R,17864805,17865231,428,1512.5,532.6,4683,right
52,2,continuous,32,94,trial,17863482.0,17867332.0,3850.0,82,R,17865261,17865827,568,1381.8,435.3,4680,right
52,2,continuous,32,94,trial,17863482.0,17867332.0,3850.0,82,R,17865907,17866159,254,442.6,483.9,4838,left
52,2,continuous,32,94,trial,17863482.0,17867332.0,3850.0,82,R,17866173,17866315,144,480.6,506.6,4835,left
52,2,continuous,32,94,trial,17863482.0,17867332.0,3850.0,82,R,17866387,17866713,328,1425.5,529.1,4656,right
52,2,continuous,32,94,trial,17863482.0,17867332.0,3850.0,82,R,17866751,17866923,174,1369.5,898.7,4888,NA
52,2,continuous,32,94,trial,17863482.0,17867332.0,3850.0,82,R,17866941,17867093,154,1390.5,948.6,4888,NA
52,2,continuous,32,94,postResponse,17863482.0,17867332.0,3850.0,82,R,17867137,17867679,544,1359.4,534.2,4973,right
52,2,continuous,33,70,fixationCross,17868366.0,17873249.0,4883.0,83,R,17867753,17868051,300,1352.4,549.7,5081,right
52,2,continuous,33,70,trial,17868366.0,17873249.0,4883.0,83,R,17868099,17868511,414,949.8,530.2,5427,NA
52,2,continuous,33,70,trial,17868366.0,17873249.0,4883.0,83,R,17868563,17868809,248,547.3,554.2,5726,left
52,2,continuous,33,70,trial,17868366.0,17873249.0,4883.0,83,R,17868839,17869143,306,553.2,680.1,5607,left
52,2,continuous,33,70,trial,17868366.0,17873249.0,4883.0,83,R,17869209,17869857,650,1389.4,519.7,5016,right
52,2,continuous,33,70,trial,17868366.0,17873249.0,4883.0,83,R,17869873,17870113,242,1453.0,521.6,4965,right
52,2,continuous,33,70,trial,17868366.0,17873249.0,4883.0,83,R,17870131,17870479,350,1415.2,580.9,4955,right
52,2,continuous,33,70,trial,17868366.0,17873249.0,4883.0,83,R,17870503,17870641,140,1399.2,515.6,4938,right
52,2,continuous,33,70,trial,17868366.0,17873249.0,4883.0,83,R,17870715,17870919,206,461.8,625.0,5019,left
52,2,continuous,33,70,trial,17868366.0,17873249.0,4883.0,83,R,17870945,17871099,156,560.6,689.3,4996,left
52,2,continuous,33,70,trial,17868366.0,17873249.0,4883.0,83,R,17871147,17871541,396,865.5,956.6,4954,likertHorizontal
52,2,continuous,33,70,trial,17868366.0,17873249.0,4883.0,83,R,17871557,17871659,104,934.5,960.4,5140,likertHorizontal
52,2,continuous,33,70,trial,17868366.0,17873249.0,4883.0,83,R,17871711,17871893,184,554.6,655.8,5271,left
52,2,continuous,33,70,trial,17868366.0,17873249.0,4883.0,83,R,17871907,17872059,154,555.6,686.2,5272,left
52,2,continuous,33,70,trial,17868366.0,17873249.0,4883.0,83,R,17872101,17872293,194,510.6,433.2,5052,left
52,2,continuous,33,70,trial,17868366.0,17873249.0,4883.0,83,R,17872309,17872543,236,552.1,457.6,4876,left
52,2,continuous,33,70,trial,17868366.0,17873249.0,4883.0,83,R,17872581,17872921,342,520.7,702.0,4799,left
52,2,continuous,33,70,postResponse,17868366.0,17873249.0,4883.0,83,R,17872995,17873591,598,1417.4,537.8,4642,right
52,2,continuous,34,90,fixationCross,17874283.0,17876132.0,1849.0,84,R,17873777,17873977,202,1170.6,498.3,5097,NA
52,2,continuous,34,90,trial,17874283.0,17876132.0,1849.0,84,R,17874003,17874413,412,952.1,522.1,5464,NA
52,2,continuous,34,90,trial,17874283.0,17876132.0,1849.0,84,R,17874461,17874647,188,552.9,505.3,5320,left
52,2,continuous,34,90,trial,17874283.0,17876132.0,1849.0,84,R,17874679,17874937,260,504.1,362.1,5027,left
52,2,continuous,34,90,trial,17874283.0,17876132.0,1849.0,84,R,17875009,17875205,198,1479.5,454.5,4643,right
52,2,continuous,34,90,trial,17874283.0,17876132.0,1849.0,84,R,17875223,17875619,398,1430.7,502.2,4677,right
52,2,continuous,34,90,trial,17874283.0,17876132.0,1849.0,84,R,17875669,17875909,242,1154.5,934.8,4760,likertHorizontal
52,2,continuous,34,90,trial,17874283.0,17876132.0,1849.0,84,R,17875979,17876123,146,502.9,445.9,4920,left
52,2,continuous,34,90,postResponse,17874283.0,17876132.0,1849.0,84,R,17876151,17876479,330,513.0,353.2,5144,left
52,2,continuous,35,100,fixationCross,17877082.0,17878766.0,1684.0,85,R,17876579,17876863,286,933.7,451.3,5271,NA
52,2,continuous,35,100,fixationCross,17877082.0,17878766.0,1684.0,85,R,17876875,17877047,174,968.0,464.2,5410,NA
52,2,continuous,35,100,trial,17877082.0,17878766.0,1684.0,85,R,17877063,17877237,176,948.3,509.9,5450,NA
52,2,continuous,35,100,trial,17877082.0,17878766.0,1684.0,85,R,17877287,17877603,318,529.4,508.7,5396,left
52,2,continuous,35,100,trial,17877082.0,17878766.0,1684.0,85,R,17877673,17877941,270,1445.8,576.6,4848,right
52,2,continuous,35,100,trial,17877082.0,17878766.0,1684.0,85,R,17877955,17878631,678,1473.2,590.6,4957,right
52,2,continuous,35,100,trial,17877082.0,17878766.0,1684.0,85,R,17878677,17879049,374,1405.1,938.9,5354,NA
52,2,continuous,36,84,fixationCross,17879665.0,17882116.0,2451.0,86,R,17879177,17879329,154,1115.7,541.5,5441,NA
52,2,continuous,36,84,fixationCross,17879665.0,17882116.0,2451.0,86,R,17879359,17879571,214,889.8,508.1,5549,NA
52,2,continuous,36,84,trial,17879665.0,17882116.0,2451.0,86,R,17879589,17879805,218,952.3,517.9,5571,NA
52,2,continuous,36,84,trial,17879665.0,17882116.0,2451.0,86,R,17879855,17880137,284,519.5,516.4,5403,left
52,2,continuous,36,84,trial,17879665.0,17882116.0,2451.0,86,R,17880153,17880317,166,461.1,512.5,5158,left
52,2,continuous,36,84,trial,17879665.0,17882116.0,2451.0,86,R,17880387,17881051,666,1374.3,519.6,4818,right
52,2,continuous,36,84,trial,17879665.0,17882116.0,2451.0,86,R,17881123,17881449,328,487.4,483.8,4877,left
52,2,continuous,36,84,trial,17879665.0,17882116.0,2451.0,86,R,17881465,17881841,378,531.7,525.9,4853,left
52,2,continuous,36,84,trial,17879665.0,17882116.0,2451.0,86,R,17881909,17882333,426,1323.3,535.8,4786,right
52,2,continuous,37,50,fixationCross,17883316.0,17886566.0,3250.0,87,R,17882565,17882697,134,1275.2,538.4,4971,right
52,2,continuous,37,50,fixationCross,17883316.0,17886566.0,3250.0,87,R,17882769,17882991,224,688.3,521.1,5284,left
52,2,continuous,37,50,trial,17883316.0,17886566.0,3250.0,87,R,17883027,17883457,432,956.0,519.3,5275,NA
52,2,continuous,37,50,trial,17883316.0,17886566.0,3250.0,87,R,17883511,17883739,230,498.5,532.1,5296,left
52,2,continuous,37,50,trial,17883316.0,17886566.0,3250.0,87,R,17883759,17883989,232,458.5,592.5,5107,left
52,2,continuous,37,50,trial,17883316.0,17886566.0,3250.0,87,R,17884007,17884195,190,481.5,646.1,4982,left
52,2,continuous,37,50,trial,17883316.0,17886566.0,3250.0,87,R,17884269,17884559,292,1437.7,492.0,4785,right
52,2,continuous,37,50,trial,17883316.0,17886566.0,3250.0,87,R,17884575,17884847,274,1497.6,502.4,4891,right
52,2,continuous,37,50,trial,17883316.0,17886566.0,3250.0,87,R,17884865,17885015,152,1450.3,557.2,4845,right
52,2,continuous,37,50,trial,17883316.0,17886566.0,3250.0,87,R,17885093,17885407,316,508.5,537.4,4898,left
52,2,continuous,37,50,trial,17883316.0,17886566.0,3250.0,87,R,17885457,17885607,152,867.8,956.0,4878,likertHorizontal
52,2,continuous,37,50,trial,17883316.0,17886566.0,3250.0,87,R,17885625,17885769,146,940.2,960.9,4844,likertHorizontal
52,2,continuous,37,50,trial,17883316.0,17886566.0,3250.0,87,R,17885821,17885969,150,536.5,651.9,4958,left
52,2,continuous,37,50,trial,17883316.0,17886566.0,3250.0,87,R,17886029,17886157,130,1088.2,985.6,4973,likertHorizontal
52,2,continuous,37,50,trial,17883316.0,17886566.0,3250.0,87,R,17886183,17886795,614,930.0,969.4,5120,likertHorizontal
52,2,continuous,37,50,postResponse,17883316.0,17886566.0,3250.0,87,R,17886843,17886913,72,1006.0,658.1,5320,NA
