participantNo,block,task,blockTrial,response,trialStage,trialStartTime,trialFinishTime,rt,trial,eye,fixStart,fixEnd,fixLength,fixPosX,fixPosY,dilation,aoi
34,1,binary,1,1,fixationCross,16157688.0,16160871.0,3183.0,1,L,16147395,16147831,438,933.0,469.7,5123,NA
34,1,binary,1,1,fixationCross,16157688.0,16160871.0,3183.0,1,L,16147863,16148011,150,936.1,669.2,5431,NA
34,1,binary,1,1,fixationCross,16157688.0,16160871.0,3183.0,1,L,16148033,16148251,220,949.5,589.7,5548,NA
34,1,binary,1,1,fixationCross,16157688.0,16160871.0,3183.0,1,L,16148429,16148713,286,924.0,582.6,5526,NA
34,1,binary,1,1,fixationCross,16157688.0,16160871.0,3183.0,1,L,16148777,16149043,268,1480.1,604.3,5457,right
34,1,binary,1,1,fixationCross,16157688.0,16160871.0,3183.0,1,L,16149213,16149407,196,944.7,620.4,5412,NA
34,1,binary,1,1,fixationCross,16157688.0,16160871.0,3183.0,1,L,16149419,16150195,778,941.4,591.7,5353,NA
34,1,binary,1,1,fixationCross,16157688.0,16160871.0,3183.0,1,L,16150243,16150365,124,419.3,522.0,5199,left
34,1,binary,1,1,fixationCross,16157688.0,16160871.0,3183.0,1,L,16150409,16151891,1484,924.2,569.6,5300,NA
34,1,binary,1,1,fixationCross,16157688.0,16160871.0,3183.0,1,L,16151903,16151979,78,956.1,575.9,5040,NA
34,1,binary,1,1,fixationCross,16157688.0,16160871.0,3183.0,1,L,16152121,16153135,1016,938.8,576.0,4988,NA
34,1,binary,1,1,fixationCross,16157688.0,16160871.0,3183.0,1,L,16153179,16153273,96,583.6,530.8,4973,left
34,1,binary,1,1,fixationCross,16157688.0,16160871.0,3183.0,1,L,16153315,16153695,382,947.9,575.2,5096,NA
34,1,binary,1,1,fixationCross,16157688.0,16160871.0,3183.0,1,L,16153769,16153935,168,1749.1,763.1,5059,NA
34,1,binary,1,1,fixationCross,16157688.0,16160871.0,3183.0,1,L,16153993,16154751,760,947.5,559.3,5236,NA
34,1,binary,1,1,fixationCross,16157688.0,16160871.0,3183.0,1,L,16154903,16155855,954,942.6,556.3,5069,NA
34,1,binary,1,1,fixationCross,16157688.0,16160871.0,3183.0,1,L,16155915,16156047,134,347.5,376.8,4667,left
34,1,binary,1,1,fixationCross,16157688.0,16160871.0,3183.0,1,L,16156103,16156549,448,951.6,558.7,4530,NA
34,1,binary,1,1,fixationCross,16157688.0,16160871.0,3183.0,1,L,16156601,16156803,204,1572.5,669.4,4499,right
34,1,binary,1,1,fixationCross,16157688.0,16160871.0,3183.0,1,L,16156853,16157359,508,969.5,568.6,4668,NA
34,1,binary,1,1,fixationCross,16157688.0,16160871.0,3183.0,1,L,16157435,16157687,254,1802.1,655.6,4843,NA
34,1,binary,1,1,trial,16157688.0,16160871.0,3183.0,1,L,16157753,16157939,188,936.7,543.3,4989,NA
34,1,binary,1,1,trial,16157688.0,16160871.0,3183.0,1,L,16157981,16158381,402,562.3,511.2,4957,left
34,1,binary,1,1,trial,16157688.0,16160871.0,3183.0,1,L,16158445,16158699,256,1462.5,591.1,4418,right
34,1,binary,1,1,trial,16157688.0,16160871.0,3183.0,1,L,16158751,16158933,184,1055.7,900.0,4508,likertHorizontal
34,1,binary,1,1,trial,16157688.0,16160871.0,3183.0,1,L,16158983,16159227,246,578.3,563.2,4699,left
34,1,binary,1,1,trial,16157688.0,16160871.0,3183.0,1,L,16159263,16159349,88,560.1,416.2,4740,left
34,1,binary,1,1,trial,16157688.0,16160871.0,3183.0,1,L,16159419,16159897,480,1523.0,564.5,4270,right
34,1,binary,1,1,trial,16157688.0,16160871.0,3183.0,1,L,16159965,16160211,248,607.3,442.1,4562,left
34,1,binary,1,1,trial,16157688.0,16160871.0,3183.0,1,L,16160235,16160355,122,536.1,542.7,4618,left
34,1,binary,1,1,trial,16157688.0,16160871.0,3183.0,1,L,16160403,16160633,232,501.5,974.7,4515,NA
34,1,binary,1,1,postResponse,16157688.0,16160871.0,3183.0,1,L,16160681,16161235,556,515.9,515.1,4712,left
34,1,binary,2,1,fixationCross,16171604.0,16173671.0,2067.0,2,L,16161399,16161719,322,779.5,454.5,5021,NA
34,1,binary,2,1,fixationCross,16171604.0,16173671.0,2067.0,2,L,16161749,16162535,788,937.3,575.7,5120,NA
34,1,binary,2,1,fixationCross,16171604.0,16173671.0,2067.0,2,L,16162557,16162741,186,1023.3,620.0,4790,NA
34,1,binary,2,1,fixationCross,16171604.0,16173671.0,2067.0,2,L,16162759,16166521,3764,954.7,580.3,4850,NA
34,1,binary,2,1,fixationCross,16171604.0,16173671.0,2067.0,2,L,16166531,16168411,1882,963.7,581.2,4824,NA
34,1,binary,2,1,fixationCross,16171604.0,16173671.0,2067.0,2,L,16168421,16168799,380,984.9,600.0,4954,NA
34,1,binary,2,1,fixationCross,16171604.0,16173671.0,2067.0,2,L,16168955,16169683,730,971.2,586.5,4934,NA
34,1,binary,2,1,fixationCross,16171604.0,16173671.0,2067.0,2,L,16169821,16170191,372,979.9,615.8,4441,NA
34,1,binary,2,1,fixationCross,16171604.0,16173671.0,2067.0,2,L,16170355,16171137,784,948.0,599.1,4885,NA
34,1,binary,2,1,fixationCross,16171604.0,16173671.0,2067.0,2,L,16171167,16171299,134,1134.8,602.1,4948,NA
34,1,binary,2,1,trial,16171604.0,16173671.0,2067.0,2,L,16171325,16171875,552,964.9,595.6,4929,NA
34,1,binary,2,1,trial,16171604.0,16173671.0,2067.0,2,L,16171919,16172109,192,575.5,519.1,4807,left
34,1,binary,2,1,trial,16171604.0,16173671.0,2067.0,2,L,16172141,16172325,186,780.9,567.5,4469,NA
34,1,binary,2,1,trial,16171604.0,16173671.0,2067.0,2,L,16172345,16172523,180,678.1,578.2,4267,left
34,1,binary,2,1,trial,16171604.0,16173671.0,2067.0,2,L,16172575,16172717,144,515.8,965.3,4166,NA
34,1,binary,2,1,trial,16171604.0,16173671.0,2067.0,2,L,16172761,16172969,210,448.7,565.6,4170,left
34,1,binary,2,1,trial,16171604.0,16173671.0,2067.0,2,L,16172995,16173279,286,619.6,594.3,4199,left
34,1,binary,2,1,trial,16171604.0,16173671.0,2067.0,2,L,16173339,16173433,96,1361.0,556.6,4135,right
34,1,binary,2,1,postResponse,16171604.0,16173671.0,2067.0,2,L,16173487,16174013,528,565.0,536.0,4399,left
34,1,binary,3,1,fixationCross,16184388.0,16187321.0,2933.0,3,L,16174179,16174299,122,1093.7,462.3,4381,NA
34,1,binary,3,1,fixationCross,16184388.0,16187321.0,2933.0,3,L,16174357,16174673,318,1803.4,478.7,4361,NA
34,1,binary,3,1,fixationCross,16184388.0,16187321.0,2933.0,3,L,16174731,16174869,140,1059.7,542.8,4778,NA
34,1,binary,3,1,fixationCross,16184388.0,16187321.0,2933.0,3,L,16174887,16175257,372,979.2,587.9,4864,NA
34,1,binary,3,1,fixationCross,16184388.0,16187321.0,2933.0,3,L,16175503,16175649,148,974.3,575.6,4852,NA
34,1,binary,3,1,fixationCross,16184388.0,16187321.0,2933.0,3,L,16175661,16176665,1006,957.7,604.3,4823,NA
34,1,binary,3,1,fixationCross,16184388.0,16187321.0,2933.0,3,L,16176841,16179539,2700,958.3,580.5,4421,NA
34,1,binary,3,1,fixationCross,16184388.0,16187321.0,2933.0,3,L,16179563,16179729,168,954.2,660.5,4155,NA
34,1,binary,3,1,fixationCross,16184388.0,16187321.0,2933.0,3,L,16179745,16179887,144,958.8,610.5,4188,NA
34,1,binary,3,1,fixationCross,16184388.0,16187321.0,2933.0,3,L,16180075,16180535,462,953.6,567.8,4386,NA
34,1,binary,3,1,fixationCross,16184388.0,16187321.0,2933.0,3,L,16180617,16180731,116,1650.5,630.0,4298,right
34,1,binary,3,1,fixationCross,16184388.0,16187321.0,2933.0,3,L,16180783,16180955,174,991.2,552.8,4323,NA
34,1,binary,3,1,fixationCross,16184388.0,16187321.0,2933.0,3,L,16180965,16182769,1806,969.1,578.1,4491,NA
34,1,binary,3,1,fixationCross,16184388.0,16187321.0,2933.0,3,L,16182931,16184029,1100,973.9,584.8,4330,NA
34,1,binary,3,1,trial,16184388.0,16187321.0,2933.0,3,L,16184039,16184839,802,958.7,585.0,4253,NA
34,1,binary,3,1,trial,16184388.0,16187321.0,2933.0,3,L,16184877,16185127,252,582.4,547.5,4101,left
34,1,binary,3,1,trial,16184388.0,16187321.0,2933.0,3,L,16185185,16185473,290,1428.0,557.9,3792,right
34,1,binary,3,1,trial,16184388.0,16187321.0,2933.0,3,L,16185491,16185769,280,1480.7,499.1,3688,right
34,1,binary,3,1,trial,16184388.0,16187321.0,2933.0,3,L,16185783,16185895,114,1461.7,525.7,3669,right
34,1,binary,3,1,trial,16184388.0,16187321.0,2933.0,3,L,16185955,16186203,250,617.0,563.6,3902,left
34,1,binary,3,1,trial,16184388.0,16187321.0,2933.0,3,L,16186219,16186527,310,550.6,575.9,3925,left
34,1,binary,3,1,trial,16184388.0,16187321.0,2933.0,3,L,16186555,16186717,164,449.4,664.4,3866,left
34,1,binary,3,1,trial,16184388.0,16187321.0,2933.0,3,L,16186759,16186981,224,514.3,973.7,3866,NA
34,1,binary,3,1,trial,16184388.0,16187321.0,2933.0,3,L,16187023,16187167,146,536.9,638.3,3924,left
34,1,binary,3,1,trial,16184388.0,16187321.0,2933.0,3,L,16187225,16187617,394,1389.3,532.2,3951,right
34,1,binary,4,2,fixationCross,16198172.0,16200488.0,2316.0,4,L,16187781,16187971,192,762.2,536.7,4169,NA
34,1,binary,4,2,fixationCross,16198172.0,16200488.0,2316.0,4,L,16188011,16188251,242,1018.7,617.1,4295,NA
34,1,binary,4,2,fixationCross,16198172.0,16200488.0,2316.0,4,L,16188273,16189723,1452,964.7,574.2,4365,NA
34,1,binary,4,2,fixationCross,16198172.0,16200488.0,2316.0,4,L,16189871,16191641,1772,970.4,569.9,4092,NA
34,1,binary,4,2,fixationCross,16198172.0,16200488.0,2316.0,4,L,16191665,16191831,168,976.9,661.8,4076,NA
34,1,binary,4,2,fixationCross,16198172.0,16200488.0,2316.0,4,L,16191853,16193123,1272,966.6,576.0,3913,NA
34,1,binary,4,2,fixationCross,16198172.0,16200488.0,2316.0,4,L,16193293,16195615,2324,968.3,575.3,3643,NA
34,1,binary,4,2,fixationCross,16198172.0,16200488.0,2316.0,4,L,16195809,16197761,1954,967.8,570.7,3566,NA
34,1,binary,4,2,trial,16198172.0,16200488.0,2316.0,4,L,16197771,16198423,654,965.5,571.2,3557,NA
34,1,binary,4,2,trial,16198172.0,16200488.0,2316.0,4,L,16198467,16198771,306,486.2,584.9,3754,left
34,1,binary,4,2,trial,16198172.0,16200488.0,2316.0,4,L,16198789,16198951,164,569.5,564.6,3711,left
34,1,binary,4,2,trial,16198172.0,16200488.0,2316.0,4,L,16199015,16199531,518,1415.2,569.5,3392,right
34,1,binary,4,2,trial,16198172.0,16200488.0,2316.0,4,L,16199593,16199897,306,614.3,560.7,3747,left
34,1,binary,4,2,trial,16198172.0,16200488.0,2316.0,4,L,16199955,16200169,216,1304.6,619.3,3645,right
34,1,binary,4,2,trial,16198172.0,16200488.0,2316.0,4,L,16200455,16200731,278,1414.2,565.9,3822,right
34,1,binary,5,1,fixationCross,16211188.0,16213472.0,2284.0,5,L,16200957,16201307,352,1140.7,451.2,3986,NA
34,1,binary,5,1,fixationCross,16211188.0,16213472.0,2284.0,5,L,16201337,16202081,746,966.3,564.8,4322,NA
34,1,binary,5,1,fixationCross,16211188.0,16213472.0,2284.0,5,L,16202369,16202467,100,997.2,578.5,4028,NA
34,1,binary,5,1,fixationCross,16211188.0,16213472.0,2284.0,5,L,16202481,16204475,1996,972.7,574.8,4054,NA
34,1,binary,5,1,fixationCross,16211188.0,16213472.0,2284.0,5,L,16204679,16206147,1470,962.1,585.6,3862,NA
34,1,binary,5,1,fixationCross,16211188.0,16213472.0,2284.0,5,L,16206163,16206817,656,949.6,566.7,3675,NA
34,1,binary,5,1,fixationCross,16211188.0,16213472.0,2284.0,5,L,16206857,16207077,222,921.3,447.7,3448,NA
34,1,binary,5,1,fixationCross,16211188.0,16213472.0,2284.0,5,L,16207101,16207653,554,968.7,588.7,3363,NA
34,1,binary,5,1,fixationCross,16211188.0,16213472.0,2284.0,5,L,16207865,16210645,2782,965.5,585.6,3619,NA
34,1,binary,5,1,trial,16211188.0,16213472.0,2284.0,5,L,16210905,16211251,348,970.2,592.7,3302,NA
34,1,binary,5,1,trial,16211188.0,16213472.0,2284.0,5,L,16211267,16211461,196,950.7,649.7,3477,NA
34,1,binary,5,1,trial,16211188.0,16213472.0,2284.0,5,L,16211503,16211655,154,499.8,582.7,3495,left
34,1,binary,5,1,trial,16211188.0,16213472.0,2284.0,5,L,16211681,16211951,272,446.0,425.4,3340,left
34,1,binary,5,1,trial,16211188.0,16213472.0,2284.0,5,L,16212017,16212373,358,1463.4,502.3,2997,right
34,1,binary,5,1,trial,16211188.0,16213472.0,2284.0,5,L,16212397,16212603,208,1390.4,626.5,3222,right
34,1,binary,5,1,trial,16211188.0,16213472.0,2284.0,5,L,16212963,16213127,166,444.3,799.6,4212,NA
34,1,binary,5,1,trial,16211188.0,16213472.0,2284.0,5,L,16213161,16213303,144,435.7,512.1,4311,left
34,1,binary,5,1,trial,16211188.0,16213472.0,2284.0,5,L,16213321,16213689,370,441.8,453.0,4280,left
34,1,binary,6,2,fixationCross,16214205.0,16216972.0,2767.0,6,L,16213919,16214041,124,882.1,472.2,3890,NA
34,1,binary,6,2,trial,16214205.0,16216972.0,2767.0,6,L,16214109,16214287,180,1060.3,1039.3,4162,likertHorizontal
34,1,binary,6,2,trial,16214205.0,16216972.0,2767.0,6,L,16214345,16214531,188,800.4,476.3,4302,NA
34,1,binary,6,2,trial,16214205.0,16216972.0,2767.0,6,L,16214567,16214807,242,445.3,532.9,4263,left
34,1,binary,6,2,trial,16214205.0,16216972.0,2767.0,6,L,16214825,16215081,258,373.0,506.3,4116,left
34,1,binary,6,2,trial,16214205.0,16216972.0,2767.0,6,L,16215143,16215419,278,1364.9,588.5,3716,right
34,1,binary,6,2,trial,16214205.0,16216972.0,2767.0,6,L,16215445,16215657,214,1521.5,535.0,3659,right
34,1,binary,6,2,trial,16214205.0,16216972.0,2767.0,6,L,16215673,16215959,288,1599.1,524.1,3670,right
34,1,binary,6,2,trial,16214205.0,16216972.0,2767.0,6,L,16216175,16216453,280,427.3,511.5,3998,left
34,1,binary,6,2,trial,16214205.0,16216972.0,2767.0,6,L,16216519,16216635,118,1133.4,825.5,4077,likertHorizontal
34,1,binary,6,2,trial,16214205.0,16216972.0,2767.0,6,L,16216893,16217217,326,1506.3,471.6,3816,right
34,1,binary,7,1,trial,16217672.0,16219955.0,2283.0,7,L,16217477,16217751,276,1118.4,498.0,4094,NA
34,1,binary,7,1,trial,16217672.0,16219955.0,2283.0,7,L,16217773,16217923,152,993.8,523.8,4382,NA
34,1,binary,7,1,trial,16217672.0,16219955.0,2283.0,7,L,16217969,16218355,388,482.3,483.1,4566,left
34,1,binary,7,1,trial,16217672.0,16219955.0,2283.0,7,L,16218371,16218597,228,510.3,512.2,4488,left
34,1,binary,7,1,trial,16217672.0,16219955.0,2283.0,7,L,16218655,16218889,236,1373.7,458.6,4055,right
34,1,binary,7,1,trial,16217672.0,16219955.0,2283.0,7,L,16218903,16219275,374,1353.8,442.5,3899,right
34,1,binary,7,1,trial,16217672.0,16219955.0,2283.0,7,L,16219341,16220153,814,496.8,484.3,4319,left
34,1,binary,8,1,fixationCross,16220655.0,16224505.0,3850.0,8,L,16220417,16220429,14,924.7,700.2,3664,NA
34,1,binary,8,1,trial,16220655.0,16224505.0,3850.0,8,L,16220469,16220883,416,949.3,438.5,4203,NA
34,1,binary,8,1,trial,16220655.0,16224505.0,3850.0,8,L,16220925,16221369,446,499.4,483.2,4185,left
34,1,binary,8,1,trial,16220655.0,16224505.0,3850.0,8,L,16221397,16221741,346,659.7,609.2,3870,left
34,1,binary,8,1,trial,16220655.0,16224505.0,3850.0,8,L,16221771,16221879,110,547.2,461.1,3687,left
34,1,binary,8,1,trial,16220655.0,16224505.0,3850.0,8,L,16221939,16222319,382,1446.0,447.9,3397,right
34,1,binary,8,1,trial,16220655.0,16224505.0,3850.0,8,L,16222343,16222617,276,1327.5,459.2,3549,right
34,1,binary,8,1,trial,16220655.0,16224505.0,3850.0,8,L,16222645,16222925,282,1513.5,472.8,3712,right
34,1,binary,8,1,trial,16220655.0,16224505.0,3850.0,8,L,16222935,16223137,204,1570.9,471.0,3742,right
34,1,binary,8,1,trial,16220655.0,16224505.0,3850.0,8,L,16223151,16223327,178,1514.9,448.5,3710,right
34,1,binary,8,1,trial,16220655.0,16224505.0,3850.0,8,L,16223579,16223745,168,547.1,534.5,3749,left
34,1,binary,8,1,trial,16220655.0,16224505.0,3850.0,8,L,16223767,16223985,220,468.3,433.6,3844,left
34,1,binary,8,1,trial,16220655.0,16224505.0,3850.0,8,L,16224019,16224429,412,636.1,608.3,3936,left
34,1,binary,8,1,postResponse,16220655.0,16224505.0,3850.0,8,L,16224459,16224853,396,478.8,447.5,3839,left
34,1,binary,9,2,fixationCross,16225188.0,16230471.0,5283.0,9,L,16224927,16225065,140,479.6,421.7,4019,left
34,1,binary,9,2,trial,16225188.0,16230471.0,5283.0,9,L,16225329,16225625,298,581.5,413.8,3984,left
34,1,binary,9,2,trial,16225188.0,16230471.0,5283.0,9,L,16225651,16225835,186,450.9,500.0,4111,left
34,1,binary,9,2,trial,16225188.0,16230471.0,5283.0,9,L,16225859,16226155,298,529.5,605.4,4129,left
34,1,binary,9,2,trial,16225188.0,16230471.0,5283.0,9,L,16226175,16226417,244,599.1,682.8,4036,left
34,1,binary,9,2,trial,16225188.0,16230471.0,5283.0,9,L,16226451,16226799,350,362.3,641.8,4011,left
34,1,binary,9,2,trial,16225188.0,16230471.0,5283.0,9,L,16226823,16227099,278,530.0,599.2,4008,left
34,1,binary,9,2,trial,16225188.0,16230471.0,5283.0,9,L,16227113,16227291,180,582.4,609.5,3983,left
34,1,binary,9,2,trial,16225188.0,16230471.0,5283.0,9,L,16227355,16227605,252,1480.5,472.3,3630,right
34,1,binary,9,2,trial,16225188.0,16230471.0,5283.0,9,L,16227627,16227987,362,1385.2,438.1,3514,right
34,1,binary,9,2,trial,16225188.0,16230471.0,5283.0,9,L,16228055,16228411,358,508.0,511.6,3734,left
34,1,binary,9,2,trial,16225188.0,16230471.0,5283.0,9,L,16228435,16228645,212,642.6,560.6,3799,left
34,1,binary,9,2,trial,16225188.0,16230471.0,5283.0,9,L,16228715,16229033,320,1455.6,462.9,3519,right
34,1,binary,9,2,trial,16225188.0,16230471.0,5283.0,9,L,16229059,16229401,344,1464.9,588.8,3541,right
34,1,binary,9,2,trial,16225188.0,16230471.0,5283.0,9,L,16229427,16230407,982,1424.2,447.5,3648,right
34,1,binary,9,2,trial,16225188.0,16230471.0,5283.0,9,L,16230421,16230691,272,1480.1,462.3,3788,right
34,1,binary,10,2,fixationCross,16231156.0,16234222.0,3066.0,10,L,16230913,16231151,240,852.6,503.0,3906,NA
34,1,binary,10,2,trial,16231156.0,16234222.0,3066.0,10,L,16231187,16231417,232,1086.4,493.7,4030,NA
34,1,binary,10,2,trial,16231156.0,16234222.0,3066.0,10,L,16231459,16231689,232,1513.3,518.1,3739,right
34,1,binary,10,2,trial,16231156.0,16234222.0,3066.0,10,L,16231709,16232135,428,1515.9,573.8,3615,right
34,1,binary,10,2,trial,16231156.0,16234222.0,3066.0,10,L,16232197,16232481,286,640.6,549.7,3905,left
34,1,binary,10,2,trial,16231156.0,16234222.0,3066.0,10,L,16232505,16233085,582,516.5,494.2,3815,left
34,1,binary,10,2,trial,16231156.0,16234222.0,3066.0,10,L,16233461,16233683,224,1513.9,557.6,3343,right
34,1,binary,10,2,trial,16231156.0,16234222.0,3066.0,10,L,16233697,16234445,750,1560.8,531.3,3339,right
34,1,binary,11,1,fixationCross,16234922.0,16238805.0,3883.0,11,L,16234721,16234763,44,976.4,725.2,3217,NA
34,1,binary,11,1,trial,16234922.0,16238805.0,3883.0,11,L,16234783,16235217,436,913.6,545.7,3827,NA
34,1,binary,11,1,trial,16234922.0,16238805.0,3883.0,11,L,16235261,16235555,296,1416.2,496.8,4008,right
34,1,binary,11,1,trial,16234922.0,16238805.0,3883.0,11,L,16235617,16235919,304,538.7,616.5,4415,left
34,1,binary,11,1,trial,16234922.0,16238805.0,3883.0,11,L,16235949,16236063,116,682.7,531.4,4588,left
34,1,binary,11,1,trial,16234922.0,16238805.0,3883.0,11,L,16236093,16236337,246,452.9,543.8,4859,left
34,1,binary,11,1,trial,16234922.0,16238805.0,3883.0,11,L,16236349,16236643,296,480.0,523.1,4851,left
34,1,binary,11,1,trial,16234922.0,16238805.0,3883.0,11,L,16236675,16236895,222,643.8,659.5,4793,left
34,1,binary,11,1,trial,16234922.0,16238805.0,3883.0,11,L,16236955,16237157,204,1406.8,488.5,4464,right
34,1,binary,11,1,trial,16234922.0,16238805.0,3883.0,11,L,16237169,16237637,470,1430.7,463.0,4259,right
34,1,binary,11,1,trial,16234922.0,16238805.0,3883.0,11,L,16237697,16237947,252,644.9,576.9,4236,left
34,1,binary,11,1,trial,16234922.0,16238805.0,3883.0,11,L,16237965,16238955,992,599.3,650.8,4604,left
34,1,binary,12,1,fixationCross,16239505.0,16244306.0,4801.0,12,L,16239239,16239399,162,1245.6,529.6,4548,right
34,1,binary,12,1,trial,16239505.0,16244306.0,4801.0,12,L,16239449,16239579,132,1644.6,543.2,4428,right
34,1,binary,12,1,trial,16239505.0,16244306.0,4801.0,12,L,16239639,16239863,226,809.3,487.9,4717,NA
34,1,binary,12,1,trial,16239505.0,16244306.0,4801.0,12,L,16239901,16240253,354,454.6,405.5,4393,left
34,1,binary,12,1,trial,16239505.0,16244306.0,4801.0,12,L,16240291,16240527,238,517.5,615.6,4161,left
34,1,binary,12,1,trial,16239505.0,16244306.0,4801.0,12,L,16240539,16240713,176,484.3,601.0,4055,left
34,1,binary,12,1,trial,16239505.0,16244306.0,4801.0,12,L,16240733,16241035,304,458.1,535.8,3861,left
34,1,binary,12,1,trial,16239505.0,16244306.0,4801.0,12,L,16241099,16241341,244,1416.2,427.8,3604,right
34,1,binary,12,1,trial,16239505.0,16244306.0,4801.0,12,L,16241359,16241573,216,1330.9,427.4,3670,right
34,1,binary,12,1,trial,16239505.0,16244306.0,4801.0,12,L,16241603,16242019,418,1534.3,428.7,3930,right
34,1,binary,12,1,trial,16239505.0,16244306.0,4801.0,12,L,16242041,16242191,152,1453.9,464.8,4205,right
34,1,binary,12,1,trial,16239505.0,16244306.0,4801.0,12,L,16242373,16242607,236,1480.2,506.7,4176,right
34,1,binary,12,1,trial,16239505.0,16244306.0,4801.0,12,L,16242631,16242813,184,1333.0,453.4,4117,right
34,1,binary,12,1,trial,16239505.0,16244306.0,4801.0,12,L,16242875,16243207,334,474.4,599.7,4220,left
34,1,binary,12,1,trial,16239505.0,16244306.0,4801.0,12,L,16243229,16243531,304,475.4,529.0,3995,left
34,1,binary,12,1,trial,16239505.0,16244306.0,4801.0,12,L,16243555,16244163,610,473.0,666.9,3926,left
34,1,binary,12,1,trial,16239505.0,16244306.0,4801.0,12,L,16244215,16244319,106,382.3,402.4,4047,left
34,1,binary,12,1,trial,16239505.0,16244306.0,4801.0,12,L,16244389,16244569,182,1450.2,407.9,3980,right
34,1,binary,13,2,trial,16245005.0,16247789.0,2784.0,13,L,16244809,16245071,264,1204.5,570.7,4169,right
34,1,binary,13,2,trial,16245005.0,16247789.0,2784.0,13,L,16245103,16245253,152,975.5,551.3,4404,NA
34,1,binary,13,2,trial,16245005.0,16247789.0,2784.0,13,L,16245299,16245499,202,505.8,457.0,4486,left
34,1,binary,13,2,trial,16245005.0,16247789.0,2784.0,13,L,16245527,16245729,204,413.5,631.5,4308,left
34,1,binary,13,2,trial,16245005.0,16247789.0,2784.0,13,L,16245749,16246051,304,487.4,709.8,4127,left
34,1,binary,13,2,trial,16245005.0,16247789.0,2784.0,13,L,16246071,16246337,268,379.7,705.2,3943,left
34,1,binary,13,2,trial,16245005.0,16247789.0,2784.0,13,L,16246405,16246533,130,1138.3,620.7,3757,NA
34,1,binary,13,2,trial,16245005.0,16247789.0,2784.0,13,L,16246563,16246803,242,1428.0,436.0,3612,right
34,1,binary,13,2,trial,16245005.0,16247789.0,2784.0,13,L,16246815,16247133,320,1408.7,454.8,3712,right
34,1,binary,13,2,trial,16245005.0,16247789.0,2784.0,13,L,16247165,16247603,440,1341.3,651.7,3724,right
34,1,binary,13,2,trial,16245005.0,16247789.0,2784.0,13,L,16247629,16247987,360,1443.6,472.1,3713,right
34,1,binary,14,2,fixationCross,16248505.0,16250906.0,2401.0,14,L,16248221,16248221,2,896.1,558.2,3733,NA
34,1,binary,14,2,trial,16248505.0,16250906.0,2401.0,14,L,16248237,16248527,292,796.5,510.6,3927,NA
34,1,binary,14,2,trial,16248505.0,16250906.0,2401.0,14,L,16248561,16248721,162,1008.2,626.9,4017,NA
34,1,binary,14,2,trial,16248505.0,16250906.0,2401.0,14,L,16248761,16248991,232,570.4,583.6,4009,left
34,1,binary,14,2,trial,16248505.0,16250906.0,2401.0,14,L,16249013,16249447,436,541.0,718.0,3764,left
34,1,binary,14,2,trial,16248505.0,16250906.0,2401.0,14,L,16249483,16249653,172,414.6,455.3,3434,left
34,1,binary,14,2,trial,16248505.0,16250906.0,2401.0,14,L,16249671,16249911,242,361.3,467.3,3353,left
34,1,binary,14,2,trial,16248505.0,16250906.0,2401.0,14,L,16249941,16250055,116,591.2,499.8,3388,left
34,1,binary,14,2,trial,16248505.0,16250906.0,2401.0,14,L,16250113,16251099,988,1379.1,445.4,3289,right
34,1,binary,15,2,fixationCross,16251589.0,16254655.0,3066.0,15,L,16251333,16251365,34,1174.6,491.9,3588,NA
34,1,binary,15,2,fixationCross,16251589.0,16254655.0,3066.0,15,L,16251381,16251411,32,995.6,512.8,3606,NA
34,1,binary,15,2,trial,16251589.0,16254655.0,3066.0,15,L,16251437,16251649,214,711.1,573.0,3759,left
34,1,binary,15,2,trial,16251589.0,16254655.0,3066.0,15,L,16251691,16251887,198,936.9,610.4,3754,NA
34,1,binary,15,2,trial,16251589.0,16254655.0,3066.0,15,L,16251927,16252517,592,1414.0,459.8,3408,right
34,1,binary,15,2,trial,16251589.0,16254655.0,3066.0,15,L,16252533,16252941,410,1501.2,463.3,3251,right
34,1,binary,15,2,trial,16251589.0,16254655.0,3066.0,15,L,16253007,16253311,306,557.1,564.3,3516,left
34,1,binary,15,2,trial,16251589.0,16254655.0,3066.0,15,L,16253327,16253711,386,484.0,600.9,3490,left
34,1,binary,15,2,trial,16251589.0,16254655.0,3066.0,15,L,16253781,16254425,646,1464.7,598.1,3054,right
34,1,binary,15,2,trial,16251589.0,16254655.0,3066.0,15,L,16254711,16254935,226,1457.9,471.7,3303,right
34,1,binary,16,2,trial,16255371.0,16257555.0,2184.0,16,L,16255147,16255465,320,1236.6,509.7,3353,right
34,1,binary,16,2,trial,16255371.0,16257555.0,2184.0,16,L,16255499,16255641,144,976.8,580.5,3646,NA
34,1,binary,16,2,trial,16255371.0,16257555.0,2184.0,16,L,16255689,16255955,268,536.1,541.7,3857,left
34,1,binary,16,2,trial,16255371.0,16257555.0,2184.0,16,L,16255977,16256169,194,410.2,594.2,3734,left
34,1,binary,16,2,trial,16255371.0,16257555.0,2184.0,16,L,16256183,16256439,258,393.6,641.7,3543,left
34,1,binary,16,2,trial,16255371.0,16257555.0,2184.0,16,L,16256507,16256839,334,1451.5,611.3,3043,right
34,1,binary,16,2,trial,16255371.0,16257555.0,2184.0,16,L,16256863,16257173,312,1430.2,459.6,3123,right
34,1,binary,16,2,trial,16255371.0,16257555.0,2184.0,16,L,16257191,16257585,396,1351.7,469.8,3433,right
34,1,binary,16,2,trial,16255371.0,16257555.0,2184.0,16,L,16257601,16257855,256,1403.8,477.3,3645,right
34,1,binary,17,2,trial,16258239.0,16260139.0,1900.0,17,L,16258075,16258307,234,1459.2,559.0,3560,right
34,1,binary,17,2,trial,16258239.0,16260139.0,1900.0,17,L,16258339,16258583,246,1095.0,563.1,3742,NA
34,1,binary,17,2,trial,16258239.0,16260139.0,1900.0,17,L,16258619,16258839,222,1300.1,615.5,3547,right
34,1,binary,17,2,trial,16258239.0,16260139.0,1900.0,17,L,16258895,16259209,316,641.1,645.9,3641,left
34,1,binary,17,2,trial,16258239.0,16260139.0,1900.0,17,L,16259229,16259415,188,562.8,713.9,3580,left
34,1,binary,17,2,trial,16258239.0,16260139.0,1900.0,17,L,16259481,16259899,420,1341.8,528.1,3227,right
34,1,binary,17,2,trial,16258239.0,16260139.0,1900.0,17,L,16259957,16260111,156,623.8,640.8,3538,left
34,1,binary,17,2,trial,16258239.0,16260139.0,1900.0,17,L,16260131,16260335,206,566.8,724.0,3597,left
34,1,binary,18,1,trial,16260855.0,16262589.0,1734.0,18,L,16260589,16261083,496,1211.2,590.3,3546,right
34,1,binary,18,1,trial,16260855.0,16262589.0,1734.0,18,L,16261109,16261391,284,1404.3,481.3,3510,right
34,1,binary,18,1,trial,16260855.0,16262589.0,1734.0,18,L,16261457,16261857,402,491.7,568.6,3600,left
34,1,binary,18,1,trial,16260855.0,16262589.0,1734.0,18,L,16261877,16262461,586,449.1,634.2,3485,left
34,1,binary,18,1,trial,16260855.0,16262589.0,1734.0,18,L,16262529,16262845,318,1431.4,511.2,3141,right
34,1,binary,18,1,trial,16260855.0,16262589.0,1734.0,18,L,16262861,16262883,24,1439.2,602.1,3125,right
34,1,binary,19,1,trial,16263289.0,16265705.0,2416.0,19,L,16263121,16263571,452,722.3,535.6,3544,left
34,1,binary,19,1,trial,16263289.0,16265705.0,2416.0,19,L,16263597,16263771,176,582.1,548.9,3653,left
34,1,binary,19,1,trial,16263289.0,16265705.0,2416.0,19,L,16263793,16264003,212,696.7,611.3,3542,left
34,1,binary,19,1,trial,16263289.0,16265705.0,2416.0,19,L,16264045,16264281,238,345.0,621.1,3310,left
34,1,binary,19,1,trial,16263289.0,16265705.0,2416.0,19,L,16264299,16264435,138,351.1,569.7,3177,left
34,1,binary,19,1,trial,16263289.0,16265705.0,2416.0,19,L,16264507,16264895,390,1436.2,583.3,2825,right
34,1,binary,19,1,trial,16263289.0,16265705.0,2416.0,19,L,16264919,16265107,190,1323.3,443.1,2828,right
34,1,binary,19,1,trial,16263289.0,16265705.0,2416.0,19,L,16265177,16265525,350,488.0,604.6,3080,left
34,1,binary,19,1,trial,16263289.0,16265705.0,2416.0,19,L,16265551,16265709,160,309.1,493.5,3220,left
34,1,binary,19,1,trial,16263289.0,16265705.0,2416.0,19,L,16265743,16265929,188,637.8,570.6,3283,left
34,1,binary,20,1,fixationCross,16266422.0,16270722.0,4300.0,20,L,16266137,16266147,12,800.0,640.1,2953,NA
34,1,binary,20,1,trial,16266422.0,16270722.0,4300.0,20,L,16266161,16266655,496,762.6,555.4,3319,NA
34,1,binary,20,1,trial,16266422.0,16270722.0,4300.0,20,L,16266683,16266975,294,509.1,604.4,3395,left
34,1,binary,20,1,trial,16266422.0,16270722.0,4300.0,20,L,16266993,16267181,190,426.3,617.4,3225,left
34,1,binary,20,1,trial,16266422.0,16270722.0,4300.0,20,L,16267221,16267411,192,474.2,429.1,3052,left
34,1,binary,20,1,trial,16266422.0,16270722.0,4300.0,20,L,16267433,16267607,176,495.3,276.8,2977,NA
34,1,binary,20,1,trial,16266422.0,16270722.0,4300.0,20,L,16267619,16267969,352,457.0,329.0,3015,NA
34,1,binary,20,1,trial,16266422.0,16270722.0,4300.0,20,L,16267991,16268429,440,486.1,437.7,3014,left
34,1,binary,20,1,trial,16266422.0,16270722.0,4300.0,20,L,16268445,16268617,174,430.6,465.1,3080,left
34,1,binary,20,1,trial,16266422.0,16270722.0,4300.0,20,L,16268651,16268815,166,381.8,655.9,3171,left
34,1,binary,20,1,trial,16266422.0,16270722.0,4300.0,20,L,16268923,16269535,614,1368.8,463.7,2877,right
34,1,binary,20,1,trial,16266422.0,16270722.0,4300.0,20,L,16269569,16269783,216,1480.7,651.3,2857,right
34,1,binary,20,1,trial,16266422.0,16270722.0,4300.0,20,L,16269933,16270617,686,458.1,648.4,3253,left
34,1,binary,20,1,trial,16266422.0,16270722.0,4300.0,20,L,16270645,16270927,284,558.6,554.8,3472,left
34,1,binary,20,1,postResponse,16266422.0,16270722.0,4300.0,20,L,16270941,16271069,130,617.9,516.4,3608,left
34,1,binary,21,1,fixationCross,16271406.0,16274022.0,2616.0,21,L,16271145,16271319,176,570.6,558.6,3657,left
34,1,binary,21,1,trial,16271406.0,16274022.0,2616.0,21,L,16271597,16271673,78,1107.4,662.8,3438,NA
34,1,binary,21,1,trial,16271406.0,16274022.0,2616.0,21,L,16271727,16272041,316,576.1,507.5,3553,left
34,1,binary,21,1,trial,16271406.0,16274022.0,2616.0,21,L,16272059,16272251,194,608.0,468.6,3514,left
34,1,binary,21,1,trial,16271406.0,16274022.0,2616.0,21,L,16272285,16272623,340,480.6,645.2,3311,left
34,1,binary,21,1,trial,16271406.0,16274022.0,2616.0,21,L,16272699,16273015,318,1484.3,475.5,3009,right
34,1,binary,21,1,trial,16271406.0,16274022.0,2616.0,21,L,16273027,16273193,168,1497.2,456.7,3004,right
34,1,binary,21,1,trial,16271406.0,16274022.0,2616.0,21,L,16273371,16273599,230,581.9,523.5,3277,left
34,1,binary,21,1,trial,16271406.0,16274022.0,2616.0,21,L,16273615,16274009,396,613.4,492.3,3375,left
34,1,binary,21,1,trial,16271406.0,16274022.0,2616.0,21,L,16274087,16274227,142,1421.6,460.1,3143,right
34,1,binary,22,2,trial,16274705.0,16277822.0,3117.0,22,L,16274513,16274705,194,755.1,516.9,3456,NA
34,1,binary,22,2,trial,16274705.0,16277822.0,3117.0,22,L,16274715,16274943,230,951.5,573.3,3521,NA
34,1,binary,22,2,trial,16274705.0,16277822.0,3117.0,22,L,16274981,16275167,188,598.2,503.9,3578,left
34,1,binary,22,2,trial,16274705.0,16277822.0,3117.0,22,L,16275185,16275583,400,522.9,406.0,3387,left
34,1,binary,22,2,trial,16274705.0,16277822.0,3117.0,22,L,16275651,16275827,178,1448.3,438.1,3103,right
34,1,binary,22,2,trial,16274705.0,16277822.0,3117.0,22,L,16275843,16276391,550,1390.9,436.7,3211,right
34,1,binary,22,2,trial,16274705.0,16277822.0,3117.0,22,L,16276409,16276675,268,1471.1,509.9,3572,right
34,1,binary,22,2,trial,16274705.0,16277822.0,3117.0,22,L,16276689,16276885,198,1413.8,509.8,3743,right
34,1,binary,22,2,trial,16274705.0,16277822.0,3117.0,22,L,16276949,16277181,234,590.7,503.8,4179,left
34,1,binary,22,2,trial,16274705.0,16277822.0,3117.0,22,L,16277201,16277557,358,533.3,430.0,4181,left
34,1,binary,22,2,trial,16274705.0,16277822.0,3117.0,22,L,16277915,16278067,154,1337.3,475.2,3701,right
34,1,binary,23,1,trial,16278539.0,16281472.0,2933.0,23,L,16278415,16278565,152,708.0,506.3,3779,left
34,1,binary,23,1,trial,16278539.0,16281472.0,2933.0,23,L,16278589,16278741,154,1008.6,564.8,3759,NA
34,1,binary,23,1,trial,16278539.0,16281472.0,2933.0,23,L,16278789,16279073,286,488.8,521.6,3803,left
34,1,binary,23,1,trial,16278539.0,16281472.0,2933.0,23,L,16279093,16279355,264,493.2,435.6,3577,left
34,1,binary,23,1,trial,16278539.0,16281472.0,2933.0,23,L,16279423,16279663,242,1420.5,444.8,3194,right
34,1,binary,23,1,trial,16278539.0,16281472.0,2933.0,23,L,16279679,16280191,514,1487.9,460.6,3222,right
34,1,binary,23,1,trial,16278539.0,16281472.0,2933.0,23,L,16280375,16280845,472,490.4,493.0,3672,left
34,1,binary,23,1,trial,16278539.0,16281472.0,2933.0,23,L,16280883,16281343,462,504.7,714.2,3641,left
34,1,binary,23,1,trial,16278539.0,16281472.0,2933.0,23,L,16281711,16281749,40,1346.2,533.1,3150,right
34,1,binary,24,1,trial,16282156.0,16284623.0,2467.0,24,L,16282189,16282307,120,1031.2,605.7,3942,NA
34,1,binary,24,1,trial,16282156.0,16284623.0,2467.0,24,L,16282351,16282629,280,530.4,487.2,4118,left
34,1,binary,24,1,trial,16282156.0,16284623.0,2467.0,24,L,16282653,16283211,560,436.2,596.0,3994,left
34,1,binary,24,1,trial,16282156.0,16284623.0,2467.0,24,L,16283233,16283555,324,530.3,638.6,3727,left
34,1,binary,24,1,trial,16282156.0,16284623.0,2467.0,24,L,16283623,16283901,280,1396.2,508.6,3448,right
34,1,binary,24,1,trial,16282156.0,16284623.0,2467.0,24,L,16283925,16284387,464,1438.9,659.8,3379,right
34,1,binary,24,1,trial,16282156.0,16284623.0,2467.0,24,L,16284633,16284819,188,530.5,510.6,3516,left
34,1,binary,25,2,trial,16285306.0,16287589.0,2283.0,25,L,16285075,16285481,408,1054.1,668.3,3623,NA
34,1,binary,25,2,trial,16285306.0,16287589.0,2283.0,25,L,16285533,16285699,168,570.3,610.6,3830,left
34,1,binary,25,2,trial,16285306.0,16287589.0,2283.0,25,L,16285715,16286061,348,506.4,659.0,3713,left
34,1,binary,25,2,trial,16285306.0,16287589.0,2283.0,25,L,16286127,16286467,342,1378.3,593.0,3345,right
34,1,binary,25,2,trial,16285306.0,16287589.0,2283.0,25,L,16286479,16286837,360,1416.0,623.9,3202,right
34,1,binary,25,2,trial,16285306.0,16287589.0,2283.0,25,L,16286847,16287301,456,1384.1,650.7,3138,right
34,1,binary,25,2,trial,16285306.0,16287589.0,2283.0,25,L,16287311,16287655,346,1420.2,662.1,3107,right
34,1,binary,25,2,postResponse,16285306.0,16287589.0,2283.0,25,L,16287667,16287937,272,1421.3,601.4,3120,right
34,1,binary,26,1,trial,16313390.0,16316356.0,2966.0,26,L,16313118,16313404,288,693.1,37.6,3643,NA
34,1,binary,26,1,trial,16313390.0,16316356.0,2966.0,26,L,16313618,16313706,90,944.7,611.5,3906,NA
34,1,binary,26,1,trial,16313390.0,16316356.0,2966.0,26,L,16313754,16313988,236,483.7,526.6,4205,left
34,1,binary,26,1,trial,16313390.0,16316356.0,2966.0,26,L,16314030,16314224,196,488.5,786.8,4583,NA
34,1,binary,26,1,trial,16313390.0,16316356.0,2966.0,26,L,16314244,16314466,224,458.3,695.0,4599,left
34,1,binary,26,1,trial,16313390.0,16316356.0,2966.0,26,L,16314746,16315066,322,1364.9,563.6,3976,right
34,1,binary,26,1,trial,16313390.0,16316356.0,2966.0,26,L,16315088,16315322,236,1497.8,510.6,3968,right
34,1,binary,26,1,trial,16313390.0,16316356.0,2966.0,26,L,16315388,16315836,450,554.1,573.5,4114,left
34,1,binary,26,1,trial,16313390.0,16316356.0,2966.0,26,L,16315900,16316226,328,1374.5,530.9,3832,right
34,1,binary,26,1,trial,16313390.0,16316356.0,2966.0,26,L,16316466,16316624,160,527.8,595.1,4119,left
34,1,binary,27,1,fixationCross,16317039.0,16319506.0,2467.0,27,L,16316778,16316862,86,1243.5,882.4,4240,NA
34,1,binary,27,1,trial,16317039.0,16319506.0,2467.0,27,L,16316922,16317160,240,1833.9,951.3,4330,NA
34,1,binary,27,1,trial,16317039.0,16319506.0,2467.0,27,L,16317218,16317356,140,1169.7,602.9,4516,NA
34,1,binary,27,1,trial,16317039.0,16319506.0,2467.0,27,L,16317408,16317650,244,1584.6,497.1,4304,right
34,1,binary,27,1,trial,16317039.0,16319506.0,2467.0,27,L,16317876,16318016,142,451.5,620.1,4717,left
34,1,binary,27,1,trial,16317039.0,16319506.0,2467.0,27,L,16318046,16318332,288,487.6,451.5,4705,left
34,1,binary,27,1,trial,16317039.0,16319506.0,2467.0,27,L,16318400,16318704,306,1561.0,434.7,4185,right
34,1,binary,27,1,trial,16317039.0,16319506.0,2467.0,27,L,16318722,16318954,234,1613.7,397.2,4008,right
34,1,binary,27,1,trial,16317039.0,16319506.0,2467.0,27,L,16319034,16319284,252,535.8,570.3,4213,left
34,1,binary,27,1,trial,16317039.0,16319506.0,2467.0,27,L,16319536,16319714,180,510.6,1045.4,4303,NA
34,1,binary,28,1,trial,16320206.0,16322173.0,1967.0,28,L,16319980,16320284,306,1027.0,682.2,4316,NA
34,1,binary,28,1,trial,16320206.0,16322173.0,1967.0,28,L,16320310,16320436,128,942.5,559.7,4384,NA
34,1,binary,28,1,trial,16320206.0,16322173.0,1967.0,28,L,16320478,16320734,258,435.4,486.2,4324,left
34,1,binary,28,1,trial,16320206.0,16322173.0,1967.0,28,L,16320750,16321014,266,393.2,443.9,4045,left
34,1,binary,28,1,trial,16320206.0,16322173.0,1967.0,28,L,16321046,16321168,124,578.3,616.5,3950,left
34,1,binary,28,1,trial,16320206.0,16322173.0,1967.0,28,L,16321218,16321610,394,1290.2,548.3,3700,right
34,1,binary,28,1,trial,16320206.0,16322173.0,1967.0,28,L,16321636,16321946,312,1423.3,620.1,3793,right
34,1,binary,28,1,trial,16320206.0,16322173.0,1967.0,28,L,16322018,16322340,324,484.8,576.2,4029,left
34,1,binary,29,2,fixationCross,16322856.0,16324589.0,1733.0,29,L,16322634,16322648,16,819.2,729.9,3620,NA
34,1,binary,29,2,fixationCross,16322856.0,16324589.0,1733.0,29,L,16322672,16322788,118,845.7,588.9,3872,NA
34,1,binary,29,2,trial,16322856.0,16324589.0,1733.0,29,L,16322828,16323118,292,1172.7,605.6,3921,NA
34,1,binary,29,2,trial,16322856.0,16324589.0,1733.0,29,L,16323148,16323376,230,1364.6,598.2,3926,right
34,1,binary,29,2,trial,16322856.0,16324589.0,1733.0,29,L,16323398,16323544,148,1422.0,678.1,3929,right
34,1,binary,29,2,trial,16322856.0,16324589.0,1733.0,29,L,16323606,16323880,276,551.9,575.7,4116,left
34,1,binary,29,2,trial,16322856.0,16324589.0,1733.0,29,L,16323900,16324048,150,554.5,503.7,4078,left
34,1,binary,29,2,trial,16322856.0,16324589.0,1733.0,29,L,16324098,16324422,326,1292.1,549.5,3869,right
34,1,binary,29,2,trial,16322856.0,16324589.0,1733.0,29,L,16324448,16324622,176,1389.2,674.7,3837,right
34,1,binary,29,2,trial,16322856.0,16324589.0,1733.0,29,L,16324682,16324800,120,556.0,549.3,4020,left
34,1,binary,30,1,trial,16325289.0,16327606.0,2317.0,30,L,16325108,16325504,398,949.6,614.9,3886,NA
34,1,binary,30,1,trial,16325289.0,16327606.0,2317.0,30,L,16325544,16325832,290,555.8,542.8,3962,left
34,1,binary,30,1,trial,16325289.0,16327606.0,2317.0,30,L,16325860,16326204,346,385.1,569.8,3729,left
34,1,binary,30,1,trial,16325289.0,16327606.0,2317.0,30,L,16326232,16326426,196,607.5,645.5,3598,left
34,1,binary,30,1,trial,16325289.0,16327606.0,2317.0,30,L,16326488,16327026,540,1396.8,607.7,3211,right
34,1,binary,30,1,trial,16325289.0,16327606.0,2317.0,30,L,16327096,16327414,320,561.7,618.4,3316,left
34,1,binary,30,1,trial,16325289.0,16327606.0,2317.0,30,L,16327434,16327742,310,586.5,692.4,3336,left
34,1,binary,31,2,trial,16328323.0,16331456.0,3133.0,31,L,16328030,16328370,342,1159.1,588.1,3154,NA
34,1,binary,31,2,trial,16328323.0,16331456.0,3133.0,31,L,16328394,16328542,150,984.6,615.6,3269,NA
34,1,binary,31,2,trial,16328323.0,16331456.0,3133.0,31,L,16328586,16328974,390,506.2,595.8,3305,left
34,1,binary,31,2,trial,16328323.0,16331456.0,3133.0,31,L,16328994,16329348,356,412.6,617.5,3164,left
34,1,binary,31,2,trial,16328323.0,16331456.0,3133.0,31,L,16329374,16329582,210,424.3,501.2,3088,left
34,1,binary,31,2,trial,16328323.0,16331456.0,3133.0,31,L,16329600,16329732,134,521.5,503.6,3089,left
34,1,binary,31,2,trial,16328323.0,16331456.0,3133.0,31,L,16329798,16330024,228,1435.3,558.0,2847,right
34,1,binary,31,2,trial,16328323.0,16331456.0,3133.0,31,L,16330048,16330362,316,1457.8,443.2,2895,right
34,1,binary,31,2,trial,16328323.0,16331456.0,3133.0,31,L,16330384,16330684,302,1476.7,515.7,3013,right
34,1,binary,31,2,trial,16328323.0,16331456.0,3133.0,31,L,16330698,16331232,536,1535.5,517.3,3086,right
34,1,binary,31,2,trial,16328323.0,16331456.0,3133.0,31,L,16331312,16331660,350,620.4,573.5,3330,left
34,1,binary,32,1,trial,16332156.0,16334540.0,2384.0,32,L,16331930,16332342,414,1008.9,571.3,3139,NA
34,1,binary,32,1,trial,16332156.0,16334540.0,2384.0,32,L,16332390,16332698,310,458.3,582.1,3313,left
34,1,binary,32,1,trial,16332156.0,16334540.0,2384.0,32,L,16332730,16332922,194,598.2,675.3,3232,left
34,1,binary,32,1,trial,16332156.0,16334540.0,2384.0,32,L,16332938,16333110,174,658.3,669.3,3131,left
34,1,binary,32,1,trial,16332156.0,16334540.0,2384.0,32,L,16333174,16333564,392,1485.3,609.5,2864,right
34,1,binary,32,1,trial,16332156.0,16334540.0,2384.0,32,L,16333630,16333944,316,654.2,646.9,3267,left
34,1,binary,32,1,trial,16332156.0,16334540.0,2384.0,32,L,16333972,16334494,524,423.5,691.0,3312,left
34,1,binary,32,1,postResponse,16332156.0,16334540.0,2384.0,32,L,16334726,16334884,160,1356.1,608.3,3111,right
34,1,binary,33,2,fixationCross,16335256.0,16337206.0,1950.0,33,L,16334984,16335126,144,1360.4,599.2,3196,right
34,1,binary,33,2,trial,16335256.0,16337206.0,1950.0,33,L,16335164,16335400,238,1006.0,775.9,3629,likertHorizontal
34,1,binary,33,2,trial,16335256.0,16337206.0,1950.0,33,L,16335454,16335870,418,605.2,623.7,3718,left
34,1,binary,33,2,trial,16335256.0,16337206.0,1950.0,33,L,16335892,16336026,136,477.4,583.2,3539,left
34,1,binary,33,2,trial,16335256.0,16337206.0,1950.0,33,L,16336100,16336318,220,1490.7,654.6,3251,right
34,1,binary,33,2,trial,16335256.0,16337206.0,1950.0,33,L,16336348,16337042,696,1328.7,644.7,3343,right
34,1,binary,33,2,trial,16335256.0,16337206.0,1950.0,33,L,16337054,16337096,44,1367.2,630.0,3415,right
34,1,binary,33,2,postResponse,16335256.0,16337206.0,1950.0,33,L,16337360,16337556,198,973.2,555.1,3497,NA
34,1,binary,34,1,trial,16337907.0,16340106.0,2199.0,34,L,16337630,16338176,548,883.3,634.8,3705,NA
34,1,binary,34,1,trial,16337907.0,16340106.0,2199.0,34,L,16338208,16338510,304,554.7,648.3,3577,left
34,1,binary,34,1,trial,16337907.0,16340106.0,2199.0,34,L,16338574,16338816,244,1369.1,636.0,3093,right
34,1,binary,34,1,trial,16337907.0,16340106.0,2199.0,34,L,16338838,16339004,168,1512.6,672.6,2995,right
34,1,binary,34,1,trial,16337907.0,16340106.0,2199.0,34,L,16339212,16339828,618,567.2,668.8,3533,left
34,1,binary,34,1,trial,16337907.0,16340106.0,2199.0,34,L,16340182,16340350,170,1490.3,712.1,3681,right
34,1,binary,35,1,trial,16340840.0,16343256.0,2416.0,35,L,16340802,16340878,78,834.7,670.9,4143,NA
34,1,binary,35,1,trial,16340840.0,16343256.0,2416.0,35,L,16340902,16341062,162,999.8,623.4,4228,NA
34,1,binary,35,1,trial,16340840.0,16343256.0,2416.0,35,L,16341104,16341320,218,574.0,521.0,4433,left
34,1,binary,35,1,trial,16340840.0,16343256.0,2416.0,35,L,16341338,16341514,178,560.4,445.7,4364,left
34,1,binary,35,1,trial,16340840.0,16343256.0,2416.0,35,L,16341544,16341750,208,372.1,580.2,4289,left
34,1,binary,35,1,trial,16340840.0,16343256.0,2416.0,35,L,16341818,16342078,262,1414.8,543.6,4083,right
34,1,binary,35,1,trial,16340840.0,16343256.0,2416.0,35,L,16342106,16342278,174,1430.1,709.1,4152,right
34,1,binary,35,1,trial,16340840.0,16343256.0,2416.0,35,L,16342294,16342480,188,1432.8,747.4,4256,NA
34,1,binary,35,1,trial,16340840.0,16343256.0,2416.0,35,L,16342558,16343122,566,520.8,666.2,4581,left
34,1,binary,35,1,trial,16340840.0,16343256.0,2416.0,35,L,16343180,16343348,170,556.9,1049.3,4437,NA
34,1,binary,36,2,trial,16343989.0,16347790.0,3801.0,36,L,16343762,16344204,444,1046.0,598.2,3928,NA
34,1,binary,36,2,trial,16343989.0,16347790.0,3801.0,36,L,16344248,16344594,348,553.9,588.9,3990,left
34,1,binary,36,2,trial,16343989.0,16347790.0,3801.0,36,L,16344652,16344776,126,556.2,1049.1,3830,NA
34,1,binary,36,2,trial,16343989.0,16347790.0,3801.0,36,L,16344786,16344942,158,523.2,1034.5,3759,NA
34,1,binary,36,2,trial,16343989.0,16347790.0,3801.0,36,L,16345008,16345330,324,1347.4,660.3,3479,right
34,1,binary,36,2,trial,16343989.0,16347790.0,3801.0,36,L,16345350,16345472,124,1428.1,703.2,3410,right
34,1,binary,36,2,trial,16343989.0,16347790.0,3801.0,36,L,16345776,16346036,262,1435.9,641.5,3304,right
34,1,binary,36,2,trial,16343989.0,16347790.0,3801.0,36,L,16346052,16346262,212,1486.7,592.3,3332,right
34,1,binary,36,2,trial,16343989.0,16347790.0,3801.0,36,L,16346330,16346638,310,598.3,580.2,3568,left
34,1,binary,36,2,trial,16343989.0,16347790.0,3801.0,36,L,16346868,16346980,114,619.5,558.8,3736,left
34,1,binary,36,2,trial,16343989.0,16347790.0,3801.0,36,L,16347042,16347316,276,1345.0,615.4,3520,right
34,1,binary,36,2,trial,16343989.0,16347790.0,3801.0,36,L,16347338,16347662,326,1471.8,634.8,3355,right
34,1,binary,36,2,trial,16343989.0,16347790.0,3801.0,36,L,16347776,16347808,34,1481.9,933.7,3287,NA
34,1,binary,36,2,trial,16343989.0,16347790.0,3801.0,36,L,16347864,16348044,182,1390.9,563.4,3195,right
34,1,binary,37,1,trial,16348490.0,16353856.0,5366.0,37,L,16348414,16348574,162,746.3,854.6,3383,likertHorizontal
34,1,binary,37,1,trial,16348490.0,16353856.0,5366.0,37,L,16348628,16348772,146,1085.2,643.3,3402,NA
34,1,binary,37,1,trial,16348490.0,16353856.0,5366.0,37,L,16348820,16349034,216,532.9,565.5,3493,left
34,1,binary,37,1,trial,16348490.0,16353856.0,5366.0,37,L,16349052,16349570,520,431.7,566.2,3351,left
34,1,binary,37,1,trial,16348490.0,16353856.0,5366.0,37,L,16349664,16349956,294,1517.7,638.5,3091,right
34,1,binary,37,1,trial,16348490.0,16353856.0,5366.0,37,L,16349974,16350340,368,1452.3,616.2,3040,right
34,1,binary,37,1,trial,16348490.0,16353856.0,5366.0,37,L,16350688,16350908,222,1447.3,676.0,2993,right
34,1,binary,37,1,trial,16348490.0,16353856.0,5366.0,37,L,16350928,16351048,122,1440.3,607.9,3028,right
34,1,binary,37,1,trial,16348490.0,16353856.0,5366.0,37,L,16351116,16351450,336,565.1,618.7,3266,left
34,1,binary,37,1,trial,16348490.0,16353856.0,5366.0,37,L,16351470,16352086,618,443.6,594.5,3301,left
34,1,binary,37,1,trial,16348490.0,16353856.0,5366.0,37,L,16352106,16352420,316,607.7,562.3,3279,left
34,1,binary,37,1,trial,16348490.0,16353856.0,5366.0,37,L,16352434,16352606,174,578.0,528.6,3273,left
34,1,binary,37,1,trial,16348490.0,16353856.0,5366.0,37,L,16352668,16353360,694,501.0,978.4,3490,NA
34,1,binary,37,1,trial,16348490.0,16353856.0,5366.0,37,L,16353406,16353714,310,500.5,735.4,3765,NA
34,1,binary,37,1,postResponse,16348490.0,16353856.0,5366.0,37,L,16353946,16354202,258,998.0,532.1,3681,NA
34,1,binary,38,2,fixationCross,16354574.0,16356473.0,1899.0,38,L,16354304,16354456,154,1006.7,521.9,3791,NA
34,1,binary,38,2,trial,16354574.0,16356473.0,1899.0,38,L,16354478,16354732,256,890.0,573.9,3724,NA
34,1,binary,38,2,trial,16354574.0,16356473.0,1899.0,38,L,16354770,16354952,184,531.3,579.8,3763,left
34,1,binary,38,2,trial,16354574.0,16356473.0,1899.0,38,L,16354970,16355286,318,447.4,618.9,3680,left
34,1,binary,38,2,trial,16354574.0,16356473.0,1899.0,38,L,16355306,16355452,148,428.8,657.1,3701,left
34,1,binary,38,2,trial,16354574.0,16356473.0,1899.0,38,L,16355530,16355822,294,1359.9,653.6,3421,right
34,1,binary,38,2,postResponse,16354574.0,16356473.0,1899.0,38,L,16355842,16356818,978,1456.9,598.6,3229,right
34,1,binary,39,1,fixationCross,16357157.0,16358290.0,1133.0,39,L,16356892,16356962,72,1434.3,664.8,3343,right
34,1,binary,39,1,fixationCross,16357157.0,16358290.0,1133.0,39,L,16356980,16357034,56,1335.6,658.5,3358,right
34,1,binary,39,1,trial,16357157.0,16358290.0,1133.0,39,L,16357054,16357388,336,856.3,636.4,3507,NA
34,1,binary,39,1,trial,16357157.0,16358290.0,1133.0,39,L,16357418,16357686,270,445.6,575.4,3557,left
34,1,binary,39,1,trial,16357157.0,16358290.0,1133.0,39,L,16357706,16357848,144,549.6,538.2,3491,left
34,1,binary,39,1,trial,16357157.0,16358290.0,1133.0,39,L,16357912,16358224,314,1333.5,612.9,3159,right
34,1,binary,39,1,trial,16357157.0,16358290.0,1133.0,39,L,16358244,16358422,180,1439.1,578.0,3097,right
34,1,binary,40,1,trial,16358990.0,16361290.0,2300.0,40,L,16358766,16359180,416,897.9,672.2,3261,NA
34,1,binary,40,1,trial,16358990.0,16361290.0,2300.0,40,L,16359220,16359592,374,570.1,611.0,3420,left
34,1,binary,40,1,trial,16358990.0,16361290.0,2300.0,40,L,16359654,16359908,256,1391.5,537.3,3075,right
34,1,binary,40,1,trial,16358990.0,16361290.0,2300.0,40,L,16359932,16360242,312,1347.5,460.7,3027,right
34,1,binary,40,1,trial,16358990.0,16361290.0,2300.0,40,L,16360278,16360446,170,1155.4,537.2,3076,NA
34,1,binary,40,1,trial,16358990.0,16361290.0,2300.0,40,L,16360498,16361128,632,638.2,581.5,3282,left
34,1,binary,40,1,trial,16358990.0,16361290.0,2300.0,40,L,16361268,16361536,270,1480.0,638.1,3044,right
34,1,binary,41,1,fixationCross,16361990.0,16364774.0,2784.0,41,L,16361734,16361830,98,894.2,1135.7,3271,likertHorizontal
34,1,binary,41,1,trial,16361990.0,16364774.0,2784.0,41,L,16361886,16362130,246,853.3,798.5,3496,likertHorizontal
34,1,binary,41,1,trial,16361990.0,16364774.0,2784.0,41,L,16362166,16362306,142,897.1,613.7,3568,NA
34,1,binary,41,1,trial,16361990.0,16364774.0,2784.0,41,L,16362342,16362628,288,588.5,610.0,3662,left
34,1,binary,41,1,trial,16361990.0,16364774.0,2784.0,41,L,16362830,16363114,286,1335.0,691.8,3721,right
34,1,binary,41,1,trial,16361990.0,16364774.0,2784.0,41,L,16363172,16363778,608,590.6,643.6,4154,left
34,1,binary,41,1,trial,16361990.0,16364774.0,2784.0,41,L,16363804,16364236,434,390.1,586.8,4204,left
34,1,binary,41,1,trial,16361990.0,16364774.0,2784.0,41,L,16364254,16364744,492,482.9,565.8,4384,left
34,1,binary,41,1,trial,16361990.0,16364774.0,2784.0,41,L,16364774,16364970,198,725.9,546.4,4394,left
34,1,binary,42,2,trial,16365457.0,16367407.0,1950.0,42,L,16365198,16365510,314,1251.1,530.4,4336,right
34,1,binary,42,2,trial,16365457.0,16367407.0,1950.0,42,L,16365548,16365710,164,953.0,582.1,4562,NA
34,1,binary,42,2,trial,16365457.0,16367407.0,1950.0,42,L,16365746,16365944,200,557.3,600.6,4548,left
34,1,binary,42,2,trial,16365457.0,16367407.0,1950.0,42,L,16365954,16366226,274,558.3,629.8,4347,left
34,1,binary,42,2,trial,16365457.0,16367407.0,1950.0,42,L,16366294,16366544,252,1394.9,577.5,3897,right
34,1,binary,42,2,trial,16365457.0,16367407.0,1950.0,42,L,16366568,16366838,272,1324.2,528.9,3764,right
34,1,binary,42,2,trial,16365457.0,16367407.0,1950.0,42,L,16366858,16366988,132,1376.0,612.9,3707,right
34,1,binary,42,2,trial,16365457.0,16367407.0,1950.0,42,L,16367044,16367382,340,583.4,621.7,3894,left
34,1,binary,42,2,trial,16365457.0,16367407.0,1950.0,42,L,16367392,16367490,100,551.1,622.8,3969,left
34,1,binary,42,2,postResponse,16365457.0,16367407.0,1950.0,42,L,16367548,16367752,206,1228.4,573.4,3810,right
34,1,binary,43,1,trial,16368107.0,16370190.0,2083.0,43,L,16368102,16368272,172,908.1,696.2,3844,NA
34,1,binary,43,1,trial,16368107.0,16370190.0,2083.0,43,L,16368308,16368606,300,532.7,637.3,3964,left
34,1,binary,43,1,trial,16368107.0,16370190.0,2083.0,43,L,16368634,16368938,306,459.5,540.5,3787,left
34,1,binary,43,1,trial,16368107.0,16370190.0,2083.0,43,L,16368956,16369240,286,439.0,593.9,3572,left
34,1,binary,43,1,trial,16368107.0,16370190.0,2083.0,43,L,16369316,16369494,180,1449.3,569.5,3241,right
34,1,binary,43,1,trial,16368107.0,16370190.0,2083.0,43,L,16369510,16370012,504,1517.3,568.4,3243,right
34,1,binary,43,1,trial,16368107.0,16370190.0,2083.0,43,L,16370028,16370398,372,1477.3,541.3,3265,right
34,1,binary,44,1,fixationCross,16370873.0,16372373.0,1500.0,44,L,16370682,16370834,154,709.6,651.9,3478,left
34,1,binary,44,1,trial,16370873.0,16372373.0,1500.0,44,L,16370860,16371072,214,878.4,680.7,3485,NA
34,1,binary,44,1,trial,16370873.0,16372373.0,1500.0,44,L,16371110,16371296,188,555.0,637.6,3551,left
34,1,binary,44,1,trial,16370873.0,16372373.0,1500.0,44,L,16371310,16371662,354,492.2,637.7,3318,left
34,1,binary,44,1,trial,16370873.0,16372373.0,1500.0,44,L,16371676,16371882,208,541.3,611.9,3075,left
34,1,binary,44,1,trial,16370873.0,16372373.0,1500.0,44,L,16371958,16372300,344,1466.4,614.8,2741,right
34,1,binary,44,1,trial,16370873.0,16372373.0,1500.0,44,L,16372378,16372568,192,599.1,574.2,2995,left
34,1,binary,45,2,trial,16373073.0,16375307.0,2234.0,45,L,16372798,16373256,460,838.7,634.4,3055,NA
34,1,binary,45,2,trial,16373073.0,16375307.0,2234.0,45,L,16373286,16373648,364,624.4,586.9,3266,left
34,1,binary,45,2,trial,16373073.0,16375307.0,2234.0,45,L,16373662,16373734,74,574.1,577.4,3206,left
34,1,binary,45,2,trial,16373073.0,16375307.0,2234.0,45,L,16373804,16374158,356,1308.8,669.9,2951,right
34,1,binary,45,2,trial,16373073.0,16375307.0,2234.0,45,L,16374184,16374646,464,1493.7,611.8,2860,right
34,1,binary,45,2,trial,16373073.0,16375307.0,2234.0,45,L,16374670,16374682,14,1415.8,624.1,2843,right
34,1,binary,45,2,trial,16373073.0,16375307.0,2234.0,45,L,16374820,16375358,540,544.4,501.4,3117,left
34,1,binary,45,2,postResponse,16373073.0,16375307.0,2234.0,45,L,16375448,16375652,206,1301.3,593.8,2908,right
34,1,binary,46,1,trial,16376040.0,16377856.0,1816.0,46,L,16375752,16376194,444,1013.6,586.9,3069,NA
34,1,binary,46,1,trial,16376040.0,16377856.0,1816.0,46,L,16376230,16376634,406,579.5,588.2,3238,left
34,1,binary,46,1,trial,16376040.0,16377856.0,1816.0,46,L,16376692,16377008,318,1408.7,632.0,2937,right
34,1,binary,46,1,trial,16376040.0,16377856.0,1816.0,46,L,16377024,16377260,238,1475.2,589.4,2965,right
34,1,binary,46,1,trial,16376040.0,16377856.0,1816.0,46,L,16377336,16377762,428,548.0,579.2,3229,left
34,1,binary,46,1,postResponse,16376040.0,16377856.0,1816.0,46,L,16378074,16378202,130,927.3,584.4,3086,NA
34,1,binary,47,1,trial,16378540.0,16380123.0,1583.0,47,L,16378276,16378710,436,896.5,612.7,3243,NA
34,1,binary,47,1,trial,16378540.0,16380123.0,1583.0,47,L,16378740,16378948,210,591.0,614.6,3378,left
34,1,binary,47,1,trial,16378540.0,16380123.0,1583.0,47,L,16378976,16379366,392,479.7,487.2,3244,left
34,1,binary,47,1,trial,16378540.0,16380123.0,1583.0,47,L,16379392,16379680,290,635.6,619.0,3104,left
34,1,binary,47,1,trial,16378540.0,16380123.0,1583.0,47,L,16379740,16380090,352,1477.9,607.1,2884,right
34,1,binary,47,1,trial,16378540.0,16380123.0,1583.0,47,L,16380110,16380336,228,1463.5,530.6,2892,right
34,1,binary,47,1,trial,16378540.0,16380123.0,1583.0,47,L,16380346,16380382,38,1474.3,596.4,2859,right
34,1,binary,48,2,trial,16380823.0,16382790.0,1967.0,48,L,16380610,16381064,456,864.9,636.9,2999,NA
34,1,binary,48,2,trial,16380823.0,16382790.0,1967.0,48,L,16381096,16381254,160,556.3,607.1,3153,left
34,1,binary,48,2,trial,16380823.0,16382790.0,1967.0,48,L,16381320,16381558,240,1399.6,664.9,3011,right
34,1,binary,48,2,trial,16380823.0,16382790.0,1967.0,48,L,16381578,16381964,388,1523.2,623.6,2865,right
34,1,binary,48,2,trial,16380823.0,16382790.0,1967.0,48,L,16381980,16382400,422,1534.2,684.8,2880,right
34,1,binary,48,2,trial,16380823.0,16382790.0,1967.0,48,L,16382428,16382690,264,1379.7,723.1,2920,right
34,1,binary,48,2,trial,16380823.0,16382790.0,1967.0,48,L,16382760,16383082,324,520.4,579.3,3146,left
34,1,binary,49,2,trial,16383490.0,16387657.0,4167.0,49,L,16383312,16383650,340,1033.7,650.4,3220,NA
34,1,binary,49,2,trial,16383490.0,16387657.0,4167.0,49,L,16383690,16384078,390,537.1,607.5,3399,left
34,1,binary,49,2,trial,16383490.0,16387657.0,4167.0,49,L,16384092,16384354,264,484.5,611.6,3283,left
34,1,binary,49,2,trial,16383490.0,16387657.0,4167.0,49,L,16384426,16384650,226,1334.5,617.5,2962,right
34,1,binary,49,2,trial,16383490.0,16387657.0,4167.0,49,L,16384674,16385102,430,1498.4,559.8,2896,right
34,1,binary,49,2,trial,16383490.0,16387657.0,4167.0,49,L,16385188,16385608,422,635.1,664.2,3144,left
34,1,binary,49,2,trial,16383490.0,16387657.0,4167.0,49,L,16385624,16385784,162,568.8,679.8,3307,left
34,1,binary,49,2,trial,16383490.0,16387657.0,4167.0,49,L,16385862,16386160,300,1351.9,642.1,3096,right
34,1,binary,49,2,trial,16383490.0,16387657.0,4167.0,49,L,16386186,16386934,750,1519.3,551.8,2907,right
34,1,binary,49,2,trial,16383490.0,16387657.0,4167.0,49,L,16387290,16387740,452,602.1,669.2,3151,left
34,1,binary,49,2,postResponse,16383490.0,16387657.0,4167.0,49,L,16387802,16388006,206,1124.2,621.5,3059,NA
34,1,binary,50,1,trial,16388341.0,16390257.0,1916.0,50,L,16388080,16388564,486,1157.0,594.0,3210,NA
34,1,binary,50,1,trial,16388341.0,16390257.0,1916.0,50,L,16388616,16388938,324,559.0,540.5,3490,left
34,1,binary,50,1,trial,16388341.0,16390257.0,1916.0,50,L,16388952,16389264,314,488.4,549.5,3750,left
34,1,binary,50,1,trial,16388341.0,16390257.0,1916.0,50,L,16389286,16389498,214,469.3,604.3,3894,left
34,1,binary,50,1,trial,16388341.0,16390257.0,1916.0,50,L,16389700,16389934,236,1376.3,695.0,3799,right
34,1,binary,50,1,trial,16388341.0,16390257.0,1916.0,50,L,16389954,16390132,180,1455.5,681.7,3845,right
34,1,binary,50,1,trial,16388341.0,16390257.0,1916.0,50,L,16390206,16390322,118,546.6,506.3,4256,left
34,2,continuous,1,80,trial,16475108.0,16480642.0,5534.0,51,L,16474835,16475119,286,959.8,676.8,5425,NA
34,2,continuous,1,80,trial,16475108.0,16480642.0,5534.0,51,L,16475147,16475281,136,949.6,833.8,5468,likertHorizontal
34,2,continuous,1,80,trial,16475108.0,16480642.0,5534.0,51,L,16475331,16475537,208,630.0,570.7,5228,left
34,2,continuous,1,80,trial,16475108.0,16480642.0,5534.0,51,L,16475589,16475703,116,535.2,943.2,4978,NA
34,2,continuous,1,80,trial,16475108.0,16480642.0,5534.0,51,L,16475727,16475849,124,476.9,1040.7,4933,NA
34,2,continuous,1,80,trial,16475108.0,16480642.0,5534.0,51,L,16476147,16476209,64,1087.9,864.4,4760,likertHorizontal
34,2,continuous,1,80,trial,16475108.0,16480642.0,5534.0,51,L,16476237,16476329,94,952.8,983.4,4777,likertHorizontal
34,2,continuous,1,80,trial,16475108.0,16480642.0,5534.0,51,L,16476371,16476551,182,1377.2,1067.2,4876,NA
34,2,continuous,1,80,trial,16475108.0,16480642.0,5534.0,51,L,16476603,16477011,410,1340.8,474.0,4680,right
34,2,continuous,1,80,trial,16475108.0,16480642.0,5534.0,51,L,16477027,16477195,170,1294.5,462.8,4682,right
34,2,continuous,1,80,trial,16475108.0,16480642.0,5534.0,51,L,16477227,16477333,108,1451.3,447.1,4689,right
34,2,continuous,1,80,trial,16475108.0,16480642.0,5534.0,51,L,16477397,16477679,284,559.3,527.7,4923,left
34,2,continuous,1,80,trial,16475108.0,16480642.0,5534.0,51,L,16477703,16477919,218,468.5,442.1,4856,left
34,2,continuous,1,80,trial,16475108.0,16480642.0,5534.0,51,L,16477949,16478107,160,524.2,626.4,4849,left
34,2,continuous,1,80,trial,16475108.0,16480642.0,5534.0,51,L,16478455,16478593,140,889.3,962.4,4695,likertHorizontal
34,2,continuous,1,80,trial,16475108.0,16480642.0,5534.0,51,L,16478603,16479047,446,859.1,985.5,4868,likertHorizontal
34,2,continuous,1,80,trial,16475108.0,16480642.0,5534.0,51,L,16479101,16479499,400,1361.8,1008.2,4813,NA
34,2,continuous,1,80,trial,16475108.0,16480642.0,5534.0,51,L,16479523,16480083,562,1247.6,964.9,5105,NA
34,2,continuous,1,80,trial,16475108.0,16480642.0,5534.0,51,L,16480133,16480243,112,1298.7,603.9,5264,right
34,2,continuous,1,80,trial,16475108.0,16480642.0,5534.0,51,L,16480595,16480915,322,1373.6,981.4,5207,NA
34,2,continuous,2,95,fixationCross,16481325.0,16486258.0,4933.0,52,L,16481051,16481283,234,1144.6,467.0,5103,NA
34,2,continuous,2,95,trial,16481325.0,16486258.0,4933.0,52,L,16481507,16481653,148,964.2,552.2,5156,NA
34,2,continuous,2,95,trial,16481325.0,16486258.0,4933.0,52,L,16481689,16482165,478,612.9,581.9,5084,left
34,2,continuous,2,95,trial,16481325.0,16486258.0,4933.0,52,L,16482187,16482607,422,469.4,613.3,4494,left
34,2,continuous,2,95,trial,16481325.0,16486258.0,4933.0,52,L,16482659,16482793,136,525.0,1019.3,4103,NA
34,2,continuous,2,95,trial,16481325.0,16486258.0,4933.0,52,L,16482859,16483147,290,1393.9,516.3,3838,right
34,2,continuous,2,95,trial,16481325.0,16486258.0,4933.0,52,L,16483169,16483399,232,1374.7,421.3,3852,right
34,2,continuous,2,95,trial,16481325.0,16486258.0,4933.0,52,L,16483427,16483563,138,1427.0,549.8,3840,right
34,2,continuous,2,95,trial,16481325.0,16486258.0,4933.0,52,L,16483625,16483811,188,626.6,613.2,4040,left
34,2,continuous,2,95,trial,16481325.0,16486258.0,4933.0,52,L,16484019,16484349,332,1396.2,548.6,3944,right
34,2,continuous,2,95,trial,16481325.0,16486258.0,4933.0,52,L,16484367,16484547,182,1449.9,539.4,4135,right
34,2,continuous,2,95,trial,16481325.0,16486258.0,4933.0,52,L,16484609,16484677,70,1365.5,1003.9,4320,NA
34,2,continuous,2,95,trial,16481325.0,16486258.0,4933.0,52,L,16485419,16485739,322,1399.8,1019.2,4493,NA
34,2,continuous,2,95,trial,16481325.0,16486258.0,4933.0,52,L,16486225,16486527,304,1438.8,490.8,4285,right
34,2,continuous,3,96,trial,16486958.0,16490575.0,3617.0,53,L,16486795,16487019,226,1218.1,690.7,4353,right
34,2,continuous,3,96,trial,16486958.0,16490575.0,3617.0,53,L,16487057,16487261,206,988.9,543.6,4457,NA
34,2,continuous,3,96,trial,16486958.0,16490575.0,3617.0,53,L,16487299,16487621,324,1352.7,547.1,4118,right
34,2,continuous,3,96,trial,16486958.0,16490575.0,3617.0,53,L,16487681,16487895,216,618.5,580.6,4090,left
34,2,continuous,3,96,trial,16486958.0,16490575.0,3617.0,53,L,16488197,16488223,28,582.7,783.7,4110,NA
34,2,continuous,3,96,trial,16486958.0,16490575.0,3617.0,53,L,16488259,16488553,296,482.0,506.1,4237,left
34,2,continuous,3,96,trial,16486958.0,16490575.0,3617.0,53,L,16488575,16488735,162,602.0,409.0,4315,left
34,2,continuous,3,96,trial,16486958.0,16490575.0,3617.0,53,L,16488789,16489137,350,1393.5,518.9,3703,right
34,2,continuous,3,96,trial,16486958.0,16490575.0,3617.0,53,L,16489163,16489517,356,1541.7,550.2,3730,right
34,2,continuous,3,96,trial,16486958.0,16490575.0,3617.0,53,L,16489539,16489833,296,1448.3,589.3,3976,right
34,2,continuous,3,96,postResponse,16486958.0,16490575.0,3617.0,53,L,16490753,16490921,170,1309.3,531.3,4158,right
34,2,continuous,4,1,fixationCross,16491258.0,16494525.0,3267.0,54,L,16490995,16491191,198,852.7,460.3,4390,NA
34,2,continuous,4,1,trial,16491258.0,16494525.0,3267.0,54,L,16491461,16491537,78,962.9,499.6,4379,NA
34,2,continuous,4,1,trial,16491258.0,16494525.0,3267.0,54,L,16491581,16491753,174,524.2,497.7,4314,left
34,2,continuous,4,1,trial,16491258.0,16494525.0,3267.0,54,L,16491777,16492217,442,398.1,585.7,4042,left
34,2,continuous,4,1,trial,16491258.0,16494525.0,3267.0,54,L,16492255,16492403,150,705.0,485.2,3698,left
34,2,continuous,4,1,trial,16491258.0,16494525.0,3267.0,54,L,16492455,16492725,272,1392.6,502.8,3453,right
34,2,continuous,4,1,trial,16491258.0,16494525.0,3267.0,54,L,16492741,16493151,412,1451.3,527.1,3424,right
34,2,continuous,4,1,trial,16491258.0,16494525.0,3267.0,54,L,16493395,16493441,48,496.9,516.3,3448,left
34,2,continuous,4,1,trial,16491258.0,16494525.0,3267.0,54,L,16493467,16493647,182,397.6,627.8,3518,left
34,2,continuous,4,1,trial,16491258.0,16494525.0,3267.0,54,L,16493697,16493927,232,472.3,1054.2,3939,NA
34,2,continuous,4,1,trial,16491258.0,16494525.0,3267.0,54,L,16493947,16494247,302,495.5,998.6,4119,NA
34,2,continuous,4,1,trial,16491258.0,16494525.0,3267.0,54,L,16494257,16494465,210,455.5,1016.0,4102,NA
34,2,continuous,4,1,trial,16491258.0,16494525.0,3267.0,54,L,16494505,16494773,270,448.9,610.4,4195,left
34,2,continuous,5,75,fixationCross,16495242.0,16497759.0,2517.0,55,L,16494995,16495003,10,920.7,966.5,3943,likertHorizontal
34,2,continuous,5,75,fixationCross,16495242.0,16497759.0,2517.0,55,L,16495059,16495179,122,792.8,602.8,4149,NA
34,2,continuous,5,75,trial,16495242.0,16497759.0,2517.0,55,L,16495247,16495409,164,1328.5,540.5,4065,right
34,2,continuous,5,75,trial,16495242.0,16497759.0,2517.0,55,L,16495469,16495607,140,514.4,530.9,4385,left
34,2,continuous,5,75,trial,16495242.0,16497759.0,2517.0,55,L,16495629,16495779,152,403.5,440.6,4261,left
34,2,continuous,5,75,trial,16495242.0,16497759.0,2517.0,55,L,16495845,16496019,176,1430.1,476.4,4007,right
34,2,continuous,5,75,trial,16495242.0,16497759.0,2517.0,55,L,16496047,16496241,196,1609.8,490.0,3926,right
34,2,continuous,5,75,trial,16495242.0,16497759.0,2517.0,55,L,16496253,16496435,184,1653.3,497.7,3879,right
34,2,continuous,5,75,trial,16495242.0,16497759.0,2517.0,55,L,16496511,16496659,150,449.1,478.4,3975,left
34,2,continuous,5,75,trial,16495242.0,16497759.0,2517.0,55,L,16496677,16496877,202,393.9,449.0,3962,left
34,2,continuous,5,75,trial,16495242.0,16497759.0,2517.0,55,L,16496953,16497361,410,1202.4,1016.7,4006,NA
34,2,continuous,5,75,trial,16495242.0,16497759.0,2517.0,55,L,16497385,16497419,36,1215.0,1018.1,4026,NA
34,2,continuous,5,75,trial,16495242.0,16497759.0,2517.0,55,L,16497539,16497699,162,1188.5,1020.1,4104,NA
34,2,continuous,6,63,trial,16498442.0,16501375.0,2933.0,56,L,16498253,16498615,364,1079.8,494.7,4364,NA
34,2,continuous,6,63,trial,16498442.0,16501375.0,2933.0,56,L,16498661,16498825,166,501.9,474.0,4560,left
34,2,continuous,6,63,trial,16498442.0,16501375.0,2933.0,56,L,16498847,16498987,142,408.6,505.3,4238,left
34,2,continuous,6,63,trial,16498442.0,16501375.0,2933.0,56,L,16499013,16499317,306,568.1,577.4,3896,left
34,2,continuous,6,63,trial,16498442.0,16501375.0,2933.0,56,L,16499333,16499451,120,504.0,586.8,3661,left
34,2,continuous,6,63,trial,16498442.0,16501375.0,2933.0,56,L,16499515,16499743,230,1361.0,526.4,3374,right
34,2,continuous,6,63,trial,16498442.0,16501375.0,2933.0,56,L,16499757,16499957,202,1330.4,517.1,3372,right
34,2,continuous,6,63,trial,16498442.0,16501375.0,2933.0,56,L,16499969,16500293,326,1339.0,484.5,3472,right
34,2,continuous,6,63,trial,16498442.0,16501375.0,2933.0,56,L,16500355,16500527,174,575.3,550.8,3827,left
34,2,continuous,6,63,trial,16498442.0,16501375.0,2933.0,56,L,16500549,16500673,126,466.6,570.2,3897,left
34,2,continuous,6,63,trial,16498442.0,16501375.0,2933.0,56,L,16500741,16501365,626,1117.2,1048.4,3852,likertHorizontal
34,2,continuous,7,100,trial,16502059.0,16504491.0,2432.0,57,L,16501821,16502225,406,1039.2,636.9,4101,NA
34,2,continuous,7,100,trial,16502059.0,16504491.0,2432.0,57,L,16502271,16502599,330,562.0,561.3,4255,left
34,2,continuous,7,100,trial,16502059.0,16504491.0,2432.0,57,L,16502613,16502733,122,528.4,548.3,4003,left
34,2,continuous,7,100,trial,16502059.0,16504491.0,2432.0,57,L,16502799,16503391,594,1412.4,517.3,3433,right
34,2,continuous,7,100,trial,16502059.0,16504491.0,2432.0,57,L,16503453,16503657,206,541.2,529.9,3318,left
34,2,continuous,7,100,trial,16502059.0,16504491.0,2432.0,57,L,16504521,16504785,266,1420.4,508.8,3891,right
34,2,continuous,8,100,trial,16505159.0,16508458.0,3299.0,58,L,16504973,16505337,366,1017.1,550.2,4175,NA
34,2,continuous,8,100,trial,16505159.0,16508458.0,3299.0,58,L,16505383,16505579,198,503.7,536.9,4307,left
34,2,continuous,8,100,trial,16505159.0,16508458.0,3299.0,58,L,16505601,16505737,138,428.2,490.0,4094,left
34,2,continuous,8,100,trial,16505159.0,16508458.0,3299.0,58,L,16505801,16506069,270,1315.2,581.7,3574,right
34,2,continuous,8,100,trial,16505159.0,16508458.0,3299.0,58,L,16506089,16506413,326,1441.6,573.2,3388,right
34,2,continuous,8,100,trial,16505159.0,16508458.0,3299.0,58,L,16506429,16506741,314,1409.8,545.1,3490,right
34,2,continuous,8,100,trial,16505159.0,16508458.0,3299.0,58,L,16506807,16507097,292,467.4,502.4,3716,left
34,2,continuous,8,100,trial,16505159.0,16508458.0,3299.0,58,L,16507173,16507395,224,1317.5,910.9,3620,NA
34,2,continuous,8,100,postResponse,16505159.0,16508458.0,3299.0,58,L,16508497,16508785,290,1386.0,496.2,3805,right
34,2,continuous,9,7,trial,16509175.0,16512592.0,3417.0,59,L,16508961,16509371,412,1051.6,535.8,3905,NA
34,2,continuous,9,7,trial,16509175.0,16512592.0,3417.0,59,L,16509413,16509615,204,1403.3,519.9,3688,right
34,2,continuous,9,7,trial,16509175.0,16512592.0,3417.0,59,L,16509643,16510417,776,1579.7,542.5,3340,right
34,2,continuous,9,7,trial,16509175.0,16512592.0,3417.0,59,L,16510433,16510645,214,1565.1,586.1,3366,right
34,2,continuous,9,7,trial,16509175.0,16512592.0,3417.0,59,L,16510719,16510915,198,538.5,671.9,3711,left
34,2,continuous,9,7,trial,16509175.0,16512592.0,3417.0,59,L,16510935,16511623,690,467.0,641.2,3534,left
34,2,continuous,9,7,trial,16509175.0,16512592.0,3417.0,59,L,16511645,16511971,328,489.6,692.2,3528,left
34,2,continuous,9,7,trial,16509175.0,16512592.0,3417.0,59,L,16512019,16512797,780,551.1,1036.9,3509,NA
34,2,continuous,10,75,trial,16513309.0,16515959.0,2650.0,60,L,16513077,16513309,234,1131.6,759.7,3490,likertHorizontal
34,2,continuous,10,75,trial,16513309.0,16515959.0,2650.0,60,L,16513349,16513489,142,1156.2,547.8,3518,NA
34,2,continuous,10,75,trial,16513309.0,16515959.0,2650.0,60,L,16513537,16513773,238,598.6,510.4,3674,left
34,2,continuous,10,75,trial,16513309.0,16515959.0,2650.0,60,L,16513797,16514093,298,452.2,483.1,3538,left
34,2,continuous,10,75,trial,16513309.0,16515959.0,2650.0,60,L,16514119,16514321,204,524.9,642.6,3440,left
34,2,continuous,10,75,trial,16513309.0,16515959.0,2650.0,60,L,16514387,16514649,264,1433.4,556.4,3202,right
34,2,continuous,10,75,trial,16513309.0,16515959.0,2650.0,60,L,16514665,16514895,232,1438.5,516.3,3200,right
34,2,continuous,10,75,trial,16513309.0,16515959.0,2650.0,60,L,16515209,16515269,62,1232.9,1011.9,3557,NA
34,2,continuous,10,75,trial,16513309.0,16515959.0,2650.0,60,L,16515347,16515385,40,1211.5,1034.7,3623,NA
34,2,continuous,10,75,trial,16513309.0,16515959.0,2650.0,60,L,16515419,16515459,42,1210.9,1031.4,3646,NA
34,2,continuous,10,75,trial,16513309.0,16515959.0,2650.0,60,L,16515611,16515637,28,1208.8,1037.0,3743,NA
34,2,continuous,10,75,trial,16513309.0,16515959.0,2650.0,60,L,16515689,16515801,114,1205.5,1035.4,3829,NA
34,2,continuous,10,75,postResponse,16513309.0,16515959.0,2650.0,60,L,16515997,16516303,308,944.5,669.9,3921,NA
34,2,continuous,11,16,trial,16516659.0,16519942.0,3283.0,61,L,16516379,16516807,430,997.2,601.5,3870,NA
34,2,continuous,11,16,trial,16516659.0,16519942.0,3283.0,61,L,16516853,16517055,204,532.1,507.0,3680,left
34,2,continuous,11,16,trial,16516659.0,16519942.0,3283.0,61,L,16517071,16517491,422,463.7,483.0,3389,left
34,2,continuous,11,16,trial,16516659.0,16519942.0,3283.0,61,L,16517559,16517847,290,1385.4,528.9,2913,right
34,2,continuous,11,16,trial,16516659.0,16519942.0,3283.0,61,L,16517867,16518355,490,1492.3,494.6,2924,right
34,2,continuous,11,16,trial,16516659.0,16519942.0,3283.0,61,L,16518437,16518631,196,505.4,458.6,3180,left
34,2,continuous,11,16,trial,16516659.0,16519942.0,3283.0,61,L,16518645,16519053,410,457.2,487.4,3254,left
34,2,continuous,11,16,trial,16516659.0,16519942.0,3283.0,61,L,16519121,16519789,670,644.3,1024.5,3285,NA
34,2,continuous,11,16,trial,16516659.0,16519942.0,3283.0,61,L,16519841,16520141,302,491.9,587.9,3337,left
34,2,continuous,12,13,fixationCross,16520659.0,16524792.0,4133.0,62,L,16520371,16520623,254,928.6,558.5,3169,NA
34,2,continuous,12,13,trial,16520659.0,16524792.0,4133.0,62,L,16520645,16520875,232,1098.0,603.4,3215,NA
34,2,continuous,12,13,trial,16520659.0,16524792.0,4133.0,62,L,16520921,16521151,232,530.6,623.7,3372,left
34,2,continuous,12,13,trial,16520659.0,16524792.0,4133.0,62,L,16521169,16521367,200,492.8,657.1,3293,left
34,2,continuous,12,13,trial,16520659.0,16524792.0,4133.0,62,L,16521393,16521549,158,567.2,470.5,3132,left
34,2,continuous,12,13,trial,16520659.0,16524792.0,4133.0,62,L,16521615,16521877,264,1385.8,518.7,2805,right
34,2,continuous,12,13,trial,16520659.0,16524792.0,4133.0,62,L,16521897,16522407,512,1434.9,445.9,2815,right
34,2,continuous,12,13,trial,16520659.0,16524792.0,4133.0,62,L,16522517,16522645,130,717.2,950.2,3053,NA
34,2,continuous,12,13,trial,16520659.0,16524792.0,4133.0,62,L,16522669,16523521,854,533.6,1043.8,3153,NA
34,2,continuous,12,13,trial,16520659.0,16524792.0,4133.0,62,L,16523565,16523745,182,470.6,713.9,3245,left
34,2,continuous,12,13,trial,16520659.0,16524792.0,4133.0,62,L,16523791,16523949,160,529.7,968.7,3279,NA
34,2,continuous,12,13,trial,16520659.0,16524792.0,4133.0,62,L,16523965,16524267,304,524.2,1042.8,3311,NA
34,2,continuous,12,13,trial,16520659.0,16524792.0,4133.0,62,L,16524507,16524633,128,524.9,985.7,3415,NA
34,2,continuous,12,13,trial,16520659.0,16524792.0,4133.0,62,L,16524649,16524979,332,631.1,930.4,3469,NA
34,2,continuous,12,13,postResponse,16520659.0,16524792.0,4133.0,62,L,16525037,16525133,98,686.3,591.1,3446,left
34,2,continuous,13,10,trial,16525459.0,16528192.0,2733.0,63,L,16525209,16525465,258,700.7,577.5,3519,left
34,2,continuous,13,10,trial,16525459.0,16528192.0,2733.0,63,L,16525483,16525659,178,778.6,547.2,3669,NA
34,2,continuous,13,10,trial,16525459.0,16528192.0,2733.0,63,L,16525693,16525871,180,512.4,499.3,3793,left
34,2,continuous,13,10,trial,16525459.0,16528192.0,2733.0,63,L,16525889,16526145,258,442.3,477.2,3566,left
34,2,continuous,13,10,trial,16525459.0,16528192.0,2733.0,63,L,16526167,16526465,300,463.9,561.0,3466,left
34,2,continuous,13,10,trial,16525459.0,16528192.0,2733.0,63,L,16526477,16526763,288,501.5,580.6,3432,left
34,2,continuous,13,10,trial,16525459.0,16528192.0,2733.0,63,L,16526829,16527059,232,1473.0,585.0,3158,right
34,2,continuous,13,10,trial,16525459.0,16528192.0,2733.0,63,L,16527091,16527239,150,1277.0,515.1,3158,right
34,2,continuous,13,10,trial,16525459.0,16528192.0,2733.0,63,L,16527451,16527633,184,639.6,935.8,3596,NA
34,2,continuous,13,10,trial,16525459.0,16528192.0,2733.0,63,L,16527655,16528425,772,573.1,1017.0,4028,NA
34,2,continuous,14,6,trial,16528876.0,16532358.0,3482.0,64,L,16528763,16528893,132,848.6,545.8,3694,NA
34,2,continuous,14,6,trial,16528876.0,16532358.0,3482.0,64,L,16528907,16529071,166,944.4,553.3,3673,NA
34,2,continuous,14,6,trial,16528876.0,16532358.0,3482.0,64,L,16529111,16529347,238,532.9,528.0,3733,left
34,2,continuous,14,6,trial,16528876.0,16532358.0,3482.0,64,L,16529365,16529547,184,443.5,527.0,3577,left
34,2,continuous,14,6,trial,16528876.0,16532358.0,3482.0,64,L,16529563,16529765,204,388.1,544.4,3462,left
34,2,continuous,14,6,trial,16528876.0,16532358.0,3482.0,64,L,16529839,16530099,262,1329.8,448.8,3150,right
34,2,continuous,14,6,trial,16528876.0,16532358.0,3482.0,64,L,16530113,16530427,316,1278.9,440.1,3046,right
34,2,continuous,14,6,trial,16528876.0,16532358.0,3482.0,64,L,16530707,16530947,242,435.1,565.2,3388,left
34,2,continuous,14,6,trial,16528876.0,16532358.0,3482.0,64,L,16531401,16532255,856,566.6,1009.6,3722,NA
34,2,continuous,14,6,trial,16528876.0,16532358.0,3482.0,64,L,16532317,16532537,222,450.1,607.1,3612,left
34,2,continuous,15,1,trial,16533042.0,16536026.0,2984.0,65,L,16532871,16533075,206,650.0,375.2,3385,left
34,2,continuous,15,1,trial,16533042.0,16536026.0,2984.0,65,L,16533133,16533257,126,228.6,293.2,3348,NA
34,2,continuous,15,1,trial,16533042.0,16536026.0,2984.0,65,L,16533317,16533481,166,681.5,478.8,3413,left
34,2,continuous,15,1,trial,16533042.0,16536026.0,2984.0,65,L,16533505,16533839,336,574.7,523.9,3362,left
34,2,continuous,15,1,trial,16533042.0,16536026.0,2984.0,65,L,16533863,16534021,160,482.1,550.4,3363,left
34,2,continuous,15,1,trial,16533042.0,16536026.0,2984.0,65,L,16534087,16534633,548,1424.7,452.8,3122,right
34,2,continuous,15,1,trial,16533042.0,16536026.0,2984.0,65,L,16534849,16535221,374,483.7,581.5,3766,left
34,2,continuous,15,1,trial,16533042.0,16536026.0,2984.0,65,L,16535271,16535965,696,490.4,1027.8,3977,NA
34,2,continuous,15,1,trial,16533042.0,16536026.0,2984.0,65,L,16536001,16536155,156,497.3,645.3,4100,left
34,2,continuous,16,1,trial,16536726.0,16541759.0,5033.0,66,L,16536565,16536735,172,1026.6,663.7,4255,NA
34,2,continuous,16,1,trial,16536726.0,16541759.0,5033.0,66,L,16536773,16536949,178,1139.1,538.4,4441,NA
34,2,continuous,16,1,trial,16536726.0,16541759.0,5033.0,66,L,16536999,16537267,270,503.8,519.5,4464,left
34,2,continuous,16,1,trial,16536726.0,16541759.0,5033.0,66,L,16537287,16537471,186,572.2,502.8,4289,left
34,2,continuous,16,1,trial,16536726.0,16541759.0,5033.0,66,L,16537531,16537851,322,1350.2,423.0,3859,right
34,2,continuous,16,1,trial,16536726.0,16541759.0,5033.0,66,L,16537867,16538095,230,1430.0,420.2,3749,right
34,2,continuous,16,1,trial,16536726.0,16541759.0,5033.0,66,L,16538443,16538533,92,1485.4,500.2,3481,right
34,2,continuous,16,1,trial,16536726.0,16541759.0,5033.0,66,L,16538601,16538971,372,543.9,543.2,3900,left
34,2,continuous,16,1,trial,16536726.0,16541759.0,5033.0,66,L,16539033,16539207,176,577.2,1023.4,3987,NA
34,2,continuous,16,1,trial,16536726.0,16541759.0,5033.0,66,L,16539455,16539551,98,728.1,441.5,3902,left
34,2,continuous,16,1,trial,16536726.0,16541759.0,5033.0,66,L,16539623,16539841,220,1264.5,441.8,3836,right
34,2,continuous,16,1,trial,16536726.0,16541759.0,5033.0,66,L,16539875,16540081,208,1454.9,477.6,3936,right
34,2,continuous,16,1,trial,16536726.0,16541759.0,5033.0,66,L,16540137,16540275,140,1591.1,840.6,4103,NA
34,2,continuous,16,1,trial,16536726.0,16541759.0,5033.0,66,L,16540527,16540647,122,1378.5,664.7,4098,right
34,2,continuous,16,1,trial,16536726.0,16541759.0,5033.0,66,L,16540693,16541267,576,1063.1,932.7,4422,likertHorizontal
34,2,continuous,16,1,trial,16536726.0,16541759.0,5033.0,66,L,16541307,16541495,190,556.2,980.6,4645,NA
34,2,continuous,16,1,trial,16536726.0,16541759.0,5033.0,66,L,16541511,16541683,174,510.8,1005.8,4693,NA
34,2,continuous,16,1,postResponse,16536726.0,16541759.0,5033.0,66,L,16542059,16542107,50,1144.9,696.3,4822,NA
34,2,continuous,17,83,fixationCross,16542442.0,16548792.0,6350.0,67,L,16542181,16542361,182,1163.1,713.5,4895,NA
34,2,continuous,17,83,trial,16542442.0,16548792.0,6350.0,67,L,16542403,16542581,180,1458.2,651.1,4960,right
34,2,continuous,17,83,trial,16542442.0,16548792.0,6350.0,67,L,16542639,16542867,230,720.9,512.7,4823,left
34,2,continuous,17,83,trial,16542442.0,16548792.0,6350.0,67,L,16542883,16543027,146,655.1,529.4,4518,left
34,2,continuous,17,83,trial,16542442.0,16548792.0,6350.0,67,L,16543881,16544119,240,545.8,451.5,4794,left
34,2,continuous,17,83,trial,16542442.0,16548792.0,6350.0,67,L,16544139,16544301,164,566.8,373.3,5030,left
34,2,continuous,17,83,trial,16542442.0,16548792.0,6350.0,67,L,16544359,16544783,426,1339.0,516.7,4920,right
34,2,continuous,17,83,trial,16542442.0,16548792.0,6350.0,67,L,16544845,16545207,364,597.3,578.7,4933,left
34,2,continuous,17,83,trial,16542442.0,16548792.0,6350.0,67,L,16545221,16545503,284,641.2,549.7,5102,left
34,2,continuous,17,83,trial,16542442.0,16548792.0,6350.0,67,L,16545557,16545801,246,528.8,973.9,5138,NA
34,2,continuous,17,83,trial,16542442.0,16548792.0,6350.0,67,L,16545813,16546013,202,522.5,1008.7,5122,NA
34,2,continuous,17,83,trial,16542442.0,16548792.0,6350.0,67,L,16546077,16546473,398,1365.7,580.2,4733,right
34,2,continuous,17,83,trial,16542442.0,16548792.0,6350.0,67,L,16546533,16546701,170,1260.2,1076.0,4619,NA
34,2,continuous,17,83,trial,16542442.0,16548792.0,6350.0,67,L,16546723,16546949,228,1371.3,1045.9,4484,NA
34,2,continuous,17,83,trial,16542442.0,16548792.0,6350.0,67,L,16546971,16547003,34,1377.7,1045.4,4453,NA
34,2,continuous,17,83,trial,16542442.0,16548792.0,6350.0,67,L,16547043,16547277,236,1379.3,1042.9,4528,NA
34,2,continuous,17,83,trial,16542442.0,16548792.0,6350.0,67,L,16547321,16547591,272,1361.5,528.4,4489,right
34,2,continuous,17,83,trial,16542442.0,16548792.0,6350.0,67,L,16547611,16547949,340,1280.9,498.8,4364,right
34,2,continuous,17,83,trial,16542442.0,16548792.0,6350.0,67,L,16548001,16548021,22,1260.7,1021.7,4357,NA
34,2,continuous,17,83,trial,16542442.0,16548792.0,6350.0,67,L,16548553,16548763,212,1323.3,472.8,4077,right
34,2,continuous,17,83,trial,16542442.0,16548792.0,6350.0,67,L,16548785,16548927,144,1276.0,402.8,4164,right
34,2,continuous,18,72,fixationCross,16549459.0,16553425.0,3966.0,68,L,16549215,16549267,54,1426.7,677.5,4259,right
34,2,continuous,18,72,trial,16549459.0,16553425.0,3966.0,68,L,16549319,16549709,392,2087.7,724.2,4283,NA
34,2,continuous,18,72,trial,16549459.0,16553425.0,3966.0,68,L,16549763,16550301,540,1361.3,514.1,4257,right
34,2,continuous,18,72,trial,16549459.0,16553425.0,3966.0,68,L,16550359,16550585,228,592.8,581.9,4248,left
34,2,continuous,18,72,trial,16549459.0,16553425.0,3966.0,68,L,16550613,16550913,302,409.3,592.6,4220,left
34,2,continuous,18,72,trial,16549459.0,16553425.0,3966.0,68,L,16550931,16551149,220,485.7,608.2,4222,left
34,2,continuous,18,72,trial,16549459.0,16553425.0,3966.0,68,L,16551219,16551415,198,1417.1,547.3,3838,right
34,2,continuous,18,72,trial,16549459.0,16553425.0,3966.0,68,L,16551445,16551713,270,1613.6,559.0,3669,right
34,2,continuous,18,72,trial,16549459.0,16553425.0,3966.0,68,L,16551739,16552089,352,1435.8,518.9,3537,right
34,2,continuous,18,72,trial,16549459.0,16553425.0,3966.0,68,L,16552107,16552289,184,1353.6,502.4,3527,right
34,2,continuous,18,72,trial,16549459.0,16553425.0,3966.0,68,L,16552353,16552633,282,524.1,622.9,3721,left
34,2,continuous,18,72,trial,16549459.0,16553425.0,3966.0,68,L,16552657,16552817,162,350.7,584.8,3803,left
34,2,continuous,18,72,trial,16549459.0,16553425.0,3966.0,68,L,16553193,16553431,240,1188.2,1037.0,3856,NA
34,2,continuous,18,72,trial,16549459.0,16553425.0,3966.0,68,L,16553477,16553717,242,1351.9,535.7,3831,right
34,2,continuous,19,16,trial,16554093.0,16557809.0,3716.0,69,L,16553937,16554169,234,1253.5,508.6,3863,right
34,2,continuous,19,16,trial,16554093.0,16557809.0,3716.0,69,L,16554201,16554351,152,1013.2,553.2,4036,NA
34,2,continuous,19,16,trial,16554093.0,16557809.0,3716.0,69,L,16554395,16554613,220,540.7,594.7,4238,left
34,2,continuous,19,16,trial,16554093.0,16557809.0,3716.0,69,L,16554651,16554913,264,335.7,415.9,4111,left
34,2,continuous,19,16,trial,16554093.0,16557809.0,3716.0,69,L,16554943,16555269,328,527.6,640.7,3900,left
34,2,continuous,19,16,trial,16554093.0,16557809.0,3716.0,69,L,16555287,16555619,334,593.2,687.6,3750,left
34,2,continuous,19,16,trial,16554093.0,16557809.0,3716.0,69,L,16555679,16556021,344,1321.3,541.7,3391,right
34,2,continuous,19,16,trial,16554093.0,16557809.0,3716.0,69,L,16556037,16556351,316,1386.3,508.0,3401,right
34,2,continuous,19,16,trial,16554093.0,16557809.0,3716.0,69,L,16556373,16556765,394,1472.6,551.1,3451,right
34,2,continuous,19,16,trial,16554093.0,16557809.0,3716.0,69,L,16556881,16557165,286,590.9,694.3,3783,left
34,2,continuous,19,16,trial,16554093.0,16557809.0,3716.0,69,L,16557201,16557397,198,366.9,576.8,3731,left
34,2,continuous,19,16,trial,16554093.0,16557809.0,3716.0,69,L,16557427,16557649,224,306.7,422.9,3662,left
34,2,continuous,19,16,trial,16554093.0,16557809.0,3716.0,69,L,16557711,16558047,338,609.8,1044.3,3703,NA
34,2,continuous,20,79,trial,16558526.0,16560426.0,1900.0,70,L,16558297,16558667,372,976.5,663.2,3745,NA
34,2,continuous,20,79,trial,16558526.0,16560426.0,1900.0,70,L,16558713,16558891,180,580.3,513.0,4051,left
34,2,continuous,20,79,trial,16558526.0,16560426.0,1900.0,70,L,16558915,16559043,130,600.8,414.9,3835,left
34,2,continuous,20,79,trial,16558526.0,16560426.0,1900.0,70,L,16559073,16559393,322,435.9,592.5,3680,left
34,2,continuous,20,79,trial,16558526.0,16560426.0,1900.0,70,L,16559457,16559681,226,1376.3,555.9,3401,right
34,2,continuous,20,79,trial,16558526.0,16560426.0,1900.0,70,L,16559705,16560021,318,1451.7,477.3,3261,right
34,2,continuous,20,79,trial,16558526.0,16560426.0,1900.0,70,L,16560037,16560201,166,1426.6,527.5,3415,right
34,2,continuous,20,79,postResponse,16558526.0,16560426.0,1900.0,70,L,16560227,16560747,522,1277.1,578.1,3693,right
34,2,continuous,21,99,trial,16561159.0,16565209.0,4050.0,71,L,16560971,16561223,254,1114.4,609.0,3815,NA
34,2,continuous,21,99,trial,16561159.0,16565209.0,4050.0,71,L,16561247,16561375,130,971.2,606.6,3961,NA
34,2,continuous,21,99,trial,16561159.0,16565209.0,4050.0,71,L,16561413,16561613,202,606.1,574.6,4086,left
34,2,continuous,21,99,trial,16561159.0,16565209.0,4050.0,71,L,16561641,16562119,480,445.2,408.4,3747,left
34,2,continuous,21,99,trial,16561159.0,16565209.0,4050.0,71,L,16562151,16562711,562,644.0,601.4,3541,left
34,2,continuous,21,99,trial,16561159.0,16565209.0,4050.0,71,L,16562731,16563003,274,553.0,626.8,3480,left
34,2,continuous,21,99,trial,16561159.0,16565209.0,4050.0,71,L,16563021,16563259,240,451.9,634.3,3484,left
34,2,continuous,21,99,trial,16561159.0,16565209.0,4050.0,71,L,16563271,16563631,362,493.5,638.7,3540,left
34,2,continuous,21,99,trial,16561159.0,16565209.0,4050.0,71,L,16563675,16563783,110,622.9,938.5,3549,NA
34,2,continuous,21,99,trial,16561159.0,16565209.0,4050.0,71,L,16563847,16564353,508,1407.8,608.6,3376,right
34,2,continuous,21,99,trial,16561159.0,16565209.0,4050.0,71,L,16565227,16565423,198,1411.4,604.4,3965,right
34,2,continuous,22,96,fixationCross,16565910.0,16569343.0,3433.0,72,L,16565747,16565883,138,1295.2,612.4,3924,right
34,2,continuous,22,96,trial,16565910.0,16569343.0,3433.0,72,L,16565925,16566085,162,1012.5,610.8,4102,NA
34,2,continuous,22,96,trial,16565910.0,16569343.0,3433.0,72,L,16566123,16566611,490,555.7,551.3,4008,left
34,2,continuous,22,96,trial,16565910.0,16569343.0,3433.0,72,L,16566635,16566847,214,468.0,618.2,3595,left
34,2,continuous,22,96,trial,16565910.0,16569343.0,3433.0,72,L,16566911,16567155,246,1390.2,570.6,3248,right
34,2,continuous,22,96,trial,16565910.0,16569343.0,3433.0,72,L,16567165,16567669,506,1401.9,545.0,3163,right
34,2,continuous,22,96,trial,16565910.0,16569343.0,3433.0,72,L,16567893,16568071,180,544.3,587.1,3456,left
34,2,continuous,22,96,trial,16565910.0,16569343.0,3433.0,72,L,16568125,16568511,388,1123.9,953.7,3725,likertHorizontal
34,2,continuous,22,96,trial,16565910.0,16569343.0,3433.0,72,L,16569171,16569469,300,1509.2,652.0,3537,right
34,2,continuous,23,91,trial,16570043.0,16573176.0,3133.0,73,L,16569843,16570123,282,1077.1,653.6,3621,NA
34,2,continuous,23,91,trial,16570043.0,16573176.0,3133.0,73,L,16570145,16570249,106,989.9,584.1,3783,NA
34,2,continuous,23,91,trial,16570043.0,16573176.0,3133.0,73,L,16570291,16570519,230,592.2,545.5,3802,left
34,2,continuous,23,91,trial,16570043.0,16573176.0,3133.0,73,L,16570545,16570939,396,478.2,418.8,3540,left
34,2,continuous,23,91,trial,16570043.0,16573176.0,3133.0,73,L,16570957,16571077,122,548.0,462.3,3509,left
34,2,continuous,23,91,trial,16570043.0,16573176.0,3133.0,73,L,16571137,16571279,144,1355.7,457.6,3378,right
34,2,continuous,23,91,trial,16570043.0,16573176.0,3133.0,73,L,16571301,16571677,378,1301.3,421.2,3407,right
34,2,continuous,23,91,trial,16570043.0,16573176.0,3133.0,73,L,16571693,16571897,206,1308.0,488.9,3453,right
34,2,continuous,23,91,trial,16570043.0,16573176.0,3133.0,73,L,16571937,16572141,206,1600.7,566.9,3406,right
34,2,continuous,23,91,postResponse,16570043.0,16573176.0,3133.0,73,L,16573195,16573521,328,1483.6,644.2,3511,right
34,2,continuous,24,50,trial,16573876.0,16577393.0,3517.0,74,L,16573607,16574143,538,1083.8,503.7,3737,NA
34,2,continuous,24,50,trial,16573876.0,16577393.0,3517.0,74,L,16574193,16574401,210,553.6,559.0,3681,left
34,2,continuous,24,50,trial,16573876.0,16577393.0,3517.0,74,L,16574453,16574655,204,1221.1,557.3,3453,right
34,2,continuous,24,50,trial,16573876.0,16577393.0,3517.0,74,L,16574667,16574809,144,1260.3,539.9,3325,right
34,2,continuous,24,50,trial,16573876.0,16577393.0,3517.0,74,L,16574845,16575055,212,1633.7,496.5,3191,right
34,2,continuous,24,50,trial,16573876.0,16577393.0,3517.0,74,L,16575071,16575619,550,1664.9,458.2,3093,right
34,2,continuous,24,50,trial,16573876.0,16577393.0,3517.0,74,L,16575699,16576123,426,644.8,570.2,3363,left
34,2,continuous,24,50,trial,16573876.0,16577393.0,3517.0,74,L,16576137,16576403,268,587.8,588.1,3340,left
34,2,continuous,24,50,trial,16573876.0,16577393.0,3517.0,74,L,16576461,16576741,282,1244.7,549.8,3023,right
34,2,continuous,24,50,trial,16573876.0,16577393.0,3517.0,74,L,16576783,16577095,314,1666.5,489.7,2937,right
34,2,continuous,24,50,trial,16573876.0,16577393.0,3517.0,74,L,16577131,16577313,184,1306.2,513.7,2953,right
34,2,continuous,24,50,postResponse,16573876.0,16577393.0,3517.0,74,L,16577497,16577737,242,1094.5,1058.2,3191,likertHorizontal
34,2,continuous,25,1,fixationCross,16578093.0,16581177.0,3084.0,75,L,16577817,16577891,76,1104.8,1054.0,3425,likertHorizontal
34,2,continuous,25,1,trial,16578093.0,16581177.0,3084.0,75,L,16577955,16578355,402,1111.8,538.9,3614,NA
34,2,continuous,25,1,trial,16578093.0,16581177.0,3084.0,75,L,16578403,16578713,312,597.1,548.9,3898,left
34,2,continuous,25,1,trial,16578093.0,16581177.0,3084.0,75,L,16578723,16578929,208,625.7,559.2,3978,left
34,2,continuous,25,1,trial,16578093.0,16581177.0,3084.0,75,L,16579281,16579689,410,1594.3,565.1,3501,right
34,2,continuous,25,1,trial,16578093.0,16581177.0,3084.0,75,L,16579709,16579917,210,1580.4,496.2,3332,right
34,2,continuous,25,1,trial,16578093.0,16581177.0,3084.0,75,L,16579933,16580015,84,1598.0,455.6,3233,right
34,2,continuous,25,1,trial,16578093.0,16581177.0,3084.0,75,L,16580085,16580513,430,627.7,557.3,3460,left
34,2,continuous,25,1,trial,16578093.0,16581177.0,3084.0,75,L,16580547,16580709,164,342.1,524.0,3649,left
34,2,continuous,25,1,trial,16578093.0,16581177.0,3084.0,75,L,16580765,16580925,162,517.6,970.0,3765,NA
34,2,continuous,25,1,trial,16578093.0,16581177.0,3084.0,75,L,16580943,16581095,154,493.8,1038.8,3852,NA
34,2,continuous,25,1,postResponse,16578093.0,16581177.0,3084.0,75,L,16581343,16581525,184,1323.4,592.4,3585,right
34,2,continuous,26,92,fixationCross,16610860.0,16613760.0,2900.0,76,L,16610585,16610795,212,259.7,184.9,3610,NA
34,2,continuous,26,92,trial,16610860.0,16613760.0,2900.0,76,L,16611017,16611145,130,833.5,370.4,3648,NA
34,2,continuous,26,92,trial,16610860.0,16613760.0,2900.0,76,L,16611187,16611371,186,512.8,428.3,4072,left
34,2,continuous,26,92,trial,16610860.0,16613760.0,2900.0,76,L,16611433,16611881,450,1453.7,440.4,4005,right
34,2,continuous,26,92,trial,16610860.0,16613760.0,2900.0,76,L,16612089,16612287,200,628.1,571.4,3775,left
34,2,continuous,26,92,trial,16610860.0,16613760.0,2900.0,76,L,16612311,16612469,160,506.7,536.6,3811,left
34,2,continuous,26,92,trial,16610860.0,16613760.0,2900.0,76,L,16612545,16612863,320,1484.9,588.3,3482,right
34,2,continuous,26,92,trial,16610860.0,16613760.0,2900.0,76,L,16612885,16613107,224,1561.0,496.4,3255,right
34,2,continuous,26,92,trial,16610860.0,16613760.0,2900.0,76,L,16613199,16613395,198,1206.4,1003.9,3387,NA
34,2,continuous,27,7,fixationCross,16614443.0,16618077.0,3634.0,77,L,16614209,16614233,26,992.1,425.6,3825,NA
34,2,continuous,27,7,trial,16614443.0,16618077.0,3634.0,77,L,16614245,16614567,324,1153.6,397.5,3918,NA
34,2,continuous,27,7,trial,16614443.0,16618077.0,3634.0,77,L,16614609,16614757,150,655.3,442.8,4126,left
34,2,continuous,27,7,trial,16614443.0,16618077.0,3634.0,77,L,16614985,16615155,172,1369.5,607.4,3711,right
34,2,continuous,27,7,trial,16614443.0,16618077.0,3634.0,77,L,16615183,16615441,260,1385.9,420.9,3706,right
34,2,continuous,27,7,trial,16614443.0,16618077.0,3634.0,77,L,16615461,16615731,272,1454.4,370.4,3658,right
34,2,continuous,27,7,trial,16614443.0,16618077.0,3634.0,77,L,16615795,16616013,220,608.8,430.3,3916,left
34,2,continuous,27,7,trial,16614443.0,16618077.0,3634.0,77,L,16616037,16616285,250,498.6,451.0,4108,left
34,2,continuous,27,7,trial,16614443.0,16618077.0,3634.0,77,L,16616299,16616477,180,459.8,466.6,4266,left
34,2,continuous,27,7,trial,16614443.0,16618077.0,3634.0,77,L,16616493,16616619,128,390.5,465.2,4400,left
34,2,continuous,27,7,trial,16614443.0,16618077.0,3634.0,77,L,16616885,16617361,478,1374.6,447.6,4255,right
34,2,continuous,27,7,trial,16614443.0,16618077.0,3634.0,77,L,16617429,16617639,212,639.6,971.7,4566,NA
34,2,continuous,27,7,trial,16614443.0,16618077.0,3634.0,77,L,16617655,16617801,148,605.2,1008.6,4410,NA
34,2,continuous,27,7,trial,16614443.0,16618077.0,3634.0,77,L,16618059,16618293,236,511.4,959.8,4375,NA
34,2,continuous,28,93,trial,16618777.0,16620477.0,1700.0,78,L,16618547,16618849,304,741.4,429.3,4472,NA
34,2,continuous,28,93,trial,16618777.0,16620477.0,1700.0,78,L,16618879,16619009,132,947.6,530.0,4495,NA
34,2,continuous,28,93,trial,16618777.0,16620477.0,1700.0,78,L,16619047,16619287,242,521.7,487.2,4328,left
34,2,continuous,28,93,trial,16618777.0,16620477.0,1700.0,78,L,16619305,16619435,132,562.5,457.0,4097,left
34,2,continuous,28,93,trial,16618777.0,16620477.0,1700.0,78,L,16619495,16619889,396,1427.3,434.7,3534,right
34,2,continuous,28,93,trial,16618777.0,16620477.0,1700.0,78,L,16620417,16620671,256,1440.0,565.4,3604,right
34,2,continuous,29,75,trial,16621160.0,16624843.0,3683.0,79,L,16620897,16621307,412,967.0,567.2,3782,NA
34,2,continuous,29,75,trial,16621160.0,16624843.0,3683.0,79,L,16621343,16621703,362,565.8,556.5,3933,left
34,2,continuous,29,75,trial,16621160.0,16624843.0,3683.0,79,L,16621725,16621933,210,516.6,645.0,3741,left
34,2,continuous,29,75,trial,16621160.0,16624843.0,3683.0,79,L,16621949,16622147,200,576.5,648.3,3656,left
34,2,continuous,29,75,trial,16621160.0,16624843.0,3683.0,79,L,16622205,16622563,360,1375.6,550.1,3241,right
34,2,continuous,29,75,trial,16621160.0,16624843.0,3683.0,79,L,16622585,16623025,442,1353.7,487.7,3075,right
34,2,continuous,29,75,trial,16621160.0,16624843.0,3683.0,79,L,16623945,16623969,26,1259.2,923.0,3257,NA
34,2,continuous,29,75,trial,16621160.0,16624843.0,3683.0,79,L,16624023,16624045,24,1237.0,981.6,3291,NA
34,2,continuous,29,75,trial,16621160.0,16624843.0,3683.0,79,L,16624457,16624853,398,1225.2,719.8,3335,right
34,2,continuous,30,90,fixationCross,16625543.0,16628777.0,3234.0,80,L,16625291,16625363,74,783.4,677.8,3290,NA
34,2,continuous,30,90,trial,16625543.0,16628777.0,3234.0,80,L,16625371,16625793,424,863.7,464.8,3333,NA
34,2,continuous,30,90,trial,16625543.0,16628777.0,3234.0,80,L,16625823,16626035,214,643.1,452.1,3352,left
34,2,continuous,30,90,trial,16625543.0,16628777.0,3234.0,80,L,16626095,16626311,218,1434.2,454.8,3120,right
34,2,continuous,30,90,trial,16625543.0,16628777.0,3234.0,80,L,16626327,16626557,232,1380.1,434.3,3072,right
34,2,continuous,30,90,trial,16625543.0,16628777.0,3234.0,80,L,16626629,16626955,328,568.4,507.5,3218,left
34,2,continuous,30,90,trial,16625543.0,16628777.0,3234.0,80,L,16626977,16627257,282,592.5,395.2,3220,left
34,2,continuous,30,90,trial,16625543.0,16628777.0,3234.0,80,L,16627669,16627819,152,1080.5,1041.9,3197,likertHorizontal
34,2,continuous,30,90,trial,16625543.0,16628777.0,3234.0,80,L,16627859,16628473,616,1334.8,805.4,3075,NA
34,2,continuous,30,90,trial,16625543.0,16628777.0,3234.0,80,L,16628757,16628853,98,1388.0,680.0,3081,right
34,2,continuous,31,9,trial,16629477.0,16632810.0,3333.0,81,L,16629197,16629733,538,871.1,511.0,3194,NA
34,2,continuous,31,9,trial,16629477.0,16632810.0,3333.0,81,L,16629767,16629923,158,667.2,568.1,3212,left
34,2,continuous,31,9,trial,16629477.0,16632810.0,3333.0,81,L,16629939,16630115,178,557.6,560.2,3206,left
34,2,continuous,31,9,trial,16629477.0,16632810.0,3333.0,81,L,16630183,16630479,298,1333.3,546.3,2912,right
34,2,continuous,31,9,trial,16629477.0,16632810.0,3333.0,81,L,16630497,16630831,336,1454.2,504.4,2827,right
34,2,continuous,31,9,trial,16629477.0,16632810.0,3333.0,81,L,16630909,16631131,224,571.4,628.1,3068,left
34,2,continuous,31,9,trial,16629477.0,16632810.0,3333.0,81,L,16631149,16631483,336,547.7,584.2,3098,left
34,2,continuous,31,9,trial,16629477.0,16632810.0,3333.0,81,L,16631509,16631819,312,662.9,668.3,3172,left
34,2,continuous,31,9,trial,16629477.0,16632810.0,3333.0,81,L,16631869,16632045,178,565.5,963.6,3284,NA
34,2,continuous,31,9,trial,16629477.0,16632810.0,3333.0,81,L,16632095,16633049,956,568.3,559.3,3421,left
34,2,continuous,31,9,trial,16629477.0,16632810.0,3333.0,81,L,16633063,16633085,24,644.5,580.8,3330,left
34,2,continuous,32,1,fixationCross,16633494.0,16636810.0,3316.0,82,L,16633271,16633455,186,1198.3,565.7,3166,right
34,2,continuous,32,1,trial,16633494.0,16636810.0,3316.0,82,L,16633479,16633643,166,1014.1,500.6,3318,NA
34,2,continuous,32,1,trial,16633494.0,16636810.0,3316.0,82,L,16633685,16633939,256,583.5,466.6,3462,left
34,2,continuous,32,1,trial,16633494.0,16636810.0,3316.0,82,L,16633965,16634611,648,497.4,555.2,3296,left
34,2,continuous,32,1,trial,16633494.0,16636810.0,3316.0,82,L,16634629,16634873,246,570.3,561.4,3077,left
34,2,continuous,32,1,trial,16633494.0,16636810.0,3316.0,82,L,16634889,16635307,420,637.3,553.5,3031,left
34,2,continuous,32,1,trial,16633494.0,16636810.0,3316.0,82,L,16635363,16635787,426,1366.5,577.4,2899,right
34,2,continuous,32,1,trial,16633494.0,16636810.0,3316.0,82,L,16635871,16635979,110,911.3,1026.3,3195,likertHorizontal
34,2,continuous,32,1,trial,16633494.0,16636810.0,3316.0,82,L,16635991,16636783,794,514.9,1025.4,3286,NA
34,2,continuous,32,1,postResponse,16633494.0,16636810.0,3316.0,82,L,16637049,16637155,108,867.5,616.3,3198,NA
34,2,continuous,33,89,fixationCross,16637527.0,16640994.0,3467.0,83,L,16637255,16637469,216,873.3,594.9,3283,NA
34,2,continuous,33,89,trial,16637527.0,16640994.0,3467.0,83,L,16637491,16637719,230,900.1,379.9,3305,NA
34,2,continuous,33,89,trial,16637527.0,16640994.0,3467.0,83,L,16637761,16637925,166,600.1,440.7,3309,left
34,2,continuous,33,89,trial,16637527.0,16640994.0,3467.0,83,L,16637953,16638129,178,615.6,561.4,3290,left
34,2,continuous,33,89,trial,16637527.0,16640994.0,3467.0,83,L,16638143,16638375,234,587.8,588.3,3296,left
34,2,continuous,33,89,trial,16637527.0,16640994.0,3467.0,83,L,16638441,16638699,260,1442.2,538.5,2991,right
34,2,continuous,33,89,trial,16637527.0,16640994.0,3467.0,83,L,16638717,16639037,322,1564.6,536.8,2948,right
34,2,continuous,33,89,trial,16637527.0,16640994.0,3467.0,83,L,16639059,16639219,162,1474.9,530.9,2885,right
34,2,continuous,33,89,trial,16637527.0,16640994.0,3467.0,83,L,16639233,16639521,290,1415.8,518.6,2875,right
34,2,continuous,33,89,trial,16637527.0,16640994.0,3467.0,83,L,16639591,16639871,282,646.7,630.6,3148,left
34,2,continuous,33,89,postResponse,16637527.0,16640994.0,3467.0,83,L,16641247,16641335,90,947.4,372.2,3231,NA
34,2,continuous,34,5,fixationCross,16641677.0,16646944.0,5267.0,84,L,16641409,16641573,166,902.8,307.6,3211,NA
34,2,continuous,34,5,trial,16641677.0,16646944.0,5267.0,84,L,16641639,16641837,200,972.5,767.0,3306,likertHorizontal
34,2,continuous,34,5,trial,16641677.0,16646944.0,5267.0,84,L,16641883,16642027,146,604.5,603.7,3326,left
34,2,continuous,34,5,trial,16641677.0,16646944.0,5267.0,84,L,16642205,16642627,424,1447.4,520.9,3017,right
34,2,continuous,34,5,trial,16641677.0,16646944.0,5267.0,84,L,16642655,16643145,492,1516.1,609.7,3130,right
34,2,continuous,34,5,trial,16641677.0,16646944.0,5267.0,84,L,16643167,16643493,328,1574.0,710.7,3568,right
34,2,continuous,34,5,trial,16641677.0,16646944.0,5267.0,84,L,16643505,16643827,324,1592.6,742.9,3825,NA
34,2,continuous,34,5,trial,16641677.0,16646944.0,5267.0,84,L,16643859,16644083,226,1447.0,485.7,4043,right
34,2,continuous,34,5,trial,16641677.0,16646944.0,5267.0,84,L,16644109,16644587,480,1450.1,375.3,4126,right
34,2,continuous,34,5,trial,16641677.0,16646944.0,5267.0,84,L,16644613,16644821,210,1448.0,482.7,4032,right
34,2,continuous,34,5,trial,16641677.0,16646944.0,5267.0,84,L,16644847,16645255,410,1483.9,666.5,4097,right
34,2,continuous,34,5,trial,16641677.0,16646944.0,5267.0,84,L,16645277,16645927,652,1586.9,754.0,4113,NA
34,2,continuous,34,5,trial,16641677.0,16646944.0,5267.0,84,L,16646127,16646519,394,526.9,585.9,4024,left
34,2,continuous,34,5,trial,16641677.0,16646944.0,5267.0,84,L,16646531,16647137,608,521.5,558.6,3859,left
34,2,continuous,35,1,fixationCross,16647627.0,16650444.0,2817.0,85,L,16647455,16647561,108,713.8,625.8,3663,left
34,2,continuous,35,1,trial,16647627.0,16650444.0,2817.0,85,L,16647615,16647871,258,1133.0,605.8,3778,NA
34,2,continuous,35,1,trial,16647627.0,16650444.0,2817.0,85,L,16647925,16648153,230,406.9,550.6,3948,left
34,2,continuous,35,1,trial,16647627.0,16650444.0,2817.0,85,L,16648165,16648551,388,404.8,594.7,3756,left
34,2,continuous,35,1,trial,16647627.0,16650444.0,2817.0,85,L,16648631,16648911,282,1451.0,485.3,3325,right
34,2,continuous,35,1,trial,16647627.0,16650444.0,2817.0,85,L,16648925,16649259,336,1467.3,443.0,3318,right
34,2,continuous,35,1,trial,16647627.0,16650444.0,2817.0,85,L,16649475,16650027,554,444.2,608.2,3634,left
34,2,continuous,35,1,trial,16647627.0,16650444.0,2817.0,85,L,16650053,16650219,168,453.7,787.8,3643,NA
34,2,continuous,35,1,trial,16647627.0,16650444.0,2817.0,85,L,16650261,16650463,204,467.2,1061.8,3651,NA
34,2,continuous,35,1,postResponse,16647627.0,16650444.0,2817.0,85,L,16650657,16650789,134,1410.5,620.6,3350,right
34,2,continuous,36,5,trial,16651161.0,16654127.0,2966.0,86,L,16650897,16651355,460,994.1,552.1,3504,NA
34,2,continuous,36,5,trial,16651161.0,16654127.0,2966.0,86,L,16651399,16651713,316,534.5,552.9,3555,left
34,2,continuous,36,5,trial,16651161.0,16654127.0,2966.0,86,L,16651729,16651903,176,543.1,509.6,3400,left
34,2,continuous,36,5,trial,16651161.0,16654127.0,2966.0,86,L,16651921,16652355,436,531.1,668.1,3237,left
34,2,continuous,36,5,trial,16651161.0,16654127.0,2966.0,86,L,16652421,16652721,302,1448.7,524.5,2835,right
34,2,continuous,36,5,trial,16651161.0,16654127.0,2966.0,86,L,16652741,16652851,112,1373.6,573.1,2810,right
34,2,continuous,36,5,trial,16651161.0,16654127.0,2966.0,86,L,16653051,16653391,342,564.1,645.6,3180,left
34,2,continuous,36,5,trial,16651161.0,16654127.0,2966.0,86,L,16653417,16653807,392,365.1,628.4,3346,left
34,2,continuous,36,5,trial,16651161.0,16654127.0,2966.0,86,L,16653831,16654029,200,460.3,709.2,3374,left
34,2,continuous,36,5,postResponse,16651161.0,16654127.0,2966.0,86,L,16654045,16654475,432,529.5,694.3,3454,left
34,2,continuous,37,87,fixationCross,16654827.0,16657261.0,2434.0,87,L,16654549,16654647,100,544.5,698.7,3507,left
