participantNo,block,task,blockTrial,response,trialStage,trialStartTime,trialFinishTime,rt,trial,eye,fixStart,fixEnd,fixLength,fixPosX,fixPosY,dilation,aoi
6,1,binary,1,2,fixationCross,9177053.0,9183336.0,6283.0,1,L,9166747,9166767,22,1295.4,667.9,3962,right
6,1,binary,1,2,fixationCross,9177053.0,9183336.0,6283.0,1,L,9166811,9167185,376,963.7,497.9,4014,NA
6,1,binary,1,2,fixationCross,9177053.0,9183336.0,6283.0,1,L,9167209,9175299,8092,976.1,548.8,3862,NA
6,1,binary,1,2,fixationCross,9177053.0,9183336.0,6283.0,1,L,9175319,9176813,1496,972.2,549.5,3919,NA
6,1,binary,1,2,fixationCross,9177053.0,9183336.0,6283.0,1,L,9176833,9177049,218,992.9,550.6,3972,NA
6,1,binary,1,2,trial,9177053.0,9183336.0,6283.0,1,L,9177061,9177347,288,964.7,550.3,4004,NA
6,1,binary,1,2,trial,9177053.0,9183336.0,6283.0,1,L,9177403,9177623,222,556.9,558.2,3822,left
6,1,binary,1,2,trial,9177053.0,9183336.0,6283.0,1,L,9177647,9177847,202,420.4,473.0,3606,left
6,1,binary,1,2,trial,9177053.0,9183336.0,6283.0,1,L,9177921,9178483,564,1402.9,580.1,3358,right
6,1,binary,1,2,trial,9177053.0,9183336.0,6283.0,1,L,9178561,9178805,246,463.0,463.8,3431,left
6,1,binary,1,2,trial,9177053.0,9183336.0,6283.0,1,L,9178827,9179161,336,411.1,469.0,3494,left
6,1,binary,1,2,trial,9177053.0,9183336.0,6283.0,1,L,9179229,9179573,346,1468.8,569.4,3262,right
6,1,binary,1,2,trial,9177053.0,9183336.0,6283.0,1,L,9179653,9179827,176,486.0,964.9,3413,NA
6,1,binary,1,2,trial,9177053.0,9183336.0,6283.0,1,L,9179891,9180143,254,446.6,484.3,3591,left
6,1,binary,1,2,trial,9177053.0,9183336.0,6283.0,1,L,9180207,9180645,440,1465.1,558.3,3459,right
6,1,binary,1,2,trial,9177053.0,9183336.0,6283.0,1,L,9180669,9180893,226,1312.0,555.7,3411,right
6,1,binary,1,2,trial,9177053.0,9183336.0,6283.0,1,L,9181047,9181371,326,1432.5,561.5,3472,right
6,1,binary,1,2,trial,9177053.0,9183336.0,6283.0,1,L,9181439,9181697,260,476.2,458.9,3586,left
6,1,binary,1,2,trial,9177053.0,9183336.0,6283.0,1,L,9181721,9182897,1178,414.1,466.5,3575,left
6,1,binary,1,2,trial,9177053.0,9183336.0,6283.0,1,L,9182967,9183135,170,1374.2,703.9,3548,right
6,1,binary,1,2,postResponse,9177053.0,9183336.0,6283.0,1,L,9183171,9183721,552,1490.2,564.1,3459,right
6,1,binary,2,1,fixationCross,9194086.0,9199487.0,5401.0,2,L,9183899,9184147,250,739.1,371.9,3792,NA
6,1,binary,2,1,fixationCross,9194086.0,9199487.0,5401.0,2,L,9184181,9191417,7238,972.1,548.3,3828,NA
6,1,binary,2,1,fixationCross,9194086.0,9199487.0,5401.0,2,L,9191439,9191577,140,1001.7,543.3,3731,NA
6,1,binary,2,1,trial,9194086.0,9199487.0,5401.0,2,L,9191595,9194415,2822,975.0,545.5,3696,NA
6,1,binary,2,1,trial,9194086.0,9199487.0,5401.0,2,L,9194461,9194667,208,599.5,540.8,3543,left
6,1,binary,2,1,trial,9194086.0,9199487.0,5401.0,2,L,9194691,9195009,320,431.4,507.3,3346,left
6,1,binary,2,1,trial,9194086.0,9199487.0,5401.0,2,L,9195081,9195317,238,1377.6,458.8,2937,right
6,1,binary,2,1,trial,9194086.0,9199487.0,5401.0,2,L,9195335,9195823,490,1346.1,416.6,2982,right
6,1,binary,2,1,trial,9194086.0,9199487.0,5401.0,2,L,9195893,9196897,1006,407.0,487.2,3239,left
6,1,binary,2,1,trial,9194086.0,9199487.0,5401.0,2,L,9196969,9198043,1076,1302.4,418.5,3526,right
6,1,binary,2,1,trial,9194086.0,9199487.0,5401.0,2,L,9198055,9198381,328,1321.4,424.6,3573,right
6,1,binary,2,1,trial,9194086.0,9199487.0,5401.0,2,L,9198459,9198875,418,369.6,467.3,3709,left
6,1,binary,2,1,trial,9194086.0,9199487.0,5401.0,2,L,9198899,9199161,264,442.4,487.7,3394,left
6,1,binary,2,1,postResponse,9194086.0,9199487.0,5401.0,2,L,9199301,9199847,548,410.8,505.9,3292,left
6,1,binary,3,1,fixationCross,9210186.0,9213954.0,3768.0,3,L,9199925,9199943,20,451.8,470.8,3386,left
6,1,binary,3,1,fixationCross,9210186.0,9213954.0,3768.0,3,L,9200099,9200277,180,517.3,475.9,3577,left
6,1,binary,3,1,fixationCross,9210186.0,9213954.0,3768.0,3,L,9200489,9200703,216,893.5,483.9,3811,NA
6,1,binary,3,1,fixationCross,9210186.0,9213954.0,3768.0,3,L,9200725,9204275,3552,965.4,541.2,3838,NA
6,1,binary,3,1,fixationCross,9210186.0,9213954.0,3768.0,3,L,9204285,9206503,2220,972.7,549.0,3805,NA
6,1,binary,3,1,trial,9210186.0,9213954.0,3768.0,3,L,9206523,9210445,3924,973.3,556.4,3768,NA
6,1,binary,3,1,trial,9210186.0,9213954.0,3768.0,3,L,9210491,9210703,214,1390.3,520.9,3448,right
6,1,binary,3,1,trial,9210186.0,9213954.0,3768.0,3,L,9210725,9211177,454,1507.2,496.0,3123,right
6,1,binary,3,1,trial,9210186.0,9213954.0,3768.0,3,L,9211247,9211813,568,478.9,528.8,3179,left
6,1,binary,3,1,trial,9210186.0,9213954.0,3768.0,3,L,9211841,9212103,264,428.8,441.8,3099,left
6,1,binary,3,1,trial,9210186.0,9213954.0,3768.0,3,L,9212177,9213003,828,1519.1,499.4,3090,right
6,1,binary,3,1,trial,9210186.0,9213954.0,3768.0,3,L,9213109,9213423,316,478.6,476.5,3522,left
6,1,binary,3,1,trial,9210186.0,9213954.0,3768.0,3,L,9213481,9213693,214,441.6,837.4,3535,NA
6,1,binary,3,1,trial,9210186.0,9213954.0,3768.0,3,L,9213743,9214235,494,398.1,488.0,3601,left
6,1,binary,4,1,fixationCross,9224654.0,9229886.0,5232.0,4,L,9214373,9214585,214,994.5,573.3,3585,NA
6,1,binary,4,1,fixationCross,9224654.0,9229886.0,5232.0,4,L,9214819,9215069,252,959.1,529.8,3834,NA
6,1,binary,4,1,fixationCross,9224654.0,9229886.0,5232.0,4,L,9215083,9217813,2732,975.1,558.0,3845,NA
6,1,binary,4,1,fixationCross,9224654.0,9229886.0,5232.0,4,L,9217833,9218191,360,978.7,544.4,4053,NA
6,1,binary,4,1,fixationCross,9224654.0,9229886.0,5232.0,4,L,9218211,9218473,264,938.5,544.6,4068,NA
6,1,binary,4,1,fixationCross,9224654.0,9229886.0,5232.0,4,L,9218485,9221367,2884,966.3,551.5,3986,NA
6,1,binary,4,1,fixationCross,9224654.0,9229886.0,5232.0,4,L,9221379,9224355,2978,965.6,542.4,3823,NA
6,1,binary,4,1,trial,9224654.0,9229886.0,5232.0,4,L,9224367,9224927,562,968.2,548.4,3836,NA
6,1,binary,4,1,trial,9224654.0,9229886.0,5232.0,4,L,9224971,9225221,252,1313.0,531.1,3476,right
6,1,binary,4,1,trial,9224654.0,9229886.0,5232.0,4,L,9225249,9225637,390,1552.9,529.5,3049,right
6,1,binary,4,1,trial,9224654.0,9229886.0,5232.0,4,L,9225715,9226329,616,443.8,516.0,3103,left
6,1,binary,4,1,trial,9224654.0,9229886.0,5232.0,4,L,9226349,9226819,472,337.7,485.4,3113,left
6,1,binary,4,1,trial,9224654.0,9229886.0,5232.0,4,L,9226935,9227303,370,1453.1,498.6,3005,right
6,1,binary,4,1,trial,9224654.0,9229886.0,5232.0,4,L,9227329,9227609,282,1585.3,533.8,3044,right
6,1,binary,4,1,trial,9224654.0,9229886.0,5232.0,4,L,9227771,9228859,1090,367.1,476.8,3270,left
6,1,binary,4,1,trial,9224654.0,9229886.0,5232.0,4,L,9229055,9229367,314,1434.8,535.5,3223,right
6,1,binary,4,1,trial,9224654.0,9229886.0,5232.0,4,L,9229497,9230093,598,355.2,479.5,3297,left
6,1,binary,5,2,fixationCross,9240604.0,9248787.0,8183.0,5,L,9230323,9230459,138,472.7,485.9,3255,left
6,1,binary,5,2,fixationCross,9240604.0,9248787.0,8183.0,5,L,9230517,9230675,160,1159.4,525.6,3432,NA
6,1,binary,5,2,fixationCross,9240604.0,9248787.0,8183.0,5,L,9230703,9230807,106,968.2,553.4,3612,NA
6,1,binary,5,2,fixationCross,9240604.0,9248787.0,8183.0,5,L,9230991,9235261,4272,964.0,555.4,3933,NA
6,1,binary,5,2,fixationCross,9240604.0,9248787.0,8183.0,5,L,9235277,9235513,238,921.6,547.5,3861,NA
6,1,binary,5,2,fixationCross,9240604.0,9248787.0,8183.0,5,L,9235527,9237529,2004,962.7,555.4,3764,NA
6,1,binary,5,2,trial,9240604.0,9248787.0,8183.0,5,L,9237549,9240845,3298,972.6,551.9,3796,NA
6,1,binary,5,2,trial,9240604.0,9248787.0,8183.0,5,L,9240885,9241057,174,636.6,574.5,3786,left
6,1,binary,5,2,trial,9240604.0,9248787.0,8183.0,5,L,9241093,9241457,366,407.0,522.9,3335,left
6,1,binary,5,2,trial,9240604.0,9248787.0,8183.0,5,L,9241527,9241951,426,1411.3,568.3,3040,right
6,1,binary,5,2,trial,9240604.0,9248787.0,8183.0,5,L,9241989,9242317,330,1562.1,467.6,3134,right
6,1,binary,5,2,trial,9240604.0,9248787.0,8183.0,5,L,9242347,9242515,170,1547.2,619.2,3184,right
6,1,binary,5,2,trial,9240604.0,9248787.0,8183.0,5,L,9242601,9243059,460,445.0,541.5,3365,left
6,1,binary,5,2,trial,9240604.0,9248787.0,8183.0,5,L,9243073,9243779,708,479.0,514.9,3289,left
6,1,binary,5,2,trial,9240604.0,9248787.0,8183.0,5,L,9243849,9244433,586,1423.5,554.5,3185,right
6,1,binary,5,2,trial,9240604.0,9248787.0,8183.0,5,L,9244455,9245001,548,1504.9,604.0,3255,right
6,1,binary,5,2,trial,9240604.0,9248787.0,8183.0,5,L,9245017,9245349,334,1529.5,562.4,3361,right
6,1,binary,5,2,trial,9240604.0,9248787.0,8183.0,5,L,9245373,9245587,216,1420.8,578.6,3390,right
6,1,binary,5,2,trial,9240604.0,9248787.0,8183.0,5,L,9245659,9246207,550,498.8,494.0,3371,left
6,1,binary,5,2,trial,9240604.0,9248787.0,8183.0,5,L,9246227,9246815,590,395.5,502.0,3239,left
6,1,binary,5,2,trial,9240604.0,9248787.0,8183.0,5,L,9246851,9247047,198,556.9,626.5,3277,left
6,1,binary,5,2,trial,9240604.0,9248787.0,8183.0,5,L,9247121,9247495,376,1441.5,567.3,3297,right
6,1,binary,5,2,trial,9240604.0,9248787.0,8183.0,5,L,9247531,9247755,226,1490.0,488.0,3332,right
6,1,binary,5,2,trial,9240604.0,9248787.0,8183.0,5,L,9247783,9248141,360,1600.8,437.6,3322,right
6,1,binary,5,2,trial,9240604.0,9248787.0,8183.0,5,L,9248179,9248691,514,1393.1,597.1,3440,right
6,1,binary,5,2,trial,9240604.0,9248787.0,8183.0,5,L,9248715,9249025,312,1526.6,612.4,3497,right
6,1,binary,5,2,trial,9240604.0,9248787.0,8183.0,5,L,9249051,9249087,38,1405.6,537.5,3583,right
6,1,binary,6,2,trial,9249504.0,9253204.0,3700.0,6,L,9249295,9249539,246,932.0,472.0,3795,NA
6,1,binary,6,2,trial,9249504.0,9253204.0,3700.0,6,L,9249591,9249739,150,613.7,472.0,3986,left
6,1,binary,6,2,trial,9249504.0,9253204.0,3700.0,6,L,9249767,9250203,438,451.1,526.3,3596,left
6,1,binary,6,2,trial,9249504.0,9253204.0,3700.0,6,L,9250263,9250601,340,1395.3,552.3,3223,right
6,1,binary,6,2,trial,9249504.0,9253204.0,3700.0,6,L,9250631,9251059,430,1456.1,640.2,3499,right
6,1,binary,6,2,trial,9249504.0,9253204.0,3700.0,6,L,9251089,9251297,210,1389.2,544.4,3541,right
6,1,binary,6,2,trial,9249504.0,9253204.0,3700.0,6,L,9251365,9251903,540,496.1,527.0,3649,left
6,1,binary,6,2,trial,9249504.0,9253204.0,3700.0,6,L,9251969,9252281,314,1413.5,583.6,3368,right
6,1,binary,6,2,trial,9249504.0,9253204.0,3700.0,6,L,9252307,9252845,540,1477.4,641.0,3321,right
6,1,binary,6,2,postResponse,9249504.0,9253204.0,3700.0,6,L,9252887,9253539,654,1348.8,502.1,3393,right
6,1,binary,7,2,fixationCross,9253920.0,9258337.0,4417.0,7,L,9253651,9253745,96,1104.7,537.5,3583,NA
6,1,binary,7,2,trial,9253920.0,9258337.0,4417.0,7,L,9253809,9254135,328,522.1,478.1,3860,left
6,1,binary,7,2,trial,9253920.0,9258337.0,4417.0,7,L,9254159,9254717,560,624.4,434.8,3471,left
6,1,binary,7,2,trial,9253920.0,9258337.0,4417.0,7,L,9254733,9254951,220,605.6,409.8,3179,left
6,1,binary,7,2,trial,9253920.0,9258337.0,4417.0,7,L,9255013,9255395,384,1486.6,568.1,3077,right
6,1,binary,7,2,trial,9253920.0,9258337.0,4417.0,7,L,9255425,9255567,144,1328.0,605.5,3139,right
6,1,binary,7,2,trial,9253920.0,9258337.0,4417.0,7,L,9255631,9255979,350,589.6,428.8,3203,left
6,1,binary,7,2,trial,9253920.0,9258337.0,4417.0,7,L,9255989,9256177,190,597.0,412.3,3243,left
6,1,binary,7,2,trial,9253920.0,9258337.0,4417.0,7,L,9256465,9256835,372,401.6,585.4,3329,left
6,1,binary,7,2,trial,9253920.0,9258337.0,4417.0,7,L,9256879,9257327,450,605.0,422.5,3355,left
6,1,binary,7,2,trial,9253920.0,9258337.0,4417.0,7,L,9257391,9257767,378,1556.9,592.1,3269,right
6,1,binary,7,2,trial,9253920.0,9258337.0,4417.0,7,L,9257807,9258275,470,1455.6,484.6,3256,right
6,1,binary,7,2,postResponse,9253920.0,9258337.0,4417.0,7,L,9258307,9258685,380,1449.5,583.6,3361,right
6,1,binary,8,1,trial,9259020.0,9263204.0,4184.0,8,L,9258917,9259083,168,1301.3,460.2,3659,right
6,1,binary,8,1,trial,9259020.0,9263204.0,4184.0,8,L,9259129,9259257,130,993.6,577.9,3863,NA
6,1,binary,8,1,trial,9259020.0,9263204.0,4184.0,8,L,9259317,9259609,294,541.9,520.9,3765,left
6,1,binary,8,1,trial,9259020.0,9263204.0,4184.0,8,L,9259637,9259905,270,519.3,493.0,3560,left
6,1,binary,8,1,trial,9259020.0,9263204.0,4184.0,8,L,9259929,9260135,208,434.7,510.0,3550,left
6,1,binary,8,1,trial,9259020.0,9263204.0,4184.0,8,L,9260329,9260799,472,462.8,517.0,3694,left
6,1,binary,8,1,trial,9259020.0,9263204.0,4184.0,8,L,9260875,9261701,828,1434.5,507.4,3361,right
6,1,binary,8,1,trial,9259020.0,9263204.0,4184.0,8,L,9261777,9262273,498,453.5,503.4,3555,left
6,1,binary,8,1,trial,9259020.0,9263204.0,4184.0,8,L,9262299,9263011,714,573.5,541.0,3621,left
6,1,binary,8,1,postResponse,9259020.0,9263204.0,4184.0,8,L,9263035,9263539,506,443.8,509.5,3776,left
6,1,binary,9,1,trial,9263920.0,9269704.0,5784.0,9,L,9263723,9263967,246,664.6,499.0,3731,left
6,1,binary,9,1,trial,9263920.0,9269704.0,5784.0,9,L,9263997,9264147,152,930.4,532.2,3813,NA
6,1,binary,9,1,trial,9263920.0,9269704.0,5784.0,9,L,9264201,9264631,432,524.7,506.6,3723,left
6,1,binary,9,1,trial,9263920.0,9269704.0,5784.0,9,L,9264709,9265009,302,1485.3,523.8,3319,right
6,1,binary,9,1,trial,9263920.0,9269704.0,5784.0,9,L,9265033,9265235,204,1619.6,489.0,3183,right
6,1,binary,9,1,trial,9263920.0,9269704.0,5784.0,9,L,9265311,9265747,438,474.4,494.9,3263,left
6,1,binary,9,1,trial,9263920.0,9269704.0,5784.0,9,L,9265763,9266477,716,500.6,466.8,3473,left
6,1,binary,9,1,trial,9263920.0,9269704.0,5784.0,9,L,9266547,9266821,276,1435.5,515.9,3445,right
6,1,binary,9,1,trial,9263920.0,9269704.0,5784.0,9,L,9266841,9267249,410,1599.2,490.5,3248,right
6,1,binary,9,1,trial,9263920.0,9269704.0,5784.0,9,L,9267317,9267659,344,520.7,495.1,3323,left
6,1,binary,9,1,trial,9263920.0,9269704.0,5784.0,9,L,9267677,9268039,364,478.2,468.3,3402,left
6,1,binary,9,1,trial,9263920.0,9269704.0,5784.0,9,L,9268111,9268449,340,1507.2,506.6,3256,right
6,1,binary,9,1,trial,9263920.0,9269704.0,5784.0,9,L,9268469,9268989,522,1614.7,490.5,3141,right
6,1,binary,9,1,trial,9263920.0,9269704.0,5784.0,9,L,9269069,9269997,930,473.3,493.0,3530,left
6,1,binary,10,1,fixationCross,9270387.0,9275771.0,5384.0,10,L,9270123,9270321,200,623.4,528.5,3647,left
6,1,binary,10,1,trial,9270387.0,9275771.0,5384.0,10,L,9270365,9270567,204,918.1,505.7,3736,NA
6,1,binary,10,1,trial,9270387.0,9275771.0,5384.0,10,L,9270611,9270869,260,491.7,505.2,3755,left
6,1,binary,10,1,trial,9270387.0,9275771.0,5384.0,10,L,9270891,9271073,184,515.6,556.1,3540,left
6,1,binary,10,1,trial,9270387.0,9275771.0,5384.0,10,L,9271133,9271469,338,1417.5,489.8,3261,right
6,1,binary,10,1,trial,9270387.0,9275771.0,5384.0,10,L,9271487,9271853,368,1474.3,471.0,3142,right
6,1,binary,10,1,trial,9270387.0,9275771.0,5384.0,10,L,9272063,9272263,202,1481.3,525.1,3100,right
6,1,binary,10,1,trial,9270387.0,9275771.0,5384.0,10,L,9272341,9272801,462,530.5,526.5,3295,left
6,1,binary,10,1,trial,9270387.0,9275771.0,5384.0,10,L,9272817,9273323,508,504.6,553.8,3323,left
6,1,binary,10,1,trial,9270387.0,9275771.0,5384.0,10,L,9273389,9273649,262,1408.3,490.2,3293,right
6,1,binary,10,1,trial,9270387.0,9275771.0,5384.0,10,L,9273769,9274213,446,434.3,496.4,3439,left
6,1,binary,10,1,trial,9270387.0,9275771.0,5384.0,10,L,9274283,9274473,192,1334.2,446.0,3290,right
6,1,binary,10,1,trial,9270387.0,9275771.0,5384.0,10,L,9274513,9274801,290,1494.9,463.5,3172,right
6,1,binary,10,1,postResponse,9270387.0,9275771.0,5384.0,10,L,9274967,9276115,1150,513.7,528.4,3557,left
6,1,binary,11,1,fixationCross,9276487.0,9282187.0,5700.0,11,L,9276217,9276257,42,505.8,535.5,3773,left
6,1,binary,11,1,trial,9276487.0,9282187.0,5700.0,11,L,9276281,9276539,260,591.9,514.6,3805,left
6,1,binary,11,1,trial,9276487.0,9282187.0,5700.0,11,L,9276577,9276697,122,899.2,531.5,3788,NA
6,1,binary,11,1,trial,9276487.0,9282187.0,5700.0,11,L,9276739,9277099,362,522.0,519.9,3593,left
6,1,binary,11,1,trial,9276487.0,9282187.0,5700.0,11,L,9277167,9277773,608,1416.7,532.8,3153,right
6,1,binary,11,1,trial,9276487.0,9282187.0,5700.0,11,L,9277799,9278137,340,1477.8,455.8,2971,right
6,1,binary,11,1,trial,9276487.0,9282187.0,5700.0,11,L,9278169,9278449,282,1606.7,487.5,2867,right
6,1,binary,11,1,trial,9276487.0,9282187.0,5700.0,11,L,9278485,9278599,116,1461.7,540.1,2862,right
6,1,binary,11,1,trial,9276487.0,9282187.0,5700.0,11,L,9278793,9279383,592,1442.8,509.4,3030,right
6,1,binary,11,1,trial,9276487.0,9282187.0,5700.0,11,L,9279455,9280189,736,489.3,502.6,3079,left
6,1,binary,11,1,trial,9276487.0,9282187.0,5700.0,11,L,9280207,9280383,178,560.2,475.2,3176,left
6,1,binary,11,1,trial,9276487.0,9282187.0,5700.0,11,L,9280441,9281327,888,1419.6,506.6,3060,right
6,1,binary,11,1,trial,9276487.0,9282187.0,5700.0,11,L,9281337,9281589,254,1453.7,512.4,3090,right
6,1,binary,11,1,trial,9276487.0,9282187.0,5700.0,11,L,9281737,9282485,750,456.1,502.5,3205,left
6,1,binary,12,1,fixationCross,9282904.0,9289754.0,6850.0,12,L,9282633,9282771,140,570.3,503.4,3411,left
6,1,binary,12,1,trial,9282904.0,9289754.0,6850.0,12,L,9282815,9283165,352,781.1,495.2,3551,NA
6,1,binary,12,1,trial,9282904.0,9289754.0,6850.0,12,L,9283205,9283515,312,529.7,492.1,3521,left
6,1,binary,12,1,trial,9282904.0,9289754.0,6850.0,12,L,9283583,9283997,416,1425.7,510.6,3269,right
6,1,binary,12,1,trial,9282904.0,9289754.0,6850.0,12,L,9284025,9284283,260,1504.2,441.2,3216,right
6,1,binary,12,1,trial,9282904.0,9289754.0,6850.0,12,L,9284299,9284447,150,1557.4,433.3,3189,right
6,1,binary,12,1,trial,9282904.0,9289754.0,6850.0,12,L,9284639,9285033,396,1429.6,569.9,3276,right
6,1,binary,12,1,trial,9282904.0,9289754.0,6850.0,12,L,9285117,9285549,434,466.8,476.4,3508,left
6,1,binary,12,1,trial,9282904.0,9289754.0,6850.0,12,L,9285577,9285883,308,416.3,594.6,3477,left
6,1,binary,12,1,trial,9282904.0,9289754.0,6850.0,12,L,9286075,9286437,364,473.8,663.8,3476,left
6,1,binary,12,1,trial,9282904.0,9289754.0,6850.0,12,L,9286461,9286805,346,310.9,690.2,3517,left
6,1,binary,12,1,trial,9282904.0,9289754.0,6850.0,12,L,9286851,9287175,326,343.8,470.2,3414,left
6,1,binary,12,1,trial,9282904.0,9289754.0,6850.0,12,L,9287203,9287517,316,570.9,411.1,3367,left
6,1,binary,12,1,trial,9282904.0,9289754.0,6850.0,12,L,9287535,9287955,422,635.2,386.6,3437,left
6,1,binary,12,1,trial,9282904.0,9289754.0,6850.0,12,L,9287985,9288243,260,417.0,489.0,3485,left
6,1,binary,12,1,trial,9282904.0,9289754.0,6850.0,12,L,9288321,9288887,568,1359.4,534.3,3412,right
6,1,binary,12,1,trial,9282904.0,9289754.0,6850.0,12,L,9288971,9289185,216,537.2,847.7,3584,NA
6,1,binary,12,1,trial,9282904.0,9289754.0,6850.0,12,L,9289233,9289685,454,478.3,501.3,3661,left
6,1,binary,12,1,trial,9282904.0,9289754.0,6850.0,12,L,9289715,9289967,254,356.0,614.2,3776,left
6,1,binary,13,1,fixationCross,9290437.0,9299020.0,8583.0,13,L,9290177,9290385,210,681.9,713.3,3772,left
6,1,binary,13,1,trial,9290437.0,9299020.0,8583.0,13,L,9290451,9290577,128,639.2,414.6,3845,left
6,1,binary,13,1,trial,9290437.0,9299020.0,8583.0,13,L,9290631,9290923,294,1114.6,469.5,3742,NA
6,1,binary,13,1,trial,9290437.0,9299020.0,8583.0,13,L,9290949,9291315,368,1360.9,479.3,3384,right
6,1,binary,13,1,trial,9290437.0,9299020.0,8583.0,13,L,9291343,9291673,332,1515.6,563.0,3191,right
6,1,binary,13,1,trial,9290437.0,9299020.0,8583.0,13,L,9291701,9292271,572,1358.6,476.4,3127,right
6,1,binary,13,1,trial,9290437.0,9299020.0,8583.0,13,L,9292333,9292581,250,579.5,512.2,3389,left
6,1,binary,13,1,trial,9290437.0,9299020.0,8583.0,13,L,9292607,9293189,584,495.3,535.4,3468,left
6,1,binary,13,1,trial,9290437.0,9299020.0,8583.0,13,L,9293231,9293463,234,408.5,662.6,3510,left
6,1,binary,13,1,trial,9290437.0,9299020.0,8583.0,13,L,9293515,9293675,162,449.9,987.4,3543,NA
6,1,binary,13,1,trial,9290437.0,9299020.0,8583.0,13,L,9293743,9294127,386,1419.9,553.5,3411,right
6,1,binary,13,1,trial,9290437.0,9299020.0,8583.0,13,L,9294151,9294639,490,1365.3,461.2,3322,right
6,1,binary,13,1,trial,9290437.0,9299020.0,8583.0,13,L,9294665,9295083,420,1507.1,541.7,3212,right
6,1,binary,13,1,trial,9290437.0,9299020.0,8583.0,13,L,9295103,9295327,226,1600.7,556.7,3299,right
6,1,binary,13,1,trial,9290437.0,9299020.0,8583.0,13,L,9295351,9295725,376,1390.4,501.4,3395,right
6,1,binary,13,1,trial,9290437.0,9299020.0,8583.0,13,L,9295811,9296329,520,521.5,513.8,3644,left
6,1,binary,13,1,trial,9290437.0,9299020.0,8583.0,13,L,9296399,9297143,746,1400.0,525.1,3620,right
6,1,binary,13,1,trial,9290437.0,9299020.0,8583.0,13,L,9297211,9297851,642,512.9,526.7,3654,left
6,1,binary,13,1,trial,9290437.0,9299020.0,8583.0,13,L,9297871,9298167,298,425.2,558.2,3726,left
6,1,binary,13,1,trial,9290437.0,9299020.0,8583.0,13,L,9298191,9298491,302,536.1,545.5,3779,left
6,1,binary,13,1,trial,9290437.0,9299020.0,8583.0,13,L,9298553,9298927,376,1296.8,496.8,3526,right
6,1,binary,13,1,trial,9290437.0,9299020.0,8583.0,13,L,9299011,9299217,208,510.8,774.9,3566,NA
6,1,binary,13,1,postResponse,9290437.0,9299020.0,8583.0,13,L,9299279,9299367,90,461.0,474.6,3588,left
6,1,binary,14,2,trial,9299687.0,9304554.0,4867.0,14,L,9299443,9299753,312,458.8,472.6,3770,left
6,1,binary,14,2,trial,9299687.0,9304554.0,4867.0,14,L,9299787,9299933,148,877.8,526.5,3733,NA
6,1,binary,14,2,trial,9299687.0,9304554.0,4867.0,14,L,9299989,9300263,276,431.0,510.9,3601,left
6,1,binary,14,2,trial,9299687.0,9304554.0,4867.0,14,L,9300285,9300525,242,390.4,529.7,3508,left
6,1,binary,14,2,trial,9299687.0,9304554.0,4867.0,14,L,9300665,9300899,236,1412.2,502.8,3498,right
6,1,binary,14,2,trial,9299687.0,9304554.0,4867.0,14,L,9300925,9301357,434,1613.4,525.4,3351,right
6,1,binary,14,2,trial,9299687.0,9304554.0,4867.0,14,L,9301391,9301805,416,1395.7,542.9,3195,right
6,1,binary,14,2,trial,9299687.0,9304554.0,4867.0,14,L,9301879,9302433,556,428.2,549.8,3504,left
6,1,binary,14,2,trial,9299687.0,9304554.0,4867.0,14,L,9302519,9302713,196,1451.2,538.3,3327,right
6,1,binary,14,2,trial,9299687.0,9304554.0,4867.0,14,L,9302735,9303193,460,1609.1,507.8,3224,right
6,1,binary,14,2,trial,9299687.0,9304554.0,4867.0,14,L,9303245,9303351,108,1008.6,472.6,3302,NA
6,1,binary,14,2,trial,9299687.0,9304554.0,4867.0,14,L,9303407,9303565,160,469.0,518.6,3347,left
6,1,binary,14,2,trial,9299687.0,9304554.0,4867.0,14,L,9303587,9304073,488,390.7,536.2,3428,left
6,1,binary,14,2,trial,9299687.0,9304554.0,4867.0,14,L,9304153,9304721,570,1475.5,471.2,3276,right
6,1,binary,14,2,trial,9299687.0,9304554.0,4867.0,14,L,9304761,9304785,26,1269.1,403.9,3333,right
6,1,binary,14,2,postResponse,9299687.0,9304554.0,4867.0,14,L,9304831,9304903,74,1060.5,517.0,3422,NA
6,1,binary,15,2,fixationCross,9305254.0,9311421.0,6167.0,15,L,9304983,9305075,94,1029.1,518.7,3453,NA
6,1,binary,15,2,trial,9305254.0,9311421.0,6167.0,15,L,9305139,9305337,200,1172.3,489.8,3529,NA
6,1,binary,15,2,trial,9305254.0,9311421.0,6167.0,15,L,9305367,9305487,122,942.2,533.7,3632,NA
6,1,binary,15,2,trial,9305254.0,9311421.0,6167.0,15,L,9305545,9305969,426,509.8,537.9,3345,left
6,1,binary,15,2,trial,9305254.0,9311421.0,6167.0,15,L,9306031,9306571,542,1370.4,508.6,3026,right
6,1,binary,15,2,trial,9305254.0,9311421.0,6167.0,15,L,9306591,9306965,376,1436.4,477.4,3158,right
6,1,binary,15,2,trial,9305254.0,9311421.0,6167.0,15,L,9307041,9307699,660,444.9,513.6,3416,left
6,1,binary,15,2,trial,9305254.0,9311421.0,6167.0,15,L,9307723,9308523,802,485.3,557.2,3342,left
6,1,binary,15,2,trial,9305254.0,9311421.0,6167.0,15,L,9308585,9308751,168,744.9,489.5,3286,NA
6,1,binary,15,2,trial,9305254.0,9311421.0,6167.0,15,L,9308789,9309265,478,464.4,512.9,3511,left
6,1,binary,15,2,trial,9305254.0,9311421.0,6167.0,15,L,9309283,9309923,642,416.1,553.6,3431,left
6,1,binary,15,2,trial,9305254.0,9311421.0,6167.0,15,L,9309989,9310229,242,1311.1,515.0,3308,right
6,1,binary,15,2,trial,9305254.0,9311421.0,6167.0,15,L,9310251,9310971,722,1449.4,521.0,3268,right
6,1,binary,15,2,trial,9305254.0,9311421.0,6167.0,15,L,9311057,9311427,372,457.5,533.2,3465,left
6,1,binary,15,2,trial,9305254.0,9311421.0,6167.0,15,L,9311499,9311691,194,1351.2,824.4,3390,NA
6,1,binary,16,1,fixationCross,9312104.0,9318671.0,6567.0,16,L,9311845,9312047,204,1319.4,439.6,3419,right
6,1,binary,16,1,trial,9312104.0,9318671.0,6567.0,16,L,9312257,9312383,128,1003.6,489.0,3756,NA
6,1,binary,16,1,trial,9312104.0,9318671.0,6567.0,16,L,9312429,9312871,444,1488.6,491.4,3653,right
6,1,binary,16,1,trial,9312104.0,9318671.0,6567.0,16,L,9312953,9313257,306,450.0,488.3,3524,left
6,1,binary,16,1,trial,9312104.0,9318671.0,6567.0,16,L,9313279,9313967,690,466.5,415.3,3492,left
6,1,binary,16,1,trial,9312104.0,9318671.0,6567.0,16,L,9314033,9314179,148,1424.5,471.6,3311,right
6,1,binary,16,1,trial,9312104.0,9318671.0,6567.0,16,L,9314201,9315595,1396,1506.7,480.6,3451,right
6,1,binary,16,1,trial,9312104.0,9318671.0,6567.0,16,L,9315791,9316379,590,424.5,441.5,3570,left
6,1,binary,16,1,trial,9312104.0,9318671.0,6567.0,16,L,9316417,9316789,374,501.3,586.3,3292,left
6,1,binary,16,1,trial,9312104.0,9318671.0,6567.0,16,L,9316871,9317029,160,1394.5,485.6,3228,right
6,1,binary,16,1,trial,9312104.0,9318671.0,6567.0,16,L,9317053,9317333,282,1506.6,476.0,3332,right
6,1,binary,16,1,trial,9312104.0,9318671.0,6567.0,16,L,9317529,9317985,458,368.4,455.7,3541,left
6,1,binary,16,1,trial,9312104.0,9318671.0,6567.0,16,L,9318009,9318473,466,475.5,393.4,3352,left
6,1,binary,16,1,postResponse,9312104.0,9318671.0,6567.0,16,L,9318507,9319005,500,424.0,503.8,3353,left
6,1,binary,17,1,trial,9319371.0,9327238.0,7867.0,17,L,9319111,9319409,300,582.2,491.2,3590,left
6,1,binary,17,1,trial,9319371.0,9327238.0,7867.0,17,L,9319439,9319581,144,890.2,516.6,3716,NA
6,1,binary,17,1,trial,9319371.0,9327238.0,7867.0,17,L,9319633,9319933,302,533.8,470.7,3663,left
6,1,binary,17,1,trial,9319371.0,9327238.0,7867.0,17,L,9319955,9320377,424,443.4,535.2,3529,left
6,1,binary,17,1,trial,9319371.0,9327238.0,7867.0,17,L,9320445,9320843,400,1432.5,525.2,3294,right
6,1,binary,17,1,trial,9319371.0,9327238.0,7867.0,17,L,9320869,9321413,546,1383.2,436.7,3217,right
6,1,binary,17,1,trial,9319371.0,9327238.0,7867.0,17,L,9321483,9322423,942,480.4,510.8,3472,left
6,1,binary,17,1,trial,9319371.0,9327238.0,7867.0,17,L,9322457,9322701,246,433.6,615.8,3615,left
6,1,binary,17,1,trial,9319371.0,9327238.0,7867.0,17,L,9322747,9323355,610,421.1,451.9,3684,left
6,1,binary,17,1,trial,9319371.0,9327238.0,7867.0,17,L,9323377,9323629,254,479.8,509.0,3643,left
6,1,binary,17,1,trial,9319371.0,9327238.0,7867.0,17,L,9323695,9324547,854,1387.3,550.7,3331,right
6,1,binary,17,1,trial,9319371.0,9327238.0,7867.0,17,L,9324607,9325015,410,517.8,507.7,3494,left
6,1,binary,17,1,trial,9319371.0,9327238.0,7867.0,17,L,9325039,9325287,250,425.3,534.2,3612,left
6,1,binary,17,1,trial,9319371.0,9327238.0,7867.0,17,L,9325353,9325853,502,1362.2,503.6,3450,right
6,1,binary,17,1,trial,9319371.0,9327238.0,7867.0,17,L,9325873,9326323,452,1449.6,485.3,3398,right
6,1,binary,17,1,trial,9319371.0,9327238.0,7867.0,17,L,9326415,9327243,830,421.7,526.6,3524,left
6,1,binary,17,1,postResponse,9319371.0,9327238.0,7867.0,17,L,9327259,9327571,314,477.7,499.2,3549,left
6,1,binary,18,2,trial,9327971.0,9332855.0,4884.0,18,L,9327791,9328041,252,803.9,501.2,3783,NA
6,1,binary,18,2,trial,9327971.0,9332855.0,4884.0,18,L,9328077,9328177,102,949.3,536.5,3917,NA
6,1,binary,18,2,trial,9327971.0,9332855.0,4884.0,18,L,9328219,9328601,384,536.2,531.7,3680,left
6,1,binary,18,2,trial,9327971.0,9332855.0,4884.0,18,L,9328769,9329233,466,418.1,493.1,3389,left
6,1,binary,18,2,trial,9327971.0,9332855.0,4884.0,18,L,9329285,9329389,106,847.5,510.1,3309,NA
6,1,binary,18,2,trial,9327971.0,9332855.0,4884.0,18,L,9329435,9329767,334,1364.5,576.9,3131,right
6,1,binary,18,2,trial,9327971.0,9332855.0,4884.0,18,L,9329791,9330155,366,1534.6,540.0,2937,right
6,1,binary,18,2,trial,9327971.0,9332855.0,4884.0,18,L,9330179,9330349,172,1393.5,559.5,2876,right
6,1,binary,18,2,trial,9327971.0,9332855.0,4884.0,18,L,9330417,9331195,780,458.9,495.8,3212,left
6,1,binary,18,2,trial,9327971.0,9332855.0,4884.0,18,L,9331265,9331985,722,1435.5,561.4,3407,right
6,1,binary,18,2,trial,9327971.0,9332855.0,4884.0,18,L,9332007,9332319,314,1518.7,537.8,3513,right
6,1,binary,18,2,trial,9327971.0,9332855.0,4884.0,18,L,9332345,9332903,560,1379.8,579.3,3495,right
6,1,binary,18,2,postResponse,9327971.0,9332855.0,4884.0,18,L,9332919,9333205,288,1338.8,574.2,3244,right
6,1,binary,19,1,fixationCross,9333555.0,9339888.0,6333.0,19,L,9333305,9333445,142,1223.8,539.6,3343,right
6,1,binary,19,1,trial,9333555.0,9339888.0,6333.0,19,L,9333485,9333721,238,884.3,486.4,3561,NA
6,1,binary,19,1,trial,9333555.0,9339888.0,6333.0,19,L,9333763,9334175,414,580.4,570.2,3622,left
6,1,binary,19,1,trial,9333555.0,9339888.0,6333.0,19,L,9334205,9334351,148,382.2,570.6,3446,left
6,1,binary,19,1,trial,9333555.0,9339888.0,6333.0,19,L,9334419,9334905,488,1462.8,539.5,3213,right
6,1,binary,19,1,trial,9333555.0,9339888.0,6333.0,19,L,9334931,9335109,180,1494.5,496.7,3143,right
6,1,binary,19,1,trial,9333555.0,9339888.0,6333.0,19,L,9335141,9335359,220,1647.6,667.7,3133,right
6,1,binary,19,1,trial,9333555.0,9339888.0,6333.0,19,L,9335405,9335853,450,1379.2,493.2,3210,right
6,1,binary,19,1,trial,9333555.0,9339888.0,6333.0,19,L,9336069,9336641,574,1508.3,541.5,3168,right
6,1,binary,19,1,trial,9333555.0,9339888.0,6333.0,19,L,9336713,9336919,208,598.2,569.6,3233,left
6,1,binary,19,1,trial,9333555.0,9339888.0,6333.0,19,L,9336989,9337519,532,1485.9,483.2,3176,right
6,1,binary,19,1,trial,9333555.0,9339888.0,6333.0,19,L,9337591,9338065,476,558.5,541.3,3393,left
6,1,binary,19,1,trial,9333555.0,9339888.0,6333.0,19,L,9338091,9338455,366,359.0,567.4,3351,left
6,1,binary,19,1,trial,9333555.0,9339888.0,6333.0,19,L,9338523,9339133,612,1356.7,520.5,3265,right
6,1,binary,19,1,trial,9333555.0,9339888.0,6333.0,19,L,9339171,9339409,240,1530.4,498.8,3287,right
6,1,binary,19,1,trial,9333555.0,9339888.0,6333.0,19,L,9339497,9339515,20,523.3,561.7,3468,left
6,1,binary,19,1,trial,9333555.0,9339888.0,6333.0,19,L,9339533,9340111,580,510.0,583.8,3389,left
6,1,binary,19,1,trial,9333555.0,9339888.0,6333.0,19,L,9340131,9340169,40,514.4,525.1,3349,left
6,1,binary,19,1,postResponse,9333555.0,9339888.0,6333.0,19,L,9340179,9340235,58,517.6,560.9,3368,left
6,1,binary,20,1,fixationCross,9340572.0,9344238.0,3666.0,20,L,9340309,9340451,144,523.0,559.5,3441,left
6,1,binary,20,1,trial,9340572.0,9344238.0,3666.0,20,L,9340501,9340837,338,720.0,483.5,3587,left
6,1,binary,20,1,trial,9340572.0,9344238.0,3666.0,20,L,9340865,9341169,306,526.7,535.7,3568,left
6,1,binary,20,1,trial,9340572.0,9344238.0,3666.0,20,L,9341189,9341359,172,443.6,545.6,3429,left
6,1,binary,20,1,trial,9340572.0,9344238.0,3666.0,20,L,9341421,9341955,536,1414.5,518.8,3177,right
6,1,binary,20,1,trial,9340572.0,9344238.0,3666.0,20,L,9341977,9342527,552,1524.4,472.9,2947,right
6,1,binary,20,1,trial,9340572.0,9344238.0,3666.0,20,L,9342551,9342725,176,1414.5,551.6,2894,right
6,1,binary,20,1,trial,9340572.0,9344238.0,3666.0,20,L,9342803,9343323,522,477.5,538.9,3133,left
6,1,binary,20,1,trial,9340572.0,9344238.0,3666.0,20,L,9343339,9343489,152,420.4,547.9,3272,left
6,1,binary,20,1,trial,9340572.0,9344238.0,3666.0,20,L,9343679,9343961,284,545.6,479.2,3258,left
6,1,binary,20,1,trial,9340572.0,9344238.0,3666.0,20,L,9343989,9344483,496,437.5,539.8,3438,left
6,1,binary,21,1,trial,9344921.0,9351038.0,6117.0,21,L,9344663,9344953,292,661.4,511.9,3506,left
6,1,binary,21,1,trial,9344921.0,9351038.0,6117.0,21,L,9344983,9345119,138,923.6,549.1,3634,NA
6,1,binary,21,1,trial,9344921.0,9351038.0,6117.0,21,L,9345157,9345445,290,571.5,489.3,3505,left
6,1,binary,21,1,trial,9344921.0,9351038.0,6117.0,21,L,9345467,9345763,298,635.0,479.4,3254,left
6,1,binary,21,1,trial,9344921.0,9351038.0,6117.0,21,L,9345823,9346093,272,1482.1,489.5,3144,right
6,1,binary,21,1,trial,9344921.0,9351038.0,6117.0,21,L,9346113,9346413,302,1494.6,426.3,3188,right
6,1,binary,21,1,trial,9344921.0,9351038.0,6117.0,21,L,9346423,9346617,196,1498.1,406.9,3147,right
6,1,binary,21,1,trial,9344921.0,9351038.0,6117.0,21,L,9346685,9347033,350,558.2,487.2,3354,left
6,1,binary,21,1,trial,9344921.0,9351038.0,6117.0,21,L,9347055,9347369,316,665.3,479.3,3338,left
6,1,binary,21,1,trial,9344921.0,9351038.0,6117.0,21,L,9347431,9347793,364,1442.0,475.5,3212,right
6,1,binary,21,1,trial,9344921.0,9351038.0,6117.0,21,L,9347815,9348113,300,1499.9,418.6,3146,right
6,1,binary,21,1,trial,9344921.0,9351038.0,6117.0,21,L,9348195,9348531,338,527.5,576.8,3324,left
6,1,binary,21,1,trial,9344921.0,9351038.0,6117.0,21,L,9348569,9349155,588,634.5,461.8,3359,left
6,1,binary,21,1,trial,9344921.0,9351038.0,6117.0,21,L,9349225,9349579,356,1462.0,471.9,3340,right
6,1,binary,21,1,trial,9344921.0,9351038.0,6117.0,21,L,9349605,9350473,870,1499.8,411.9,3316,right
6,1,binary,21,1,trial,9344921.0,9351038.0,6117.0,21,L,9350493,9350675,184,1426.6,440.1,3400,right
6,1,binary,21,1,trial,9344921.0,9351038.0,6117.0,21,L,9350749,9351085,338,530.4,477.0,3583,left
6,1,binary,21,1,postResponse,9344921.0,9351038.0,6117.0,21,L,9351107,9351383,278,662.1,488.3,3496,left
6,1,binary,22,1,fixationCross,9351755.0,9358822.0,7067.0,22,L,9351481,9351705,226,604.6,481.3,3637,left
6,1,binary,22,1,trial,9351755.0,9358822.0,7067.0,22,L,9351749,9351927,180,854.2,487.9,3779,NA
6,1,binary,22,1,trial,9351755.0,9358822.0,7067.0,22,L,9351965,9352397,434,533.8,479.4,3781,left
6,1,binary,22,1,trial,9351755.0,9358822.0,7067.0,22,L,9352461,9352829,370,1326.2,556.2,3498,right
6,1,binary,22,1,trial,9351755.0,9358822.0,7067.0,22,L,9352859,9353419,562,1579.2,540.6,3406,right
6,1,binary,22,1,trial,9351755.0,9358822.0,7067.0,22,L,9353499,9354279,782,556.0,458.4,3631,left
6,1,binary,22,1,trial,9351755.0,9358822.0,7067.0,22,L,9354289,9354787,500,588.9,442.2,3663,left
6,1,binary,22,1,trial,9351755.0,9358822.0,7067.0,22,L,9354847,9355113,268,1374.7,523.5,3517,right
6,1,binary,22,1,trial,9351755.0,9358822.0,7067.0,22,L,9355141,9355331,192,1586.0,523.8,3433,right
6,1,binary,22,1,trial,9351755.0,9358822.0,7067.0,22,L,9355367,9356043,678,1280.8,550.7,3546,right
6,1,binary,22,1,trial,9351755.0,9358822.0,7067.0,22,L,9356059,9356247,190,1324.0,537.8,3699,right
6,1,binary,22,1,trial,9351755.0,9358822.0,7067.0,22,L,9356317,9356669,354,508.7,472.6,3815,left
6,1,binary,22,1,trial,9351755.0,9358822.0,7067.0,22,L,9356691,9357069,380,610.1,434.7,3561,left
6,1,binary,22,1,trial,9351755.0,9358822.0,7067.0,22,L,9357081,9357677,598,552.2,436.3,3653,left
6,1,binary,22,1,trial,9351755.0,9358822.0,7067.0,22,L,9357713,9357825,114,661.1,506.3,3633,left
6,1,binary,22,1,trial,9351755.0,9358822.0,7067.0,22,L,9357881,9358435,556,1345.3,554.9,3522,right
6,1,binary,22,1,trial,9351755.0,9358822.0,7067.0,22,L,9358493,9358761,270,627.8,473.0,3649,left
6,1,binary,22,1,postResponse,9351755.0,9358822.0,7067.0,22,L,9358789,9359157,370,473.7,532.7,3618,left
6,1,binary,23,2,fixationCross,9359505.0,9363305.0,3800.0,23,L,9359257,9359295,40,501.3,515.8,3657,left
6,1,binary,23,2,trial,9359505.0,9363305.0,3800.0,23,L,9359323,9359689,368,708.5,477.6,3712,left
6,1,binary,23,2,trial,9359505.0,9363305.0,3800.0,23,L,9359731,9360003,274,398.6,518.3,3657,left
6,1,binary,23,2,trial,9359505.0,9363305.0,3800.0,23,L,9360023,9360097,76,523.0,500.9,3335,left
6,1,binary,23,2,trial,9359505.0,9363305.0,3800.0,23,L,9360289,9360417,130,537.4,448.4,3195,left
6,1,binary,23,2,trial,9359505.0,9363305.0,3800.0,23,L,9360485,9360999,516,1339.6,477.1,3199,right
6,1,binary,23,2,trial,9359505.0,9363305.0,3800.0,23,L,9361185,9361369,186,1356.5,438.1,3133,right
6,1,binary,23,2,trial,9359505.0,9363305.0,3800.0,23,L,9361429,9361943,516,481.7,468.7,3398,left
6,1,binary,23,2,trial,9359505.0,9363305.0,3800.0,23,L,9361973,9362359,388,310.6,535.6,3404,left
6,1,binary,23,2,trial,9359505.0,9363305.0,3800.0,23,L,9362393,9362497,106,540.0,498.7,3348,left
6,1,binary,23,2,trial,9359505.0,9363305.0,3800.0,23,L,9362559,9363565,1008,1371.2,472.9,3283,right
6,1,binary,23,2,postResponse,9359505.0,9363305.0,3800.0,23,L,9363603,9363657,56,1256.6,478.7,3395,right
6,1,binary,24,1,fixationCross,9364038.0,9370222.0,6184.0,24,L,9363731,9363747,18,1243.0,470.2,3436,right
6,1,binary,24,1,trial,9364038.0,9370222.0,6184.0,24,L,9363807,9364203,398,753.3,470.0,3635,NA
6,1,binary,24,1,trial,9364038.0,9370222.0,6184.0,24,L,9364239,9364555,318,513.0,503.3,3601,left
6,1,binary,24,1,trial,9364038.0,9370222.0,6184.0,24,L,9364619,9364957,340,1384.3,529.4,3116,right
6,1,binary,24,1,trial,9364038.0,9370222.0,6184.0,24,L,9364983,9365297,316,1515.1,594.7,3055,right
6,1,binary,24,1,trial,9364038.0,9370222.0,6184.0,24,L,9365383,9365941,560,508.6,516.6,3134,left
6,1,binary,24,1,trial,9364038.0,9370222.0,6184.0,24,L,9365961,9366087,128,429.2,480.0,3063,left
6,1,binary,24,1,trial,9364038.0,9370222.0,6184.0,24,L,9366151,9366521,372,1391.0,536.8,3023,right
6,1,binary,24,1,trial,9364038.0,9370222.0,6184.0,24,L,9366541,9366895,356,1416.7,590.6,3151,right
6,1,binary,24,1,trial,9364038.0,9370222.0,6184.0,24,L,9366967,9367829,864,459.5,506.8,3193,left
6,1,binary,24,1,trial,9364038.0,9370222.0,6184.0,24,L,9367899,9368633,736,1392.6,531.8,3173,right
6,1,binary,24,1,trial,9364038.0,9370222.0,6184.0,24,L,9368645,9369007,364,1395.9,561.2,3338,right
6,1,binary,24,1,trial,9364038.0,9370222.0,6184.0,24,L,9369019,9369139,122,1373.4,581.8,3386,right
6,1,binary,24,1,trial,9364038.0,9370222.0,6184.0,24,L,9369211,9369619,410,468.0,488.1,3508,left
6,1,binary,24,1,trial,9364038.0,9370222.0,6184.0,24,L,9369643,9370371,730,427.2,566.4,3485,left
6,1,binary,24,1,trial,9364038.0,9370222.0,6184.0,24,L,9370395,9370433,40,475.9,500.1,3428,left
6,1,binary,24,1,postResponse,9364038.0,9370222.0,6184.0,24,L,9370441,9370567,128,559.9,523.3,3395,left
6,1,binary,25,2,fixationCross,9370888.0,9374222.0,3334.0,25,L,9370641,9370883,244,579.8,521.8,3495,left
6,1,binary,25,2,trial,9370888.0,9374222.0,3334.0,25,L,9370945,9371125,182,947.1,507.5,3675,NA
6,1,binary,25,2,trial,9370888.0,9374222.0,3334.0,25,L,9371167,9371529,364,561.4,493.5,3739,left
6,1,binary,25,2,trial,9370888.0,9374222.0,3334.0,25,L,9371553,9371925,374,461.4,511.8,3929,left
6,1,binary,25,2,trial,9370888.0,9374222.0,3334.0,25,L,9371999,9372251,254,1356.6,522.8,3803,right
6,1,binary,25,2,trial,9370888.0,9374222.0,3334.0,25,L,9372277,9372485,210,1486.2,565.7,3593,right
6,1,binary,25,2,trial,9370888.0,9374222.0,3334.0,25,L,9372509,9372833,326,1413.9,589.0,3386,right
6,1,binary,25,2,trial,9370888.0,9374222.0,3334.0,25,L,9372901,9373303,404,483.8,491.3,3418,left
6,1,binary,25,2,trial,9370888.0,9374222.0,3334.0,25,L,9373371,9373633,264,1357.9,566.9,3560,right
6,1,binary,25,2,postResponse,9370888.0,9374222.0,3334.0,25,L,9373655,9374547,894,1415.6,600.1,3399,right
6,1,binary,26,1,trial,9402239.0,9406355.0,4116.0,26,L,9401984,9402302,320,699.1,8.5,3852,NA
6,1,binary,26,1,trial,9402239.0,9406355.0,4116.0,26,L,9402362,9402470,110,862.4,518.1,3977,NA
6,1,binary,26,1,trial,9402239.0,9406355.0,4116.0,26,L,9402518,9402892,376,1319.2,466.8,3680,right
6,1,binary,26,1,trial,9402239.0,9406355.0,4116.0,26,L,9402910,9403044,136,1398.3,472.8,3406,right
6,1,binary,26,1,trial,9402239.0,9406355.0,4116.0,26,L,9403222,9403450,230,1375.6,459.4,3202,right
6,1,binary,26,1,trial,9402239.0,9406355.0,4116.0,26,L,9403508,9403772,266,565.8,500.9,3439,left
6,1,binary,26,1,trial,9402239.0,9406355.0,4116.0,26,L,9403796,9404258,464,408.8,524.0,3371,left
6,1,binary,26,1,trial,9402239.0,9406355.0,4116.0,26,L,9404340,9404552,214,1361.6,443.3,3277,right
6,1,binary,26,1,trial,9402239.0,9406355.0,4116.0,26,L,9404570,9404906,338,1346.6,470.2,3272,right
6,1,binary,26,1,trial,9402239.0,9406355.0,4116.0,26,L,9405024,9405452,430,512.5,468.0,3208,left
6,1,binary,26,1,trial,9402239.0,9406355.0,4116.0,26,L,9405476,9406198,724,420.3,499.3,3430,left
6,1,binary,26,1,postResponse,9402239.0,9406355.0,4116.0,26,L,9406226,9406702,478,607.9,437.5,3462,left
6,1,binary,27,2,fixationCross,9407072.0,9410422.0,3350.0,27,L,9406802,9406832,32,607.6,439.6,3480,left
6,1,binary,27,2,fixationCross,9407072.0,9410422.0,3350.0,27,L,9406848,9407038,192,666.9,442.0,3554,left
6,1,binary,27,2,trial,9407072.0,9410422.0,3350.0,27,L,9407088,9407268,182,962.2,489.4,3669,NA
6,1,binary,27,2,trial,9407072.0,9410422.0,3350.0,27,L,9407326,9407564,240,444.5,498.0,3753,left
6,1,binary,27,2,trial,9407072.0,9410422.0,3350.0,27,L,9407582,9407756,176,420.3,523.4,3609,left
6,1,binary,27,2,trial,9407072.0,9410422.0,3350.0,27,L,9407822,9408342,522,1390.4,535.3,3306,right
6,1,binary,27,2,trial,9407072.0,9410422.0,3350.0,27,L,9408358,9408552,196,1413.7,494.6,3383,right
6,1,binary,27,2,trial,9407072.0,9410422.0,3350.0,27,L,9408630,9408932,304,446.7,540.4,3578,left
6,1,binary,27,2,trial,9407072.0,9410422.0,3350.0,27,L,9408944,9409412,470,438.5,516.5,3402,left
6,1,binary,27,2,trial,9407072.0,9410422.0,3350.0,27,L,9409486,9409836,352,1389.5,525.9,3312,right
6,1,binary,27,2,trial,9407072.0,9410422.0,3350.0,27,L,9409858,9410592,736,1417.3,491.8,3348,right
6,1,binary,28,2,fixationCross,9411122.0,9415305.0,4183.0,28,L,9410860,9411032,174,884.1,523.3,3599,NA
6,1,binary,28,2,trial,9411122.0,9415305.0,4183.0,28,L,9411068,9411280,214,703.6,491.0,3784,left
6,1,binary,28,2,trial,9411122.0,9415305.0,4183.0,28,L,9411310,9411516,208,462.4,512.4,3825,left
6,1,binary,28,2,trial,9411122.0,9415305.0,4183.0,28,L,9411542,9411668,128,446.9,591.6,3478,left
6,1,binary,28,2,trial,9411122.0,9415305.0,4183.0,28,L,9411730,9412032,304,1375.0,468.5,3079,right
6,1,binary,28,2,trial,9411122.0,9415305.0,4183.0,28,L,9412052,9412414,364,1426.1,449.7,3139,right
6,1,binary,28,2,trial,9411122.0,9415305.0,4183.0,28,L,9412620,9412738,120,1417.0,503.9,3253,right
6,1,binary,28,2,trial,9411122.0,9415305.0,4183.0,28,L,9412798,9413256,460,489.1,579.3,3481,left
6,1,binary,28,2,trial,9411122.0,9415305.0,4183.0,28,L,9413282,9413708,428,471.6,431.7,3268,left
6,1,binary,28,2,trial,9411122.0,9415305.0,4183.0,28,L,9413778,9414296,520,1418.3,478.0,3193,right
6,1,binary,28,2,trial,9411122.0,9415305.0,4183.0,28,L,9414328,9415194,868,1510.6,677.7,3388,right
6,1,binary,28,2,trial,9411122.0,9415305.0,4183.0,28,L,9415246,9415488,244,1427.1,438.8,3516,right
6,1,binary,28,2,postResponse,9411122.0,9415305.0,4183.0,28,L,9415560,9415652,94,730.3,506.0,3640,left
6,1,binary,29,1,fixationCross,9415989.0,9421006.0,5017.0,29,L,9415726,9415790,66,714.7,510.3,3670,left
6,1,binary,29,1,trial,9415989.0,9421006.0,5017.0,29,L,9415816,9415998,184,760.7,422.5,3753,NA
6,1,binary,29,1,trial,9415989.0,9421006.0,5017.0,29,L,9416162,9416286,126,886.6,465.9,3878,NA
6,1,binary,29,1,trial,9415989.0,9421006.0,5017.0,29,L,9416332,9416510,180,512.9,510.7,3875,left
6,1,binary,29,1,trial,9415989.0,9421006.0,5017.0,29,L,9416538,9417062,526,369.6,560.0,3547,left
6,1,binary,29,1,trial,9415989.0,9421006.0,5017.0,29,L,9417136,9417314,180,1415.4,479.4,3215,right
6,1,binary,29,1,trial,9415989.0,9421006.0,5017.0,29,L,9417338,9417856,520,1466.0,422.7,3144,right
6,1,binary,29,1,trial,9415989.0,9421006.0,5017.0,29,L,9417882,9418102,222,1467.9,510.9,3165,right
6,1,binary,29,1,trial,9415989.0,9421006.0,5017.0,29,L,9418130,9418458,330,1283.8,566.4,3236,right
6,1,binary,29,1,trial,9415989.0,9421006.0,5017.0,29,L,9418478,9418682,206,1332.7,546.5,3225,right
6,1,binary,29,1,trial,9415989.0,9421006.0,5017.0,29,L,9418708,9418810,104,1511.4,527.2,3205,right
6,1,binary,29,1,trial,9415989.0,9421006.0,5017.0,29,L,9418882,9419148,268,517.5,517.2,3413,left
6,1,binary,29,1,trial,9415989.0,9421006.0,5017.0,29,L,9419174,9419846,674,396.2,561.4,3386,left
6,1,binary,29,1,trial,9415989.0,9421006.0,5017.0,29,L,9419928,9420174,248,1405.9,497.0,3246,right
6,1,binary,29,1,trial,9415989.0,9421006.0,5017.0,29,L,9420198,9420512,316,1486.9,422.3,3148,right
6,1,binary,29,1,trial,9415989.0,9421006.0,5017.0,29,L,9420540,9420678,140,1447.4,503.8,3131,right
6,1,binary,29,1,trial,9415989.0,9421006.0,5017.0,29,L,9420782,9421214,434,424.5,541.7,3358,left
6,1,binary,29,1,postResponse,9415989.0,9421006.0,5017.0,29,L,9421232,9421360,130,508.2,540.3,3357,left
6,1,binary,30,2,fixationCross,9421705.0,9423905.0,2200.0,30,L,9421434,9421566,134,529.8,552.6,3405,left
6,1,binary,30,2,trial,9421705.0,9423905.0,2200.0,30,L,9421614,9421862,250,732.3,490.2,3510,left
6,1,binary,30,2,trial,9421705.0,9423905.0,2200.0,30,L,9421892,9422194,304,485.0,499.8,3558,left
6,1,binary,30,2,trial,9421705.0,9423905.0,2200.0,30,L,9422258,9422788,532,1466.4,569.2,3230,right
6,1,binary,30,2,trial,9421705.0,9423905.0,2200.0,30,L,9422858,9423178,322,456.2,499.8,3520,left
6,1,binary,30,2,trial,9421705.0,9423905.0,2200.0,30,L,9423198,9423354,158,493.1,495.6,3443,left
6,1,binary,30,2,trial,9421705.0,9423905.0,2200.0,30,L,9423442,9423678,238,1516.8,649.0,3232,right
6,1,binary,30,2,postResponse,9421705.0,9423905.0,2200.0,30,L,9423698,9424254,558,1460.3,569.4,3440,right
6,1,binary,31,2,trial,9424639.0,9433489.0,8850.0,31,L,9424354,9424816,464,801.5,479.6,3865,NA
6,1,binary,31,2,trial,9424639.0,9433489.0,8850.0,31,L,9424854,9425188,336,502.7,509.1,3706,left
6,1,binary,31,2,trial,9424639.0,9433489.0,8850.0,31,L,9425260,9425660,402,1408.1,489.1,3206,right
6,1,binary,31,2,trial,9424639.0,9433489.0,8850.0,31,L,9425672,9425908,238,1419.7,519.7,3110,right
6,1,binary,31,2,trial,9424639.0,9433489.0,8850.0,31,L,9426002,9426518,518,526.7,415.4,3283,left
6,1,binary,31,2,trial,9424639.0,9433489.0,8850.0,31,L,9426582,9427050,470,1406.8,512.5,3303,right
6,1,binary,31,2,trial,9424639.0,9433489.0,8850.0,31,L,9427068,9427606,540,1467.9,495.5,3272,right
6,1,binary,31,2,trial,9424639.0,9433489.0,8850.0,31,L,9427628,9427764,138,1354.8,524.5,3435,right
6,1,binary,31,2,trial,9424639.0,9433489.0,8850.0,31,L,9427822,9428250,430,540.9,443.1,3400,left
6,1,binary,31,2,trial,9424639.0,9433489.0,8850.0,31,L,9428268,9428346,80,552.7,420.8,3480,left
6,1,binary,31,2,trial,9424639.0,9433489.0,8850.0,31,L,9428414,9428570,158,1315.4,824.4,3512,NA
6,1,binary,31,2,trial,9424639.0,9433489.0,8850.0,31,L,9428626,9428864,240,1511.6,451.2,3389,right
6,1,binary,31,2,trial,9424639.0,9433489.0,8850.0,31,L,9428888,9429016,130,1367.7,480.1,3390,right
6,1,binary,31,2,trial,9424639.0,9433489.0,8850.0,31,L,9429080,9429512,434,600.2,438.0,3459,left
6,1,binary,31,2,trial,9424639.0,9433489.0,8850.0,31,L,9429574,9429830,258,1364.3,468.2,3517,right
6,1,binary,31,2,trial,9424639.0,9433489.0,8850.0,31,L,9429852,9430322,472,1381.2,522.7,3339,right
6,1,binary,31,2,trial,9424639.0,9433489.0,8850.0,31,L,9430344,9430688,346,1488.3,512.7,3285,right
6,1,binary,31,2,trial,9424639.0,9433489.0,8850.0,31,L,9430798,9431910,1114,536.5,430.4,3624,left
6,1,binary,31,2,trial,9424639.0,9433489.0,8850.0,31,L,9431970,9432278,310,1341.1,497.9,3460,right
6,1,binary,31,2,trial,9424639.0,9433489.0,8850.0,31,L,9432300,9432704,406,1405.7,527.0,3198,right
6,1,binary,31,2,trial,9424639.0,9433489.0,8850.0,31,L,9432722,9433176,456,1493.0,504.7,3191,right
6,1,binary,31,2,trial,9424639.0,9433489.0,8850.0,31,L,9433194,9433458,266,1440.7,508.3,3352,right
6,1,binary,31,2,trial,9424639.0,9433489.0,8850.0,31,L,9433480,9433710,232,1351.0,525.6,3401,right
6,1,binary,31,2,postResponse,9424639.0,9433489.0,8850.0,31,L,9433728,9433834,108,1199.5,477.3,3477,right
6,1,binary,32,1,fixationCross,9434206.0,9437490.0,3284.0,32,L,9433934,9433962,30,1144.0,462.6,3591,NA
6,1,binary,32,1,trial,9434206.0,9437490.0,3284.0,32,L,9434008,9434374,368,741.6,410.3,3831,NA
6,1,binary,32,1,trial,9434206.0,9437490.0,3284.0,32,L,9434414,9434836,424,550.4,488.9,3811,left
6,1,binary,32,1,trial,9434206.0,9437490.0,3284.0,32,L,9434930,9435610,682,1451.2,526.1,3381,right
6,1,binary,32,1,trial,9434206.0,9437490.0,3284.0,32,L,9435678,9436340,664,577.7,511.6,3727,left
6,1,binary,32,1,trial,9434206.0,9437490.0,3284.0,32,L,9436376,9436528,154,470.4,594.6,3630,left
6,1,binary,32,1,trial,9434206.0,9437490.0,3284.0,32,L,9436720,9437042,324,1431.6,509.8,3369,right
6,1,binary,32,1,trial,9434206.0,9437490.0,3284.0,32,L,9437114,9437698,586,541.2,524.6,3441,left
6,1,binary,32,1,trial,9434206.0,9437490.0,3284.0,32,L,9437712,9437766,56,523.6,485.4,3448,left
6,1,binary,32,1,postResponse,9434206.0,9437490.0,3284.0,32,L,9437776,9437836,62,575.9,499.0,3428,left
6,1,binary,33,1,fixationCross,9438205.0,9441506.0,3301.0,33,L,9437910,9437952,44,575.4,491.1,3455,left
6,1,binary,33,1,trial,9438205.0,9441506.0,3301.0,33,L,9437978,9438376,400,791.6,457.2,3552,NA
6,1,binary,33,1,trial,9438205.0,9441506.0,3301.0,33,L,9438406,9438758,354,555.6,513.4,3624,left
6,1,binary,33,1,trial,9438205.0,9441506.0,3301.0,33,L,9438958,9439200,244,498.2,484.5,3650,left
6,1,binary,33,1,trial,9438205.0,9441506.0,3301.0,33,L,9439224,9439488,266,628.7,453.2,3751,left
6,1,binary,33,1,trial,9438205.0,9441506.0,3301.0,33,L,9439542,9439862,322,1317.4,500.0,3434,right
6,1,binary,33,1,trial,9438205.0,9441506.0,3301.0,33,L,9439922,9440218,298,553.1,492.5,3324,left
6,1,binary,33,1,trial,9438205.0,9441506.0,3301.0,33,L,9440250,9440514,266,430.4,645.5,3534,left
6,1,binary,33,1,trial,9438205.0,9441506.0,3301.0,33,L,9440578,9440852,276,1322.5,530.2,3483,right
6,1,binary,33,1,trial,9438205.0,9441506.0,3301.0,33,L,9440872,9441124,254,1362.0,492.9,3280,right
6,1,binary,33,1,postResponse,9438205.0,9441506.0,3301.0,33,L,9441302,9441852,552,429.5,456.0,3410,left
6,1,binary,34,1,trial,9442222.0,9446189.0,3967.0,34,L,9441950,9442228,280,432.6,463.2,3650,left
6,1,binary,34,1,trial,9442222.0,9446189.0,3967.0,34,L,9442288,9442502,216,909.1,497.8,3683,NA
6,1,binary,34,1,trial,9442222.0,9446189.0,3967.0,34,L,9442550,9442800,252,1363.6,494.3,3529,right
6,1,binary,34,1,trial,9442222.0,9446189.0,3967.0,34,L,9442816,9443332,518,1399.2,476.4,3330,right
6,1,binary,34,1,trial,9442222.0,9446189.0,3967.0,34,L,9443360,9443604,246,1489.6,552.3,3224,right
6,1,binary,34,1,trial,9442222.0,9446189.0,3967.0,34,L,9443686,9444036,352,505.0,491.8,3429,left
6,1,binary,34,1,trial,9442222.0,9446189.0,3967.0,34,L,9444066,9444548,484,511.5,620.9,3340,left
6,1,binary,34,1,trial,9442222.0,9446189.0,3967.0,34,L,9444588,9444920,334,484.0,443.4,3259,left
6,1,binary,34,1,trial,9442222.0,9446189.0,3967.0,34,L,9444942,9445244,304,399.1,508.0,3306,left
6,1,binary,34,1,trial,9442222.0,9446189.0,3967.0,34,L,9445270,9445586,318,515.5,612.9,3297,left
6,1,binary,34,1,trial,9442222.0,9446189.0,3967.0,34,L,9445610,9446376,768,456.8,486.7,3263,left
6,1,binary,34,1,postResponse,9442222.0,9446189.0,3967.0,34,L,9446396,9446534,140,568.6,492.3,3265,left
6,1,binary,35,2,fixationCross,9446873.0,9452623.0,5750.0,35,L,9446610,9446764,156,608.3,502.9,3376,left
6,1,binary,35,2,trial,9446873.0,9452623.0,5750.0,35,L,9446800,9447036,238,742.2,468.0,3553,NA
6,1,binary,35,2,trial,9446873.0,9452623.0,5750.0,35,L,9447074,9447500,428,470.4,505.7,3552,left
6,1,binary,35,2,trial,9446873.0,9452623.0,5750.0,35,L,9447518,9448036,520,400.0,465.0,3447,left
6,1,binary,35,2,trial,9446873.0,9452623.0,5750.0,35,L,9448074,9448096,24,790.2,430.8,3545,NA
6,1,binary,35,2,trial,9446873.0,9452623.0,5750.0,35,L,9448118,9448208,92,955.7,461.2,3566,NA
6,1,binary,35,2,trial,9446873.0,9452623.0,5750.0,35,L,9448254,9448578,326,1450.7,526.1,3467,right
6,1,binary,35,2,trial,9446873.0,9452623.0,5750.0,35,L,9448602,9449594,994,1535.5,561.9,3537,right
6,1,binary,35,2,trial,9446873.0,9452623.0,5750.0,35,L,9449638,9449708,72,1291.1,472.2,3835,right
6,1,binary,35,2,trial,9446873.0,9452623.0,5750.0,35,L,9449872,9449932,62,830.9,436.0,3977,NA
6,1,binary,35,2,trial,9446873.0,9452623.0,5750.0,35,L,9449980,9450156,178,574.3,510.6,4079,left
6,1,binary,35,2,trial,9446873.0,9452623.0,5750.0,35,L,9450322,9450656,336,1485.3,546.0,3894,right
6,1,binary,35,2,trial,9446873.0,9452623.0,5750.0,35,L,9450668,9451146,480,1519.7,551.2,3601,right
6,1,binary,35,2,trial,9446873.0,9452623.0,5750.0,35,L,9451216,9451582,368,590.8,512.6,3828,left
6,1,binary,35,2,trial,9446873.0,9452623.0,5750.0,35,L,9451812,9452016,206,1486.2,576.9,3706,right
6,1,binary,35,2,trial,9446873.0,9452623.0,5750.0,35,L,9452034,9452572,540,1518.2,557.9,3631,right
6,1,binary,35,2,trial,9446873.0,9452623.0,5750.0,35,L,9452596,9452824,230,1362.5,532.8,3526,right
6,1,binary,36,2,trial,9453322.0,9461173.0,7851.0,36,L,9453044,9453376,334,707.2,559.4,4008,left
6,1,binary,36,2,trial,9453322.0,9461173.0,7851.0,36,L,9453410,9453530,122,909.7,535.8,4148,NA
6,1,binary,36,2,trial,9453322.0,9461173.0,7851.0,36,L,9453586,9453828,244,488.2,510.8,3907,left
6,1,binary,36,2,trial,9453322.0,9461173.0,7851.0,36,L,9453850,9454360,512,383.3,511.0,3426,left
6,1,binary,36,2,trial,9453322.0,9461173.0,7851.0,36,L,9454388,9454460,74,555.3,528.3,3566,left
6,1,binary,36,2,trial,9453322.0,9461173.0,7851.0,36,L,9454610,9455188,580,547.8,497.2,3493,left
6,1,binary,36,2,trial,9453322.0,9461173.0,7851.0,36,L,9455252,9455614,364,1316.3,542.3,3375,right
6,1,binary,36,2,trial,9453322.0,9461173.0,7851.0,36,L,9455636,9456544,910,1451.1,533.2,3443,right
6,1,binary,36,2,trial,9453322.0,9461173.0,7851.0,36,L,9456564,9456738,176,1329.0,526.2,3482,right
6,1,binary,36,2,trial,9453322.0,9461173.0,7851.0,36,L,9456814,9457342,530,474.7,526.1,3649,left
6,1,binary,36,2,trial,9453322.0,9461173.0,7851.0,36,L,9457354,9457512,160,426.6,526.6,3579,left
6,1,binary,36,2,trial,9453322.0,9461173.0,7851.0,36,L,9457576,9458072,498,1428.6,565.6,3430,right
6,1,binary,36,2,trial,9453322.0,9461173.0,7851.0,36,L,9458230,9458754,526,459.1,540.3,3548,left
6,1,binary,36,2,trial,9453322.0,9461173.0,7851.0,36,L,9458820,9459580,762,1389.8,580.0,3246,right
6,1,binary,36,2,trial,9453322.0,9461173.0,7851.0,36,L,9459676,9459956,282,376.8,540.1,3449,left
6,1,binary,36,2,trial,9453322.0,9461173.0,7851.0,36,L,9459974,9460502,530,472.6,531.7,3393,left
6,1,binary,36,2,trial,9453322.0,9461173.0,7851.0,36,L,9460572,9460814,244,1298.0,567.2,3240,right
6,1,binary,36,2,trial,9453322.0,9461173.0,7851.0,36,L,9460842,9461388,548,1472.2,553.8,3199,right
6,1,binary,36,2,postResponse,9453322.0,9461173.0,7851.0,36,L,9461426,9461508,84,1204.1,525.5,3272,right
6,1,binary,37,2,trial,9461873.0,9466389.0,4516.0,37,L,9461658,9461890,234,859.8,470.2,3475,NA
6,1,binary,37,2,trial,9461873.0,9466389.0,4516.0,37,L,9461910,9462086,178,772.1,532.2,3631,NA
6,1,binary,37,2,trial,9461873.0,9466389.0,4516.0,37,L,9462116,9462468,354,524.0,488.1,3551,left
6,1,binary,37,2,trial,9461873.0,9466389.0,4516.0,37,L,9462504,9462888,386,470.7,585.8,3407,left
6,1,binary,37,2,trial,9461873.0,9466389.0,4516.0,37,L,9462916,9463242,328,554.9,501.8,3419,left
6,1,binary,37,2,trial,9461873.0,9466389.0,4516.0,37,L,9463302,9463642,342,1383.5,499.9,3266,right
6,1,binary,37,2,trial,9461873.0,9466389.0,4516.0,37,L,9463660,9463840,182,1440.4,478.4,3297,right
6,1,binary,37,2,trial,9461873.0,9466389.0,4516.0,37,L,9464034,9464192,160,1521.1,550.0,3219,right
6,1,binary,37,2,trial,9461873.0,9466389.0,4516.0,37,L,9464262,9464746,486,538.7,504.5,3429,left
6,1,binary,37,2,trial,9461873.0,9466389.0,4516.0,37,L,9464802,9465156,356,1307.4,479.6,3184,right
6,1,binary,37,2,trial,9461873.0,9466389.0,4516.0,37,L,9465178,9465660,484,1462.5,462.7,3253,right
6,1,binary,37,2,trial,9461873.0,9466389.0,4516.0,37,L,9465670,9465818,150,1431.3,459.7,3261,right
6,1,binary,37,2,trial,9461873.0,9466389.0,4516.0,37,L,9465850,9466286,438,1656.7,596.8,3221,right
6,1,binary,37,2,postResponse,9461873.0,9466389.0,4516.0,37,L,9466330,9466734,406,1317.8,432.6,3246,right
6,1,binary,38,2,fixationCross,9467090.0,9470756.0,3666.0,38,L,9466834,9466942,110,1106.5,460.9,3499,NA
6,1,binary,38,2,trial,9467090.0,9470756.0,3666.0,38,L,9466988,9467270,284,805.6,542.0,3742,NA
6,1,binary,38,2,trial,9467090.0,9470756.0,3666.0,38,L,9467306,9467650,346,583.3,516.7,3710,left
6,1,binary,38,2,trial,9467090.0,9470756.0,3666.0,38,L,9467706,9468042,338,1343.3,508.4,3325,right
6,1,binary,38,2,trial,9467090.0,9470756.0,3666.0,38,L,9468066,9468256,192,1481.7,485.2,3332,right
6,1,binary,38,2,trial,9467090.0,9470756.0,3666.0,38,L,9468480,9468970,492,1436.8,545.8,3242,right
6,1,binary,38,2,trial,9467090.0,9470756.0,3666.0,38,L,9469044,9469356,314,598.5,539.7,3263,left
6,1,binary,38,2,trial,9467090.0,9470756.0,3666.0,38,L,9469378,9469706,330,636.6,454.4,3210,left
6,1,binary,38,2,trial,9467090.0,9470756.0,3666.0,38,L,9469740,9469850,112,503.7,590.5,3225,left
6,1,binary,38,2,trial,9467090.0,9470756.0,3666.0,38,L,9469916,9470344,430,1376.8,510.2,3185,right
6,1,binary,38,2,trial,9467090.0,9470756.0,3666.0,38,L,9470368,9470930,564,1494.3,479.8,3243,right
6,1,binary,38,2,trial,9467090.0,9470756.0,3666.0,38,L,9470958,9471006,50,1378.3,450.2,3260,right
6,1,binary,38,2,postResponse,9467090.0,9470756.0,3666.0,38,L,9471024,9471102,80,1258.2,500.3,3291,right
6,1,binary,39,1,fixationCross,9471472.0,9477357.0,5885.0,39,L,9471212,9471454,244,972.7,485.0,3374,NA
6,1,binary,39,1,trial,9471472.0,9477357.0,5885.0,39,L,9471476,9471646,172,857.2,480.1,3496,NA
6,1,binary,39,1,trial,9471472.0,9477357.0,5885.0,39,L,9471698,9471992,296,501.5,486.5,3568,left
6,1,binary,39,1,trial,9471472.0,9477357.0,5885.0,39,L,9472014,9472262,250,498.3,445.5,3446,left
6,1,binary,39,1,trial,9471472.0,9477357.0,5885.0,39,L,9472280,9472398,120,469.9,486.9,3367,left
6,1,binary,39,1,trial,9471472.0,9477357.0,5885.0,39,L,9472592,9473092,502,556.8,528.4,3441,left
6,1,binary,39,1,trial,9471472.0,9477357.0,5885.0,39,L,9473118,9473646,530,421.9,520.5,3431,left
6,1,binary,39,1,trial,9471472.0,9477357.0,5885.0,39,L,9473670,9474270,602,488.5,459.9,3449,left
6,1,binary,39,1,trial,9471472.0,9477357.0,5885.0,39,L,9474340,9475164,826,1407.6,551.6,3311,right
6,1,binary,39,1,trial,9471472.0,9477357.0,5885.0,39,L,9475238,9475762,526,439.1,533.9,3557,left
6,1,binary,39,1,trial,9471472.0,9477357.0,5885.0,39,L,9475848,9476360,514,1380.9,548.6,3365,right
6,1,binary,39,1,trial,9471472.0,9477357.0,5885.0,39,L,9476386,9476788,404,1430.7,509.5,3359,right
6,1,binary,39,1,trial,9471472.0,9477357.0,5885.0,39,L,9476814,9476992,180,1410.0,586.0,3433,right
6,1,binary,39,1,postResponse,9471472.0,9477357.0,5885.0,39,L,9477074,9477702,630,495.0,519.1,3523,left
6,1,binary,40,2,trial,9478073.0,9482956.0,4883.0,40,L,9477808,9478304,498,674.5,471.5,3649,left
6,1,binary,40,2,trial,9478073.0,9482956.0,4883.0,40,L,9478334,9478634,302,507.4,525.5,3485,left
6,1,binary,40,2,trial,9478073.0,9482956.0,4883.0,40,L,9478654,9478824,172,405.9,563.6,3201,left
6,1,binary,40,2,trial,9478073.0,9482956.0,4883.0,40,L,9478894,9479062,170,1482.0,513.7,2999,right
6,1,binary,40,2,trial,9478073.0,9482956.0,4883.0,40,L,9479084,9479816,734,1582.0,543.0,3108,right
6,1,binary,40,2,trial,9478073.0,9482956.0,4883.0,40,L,9479896,9480216,322,491.1,510.5,3367,left
6,1,binary,40,2,trial,9478073.0,9482956.0,4883.0,40,L,9480240,9480606,368,416.4,565.8,3293,left
6,1,binary,40,2,trial,9478073.0,9482956.0,4883.0,40,L,9480814,9481152,340,394.2,502.2,3335,left
6,1,binary,40,2,trial,9478073.0,9482956.0,4883.0,40,L,9481178,9481346,170,454.5,541.4,3392,left
6,1,binary,40,2,trial,9478073.0,9482956.0,4883.0,40,L,9481432,9481664,234,1543.4,522.1,3144,right
6,1,binary,40,2,trial,9478073.0,9482956.0,4883.0,40,L,9481676,9481896,222,1572.6,540.4,3176,right
6,1,binary,40,2,trial,9478073.0,9482956.0,4883.0,40,L,9481924,9482616,694,1363.3,582.5,3401,right
6,1,binary,40,2,trial,9478073.0,9482956.0,4883.0,40,L,9482628,9482814,188,1325.3,578.9,3497,right
6,1,binary,40,2,trial,9478073.0,9482956.0,4883.0,40,L,9482888,9483210,324,471.0,557.5,3696,left
6,1,binary,41,2,trial,9483640.0,9489057.0,5417.0,41,L,9483380,9483678,300,1417.5,534.5,3565,right
6,1,binary,41,2,trial,9483640.0,9489057.0,5417.0,41,L,9483718,9483872,156,940.4,568.4,3877,NA
6,1,binary,41,2,trial,9483640.0,9489057.0,5417.0,41,L,9483920,9484072,154,531.2,518.9,3868,left
6,1,binary,41,2,trial,9483640.0,9489057.0,5417.0,41,L,9484098,9485062,966,405.4,551.0,3781,left
6,1,binary,41,2,trial,9483640.0,9489057.0,5417.0,41,L,9485094,9485368,276,483.3,553.4,3864,left
6,1,binary,41,2,trial,9483640.0,9489057.0,5417.0,41,L,9485388,9485706,320,383.2,551.4,3782,left
6,1,binary,41,2,trial,9483640.0,9489057.0,5417.0,41,L,9485718,9486450,734,412.7,544.0,3760,left
6,1,binary,41,2,trial,9483640.0,9489057.0,5417.0,41,L,9486462,9486928,468,361.0,539.1,3739,left
6,1,binary,41,2,trial,9483640.0,9489057.0,5417.0,41,L,9487116,9487454,340,1455.4,510.2,3526,right
6,1,binary,41,2,trial,9483640.0,9489057.0,5417.0,41,L,9487466,9487568,104,1507.5,497.8,3572,right
6,1,binary,41,2,trial,9483640.0,9489057.0,5417.0,41,L,9487638,9487914,278,454.6,546.2,3666,left
6,1,binary,41,2,trial,9483640.0,9489057.0,5417.0,41,L,9487934,9488350,418,372.0,556.9,3574,left
6,1,binary,41,2,trial,9483640.0,9489057.0,5417.0,41,L,9488434,9489034,602,1465.2,553.4,3421,right
6,1,binary,41,2,postResponse,9483640.0,9489057.0,5417.0,41,L,9489062,9489402,342,1560.9,480.4,3469,right
6,1,binary,42,2,fixationCross,9489740.0,9495257.0,5517.0,42,L,9489494,9489634,142,890.4,434.9,3778,NA
6,1,binary,42,2,trial,9489740.0,9495257.0,5517.0,42,L,9489670,9490198,530,655.1,494.3,3927,left
6,1,binary,42,2,trial,9489740.0,9495257.0,5517.0,42,L,9490254,9490592,340,1420.1,542.7,3372,right
6,1,binary,42,2,trial,9489740.0,9495257.0,5517.0,42,L,9490614,9491328,716,1289.2,565.3,3315,right
6,1,binary,42,2,trial,9489740.0,9495257.0,5517.0,42,L,9491394,9491770,378,557.6,512.3,3429,left
6,1,binary,42,2,trial,9489740.0,9495257.0,5517.0,42,L,9491796,9492230,436,407.1,590.3,3391,left
6,1,binary,42,2,trial,9489740.0,9495257.0,5517.0,42,L,9492256,9492682,428,495.2,521.7,3363,left
6,1,binary,42,2,trial,9489740.0,9495257.0,5517.0,42,L,9492748,9493258,512,1322.9,523.2,3195,right
6,1,binary,42,2,trial,9489740.0,9495257.0,5517.0,42,L,9493292,9494374,1084,1435.8,545.5,3192,right
6,1,binary,42,2,trial,9489740.0,9495257.0,5517.0,42,L,9494454,9494804,352,405.5,566.2,3493,left
6,1,binary,42,2,trial,9489740.0,9495257.0,5517.0,42,L,9494830,9494996,168,598.6,454.9,3423,left
6,1,binary,42,2,trial,9489740.0,9495257.0,5517.0,42,L,9495050,9495554,506,1372.5,490.6,3284,right
6,1,binary,42,2,postResponse,9489740.0,9495257.0,5517.0,42,L,9495572,9495604,34,1331.4,493.3,3306,right
6,1,binary,43,1,trial,9495990.0,9498640.0,2650.0,43,L,9495710,9496152,444,867.1,469.6,3517,NA
6,1,binary,43,1,trial,9495990.0,9498640.0,2650.0,43,L,9496196,9496452,258,429.3,544.7,3680,left
6,1,binary,43,1,trial,9495990.0,9498640.0,2650.0,43,L,9496472,9496854,384,404.8,457.4,3335,left
6,1,binary,43,1,trial,9495990.0,9498640.0,2650.0,43,L,9496918,9497246,330,1324.6,536.9,3135,right
6,1,binary,43,1,trial,9495990.0,9498640.0,2650.0,43,L,9497278,9497634,358,1232.4,636.9,3065,right
6,1,binary,43,1,trial,9495990.0,9498640.0,2650.0,43,L,9497700,9498114,416,430.2,481.7,3325,left
6,1,binary,43,1,postResponse,9495990.0,9498640.0,2650.0,43,L,9498134,9498986,854,419.0,471.9,3400,left
6,1,binary,44,2,fixationCross,9499323.0,9504307.0,4984.0,44,L,9499062,9499262,202,585.2,435.6,3565,left
6,1,binary,44,2,trial,9499323.0,9504307.0,4984.0,44,L,9499314,9499528,216,798.7,461.1,3646,NA
6,1,binary,44,2,trial,9499323.0,9504307.0,4984.0,44,L,9499592,9499926,336,1350.6,480.5,3463,right
6,1,binary,44,2,trial,9499323.0,9504307.0,4984.0,44,L,9499950,9500220,272,1497.2,492.3,3248,right
6,1,binary,44,2,trial,9499323.0,9504307.0,4984.0,44,L,9500300,9500666,368,484.1,515.2,3346,left
6,1,binary,44,2,trial,9499323.0,9504307.0,4984.0,44,L,9500680,9501070,392,477.7,480.2,3352,left
6,1,binary,44,2,trial,9499323.0,9504307.0,4984.0,44,L,9501108,9501530,424,451.4,609.3,3414,left
6,1,binary,44,2,trial,9499323.0,9504307.0,4984.0,44,L,9501566,9501808,244,431.5,418.8,3373,left
6,1,binary,44,2,trial,9499323.0,9504307.0,4984.0,44,L,9501872,9502182,312,1400.8,501.9,3266,right
6,1,binary,44,2,trial,9499323.0,9504307.0,4984.0,44,L,9502202,9502766,566,1424.0,446.7,3136,right
6,1,binary,44,2,trial,9499323.0,9504307.0,4984.0,44,L,9502788,9503140,354,1450.0,532.5,3126,right
6,1,binary,44,2,trial,9499323.0,9504307.0,4984.0,44,L,9503218,9503782,566,471.8,497.1,3254,left
6,1,binary,44,2,trial,9499323.0,9504307.0,4984.0,44,L,9503810,9504150,342,483.0,596.4,3366,left
6,1,binary,44,2,trial,9499323.0,9504307.0,4984.0,44,L,9504216,9504446,232,1376.6,784.8,3285,NA
6,1,binary,44,2,postResponse,9499323.0,9504307.0,4984.0,44,L,9504508,9504652,146,1051.8,494.9,3349,NA
6,1,binary,45,2,fixationCross,9505057.0,9510057.0,5000.0,45,L,9504752,9504772,22,995.9,476.8,3359,NA
6,1,binary,45,2,trial,9505057.0,9510057.0,5000.0,45,L,9504990,9505216,228,828.8,470.8,3540,NA
6,1,binary,45,2,trial,9505057.0,9510057.0,5000.0,45,L,9505238,9505378,142,968.7,472.9,3577,NA
6,1,binary,45,2,trial,9505057.0,9510057.0,5000.0,45,L,9505438,9505768,332,458.4,465.0,3334,left
6,1,binary,45,2,trial,9505057.0,9510057.0,5000.0,45,L,9505788,9506072,286,543.2,431.0,3188,left
6,1,binary,45,2,trial,9505057.0,9510057.0,5000.0,45,L,9506138,9506570,434,1475.0,485.0,3167,right
6,1,binary,45,2,trial,9505057.0,9510057.0,5000.0,45,L,9506592,9507318,728,1361.8,481.3,3331,right
6,1,binary,45,2,trial,9505057.0,9510057.0,5000.0,45,L,9507386,9507988,604,497.1,467.3,3771,left
6,1,binary,45,2,trial,9505057.0,9510057.0,5000.0,45,L,9508080,9509166,1088,1428.2,514.4,3397,right
6,1,binary,45,2,trial,9505057.0,9510057.0,5000.0,45,L,9509190,9509692,504,1404.2,471.1,3435,right
6,1,binary,45,2,trial,9505057.0,9510057.0,5000.0,45,L,9509712,9510300,590,1410.1,520.7,3337,right
6,1,binary,45,2,postResponse,9505057.0,9510057.0,5000.0,45,L,9510320,9510406,88,1367.8,518.2,3383,right
6,1,binary,46,1,fixationCross,9510757.0,9519140.0,8383.0,46,L,9510482,9510568,88,1341.8,514.2,3483,right
6,1,binary,46,1,trial,9510757.0,9519140.0,8383.0,46,L,9510612,9510886,276,968.7,522.2,3756,NA
6,1,binary,46,1,trial,9510757.0,9519140.0,8383.0,46,L,9510924,9511184,262,628.8,474.0,3826,left
6,1,binary,46,1,trial,9510757.0,9519140.0,8383.0,46,L,9511212,9511396,186,458.3,521.4,3517,left
6,1,binary,46,1,trial,9510757.0,9519140.0,8383.0,46,L,9511458,9512116,660,1379.3,576.0,3299,right
6,1,binary,46,1,trial,9510757.0,9519140.0,8383.0,46,L,9512128,9512248,122,1424.0,575.3,3418,right
6,1,binary,46,1,trial,9510757.0,9519140.0,8383.0,46,L,9512326,9512632,308,511.2,499.9,3582,left
6,1,binary,46,1,trial,9510757.0,9519140.0,8383.0,46,L,9512652,9513138,488,470.9,439.5,3511,left
6,1,binary,46,1,trial,9510757.0,9519140.0,8383.0,46,L,9513172,9513478,308,342.0,509.0,3620,left
6,1,binary,46,1,trial,9510757.0,9519140.0,8383.0,46,L,9513512,9514364,854,436.4,443.8,3605,left
6,1,binary,46,1,trial,9510757.0,9519140.0,8383.0,46,L,9514400,9514628,230,442.6,571.7,3580,left
6,1,binary,46,1,trial,9510757.0,9519140.0,8383.0,46,L,9514684,9514916,234,432.1,883.3,3669,NA
6,1,binary,46,1,trial,9510757.0,9519140.0,8383.0,46,L,9514946,9515128,184,479.7,986.9,3692,NA
6,1,binary,46,1,trial,9510757.0,9519140.0,8383.0,46,L,9515186,9515494,310,426.1,495.9,3729,left
6,1,binary,46,1,trial,9510757.0,9519140.0,8383.0,46,L,9515514,9515738,226,464.2,462.1,3666,left
6,1,binary,46,1,trial,9510757.0,9519140.0,8383.0,46,L,9515804,9516240,438,1367.9,551.3,3369,right
6,1,binary,46,1,trial,9510757.0,9519140.0,8383.0,46,L,9516264,9516876,614,1533.5,594.9,3284,right
6,1,binary,46,1,trial,9510757.0,9519140.0,8383.0,46,L,9516904,9517032,130,1293.8,605.4,3416,right
6,1,binary,46,1,trial,9510757.0,9519140.0,8383.0,46,L,9517096,9517346,252,511.1,467.4,3560,left
6,1,binary,46,1,trial,9510757.0,9519140.0,8383.0,46,L,9517370,9517704,336,444.0,446.8,3476,left
6,1,binary,46,1,trial,9510757.0,9519140.0,8383.0,46,L,9517728,9518136,410,370.4,510.0,3371,left
6,1,binary,46,1,trial,9510757.0,9519140.0,8383.0,46,L,9518158,9518912,756,412.9,438.2,3386,left
6,1,binary,46,1,trial,9510757.0,9519140.0,8383.0,46,L,9518922,9519372,452,432.1,429.9,3368,left
6,1,binary,46,1,postResponse,9510757.0,9519140.0,8383.0,46,L,9519396,9519484,90,609.8,451.4,3382,left
6,1,binary,47,1,trial,9519840.0,9526974.0,7134.0,47,L,9519560,9519978,420,757.4,455.9,3524,NA
6,1,binary,47,1,trial,9519840.0,9526974.0,7134.0,47,L,9520024,9520158,136,1089.4,460.7,3612,NA
6,1,binary,47,1,trial,9519840.0,9526974.0,7134.0,47,L,9520192,9520550,360,1390.6,482.7,3302,right
6,1,binary,47,1,trial,9519840.0,9526974.0,7134.0,47,L,9520570,9520764,196,1470.5,470.4,3152,right
6,1,binary,47,1,trial,9519840.0,9526974.0,7134.0,47,L,9520790,9520932,144,1615.9,553.0,3057,right
6,1,binary,47,1,trial,9519840.0,9526974.0,7134.0,47,L,9521180,9521400,222,1526.9,512.4,2964,right
6,1,binary,47,1,trial,9519840.0,9526974.0,7134.0,47,L,9521424,9521590,168,1447.1,446.7,3076,right
6,1,binary,47,1,trial,9519840.0,9526974.0,7134.0,47,L,9521652,9521960,310,582.3,463.8,3121,left
6,1,binary,47,1,trial,9519840.0,9526974.0,7134.0,47,L,9521988,9522320,334,427.6,507.7,3221,left
6,1,binary,47,1,trial,9519840.0,9526974.0,7134.0,47,L,9522346,9522524,180,643.8,523.6,3239,left
6,1,binary,47,1,trial,9519840.0,9526974.0,7134.0,47,L,9522580,9522954,376,1431.0,494.5,3161,right
6,1,binary,47,1,trial,9519840.0,9526974.0,7134.0,47,L,9522984,9523276,294,1589.6,564.0,3077,right
6,1,binary,47,1,trial,9519840.0,9526974.0,7134.0,47,L,9523584,9523788,206,1563.0,464.0,3007,right
6,1,binary,47,1,trial,9519840.0,9526974.0,7134.0,47,L,9523808,9524176,370,1452.9,442.7,3128,right
6,1,binary,47,1,trial,9519840.0,9526974.0,7134.0,47,L,9524216,9524476,262,1625.2,581.3,3003,right
6,1,binary,47,1,trial,9519840.0,9526974.0,7134.0,47,L,9524556,9525124,570,482.5,505.6,3176,left
6,1,binary,47,1,trial,9519840.0,9526974.0,7134.0,47,L,9525156,9525528,374,564.0,422.0,3292,left
6,1,binary,47,1,trial,9519840.0,9526974.0,7134.0,47,L,9525556,9525964,410,628.1,541.9,3471,left
6,1,binary,47,1,trial,9519840.0,9526974.0,7134.0,47,L,9526026,9526332,308,1362.2,484.2,3397,right
6,1,binary,47,1,trial,9519840.0,9526974.0,7134.0,47,L,9526354,9526636,284,1495.3,468.6,3244,right
6,1,binary,47,1,trial,9519840.0,9526974.0,7134.0,47,L,9526700,9527238,540,565.7,519.7,3303,left
6,1,binary,47,1,postResponse,9519840.0,9526974.0,7134.0,47,L,9527262,9527318,58,709.3,457.0,3383,left
6,1,binary,48,1,fixationCross,9527657.0,9535574.0,7917.0,48,L,9527394,9527608,216,760.8,426.3,3444,NA
6,1,binary,48,1,trial,9527657.0,9535574.0,7917.0,48,L,9527630,9527840,212,775.9,502.4,3550,NA
6,1,binary,48,1,trial,9527657.0,9535574.0,7917.0,48,L,9527888,9528298,412,518.4,492.3,3506,left
6,1,binary,48,1,trial,9527657.0,9535574.0,7917.0,48,L,9528322,9528470,150,514.7,392.3,3370,left
6,1,binary,48,1,trial,9527657.0,9535574.0,7917.0,48,L,9528530,9529136,608,1348.9,498.7,3324,right
6,1,binary,48,1,trial,9527657.0,9535574.0,7917.0,48,L,9529174,9529512,340,1514.9,479.1,3354,right
6,1,binary,48,1,trial,9527657.0,9535574.0,7917.0,48,L,9529586,9530146,562,568.6,492.4,3570,left
6,1,binary,48,1,trial,9527657.0,9535574.0,7917.0,48,L,9530216,9530462,248,1316.4,470.0,3419,right
6,1,binary,48,1,trial,9527657.0,9535574.0,7917.0,48,L,9530494,9530824,332,1563.4,516.2,3380,right
6,1,binary,48,1,trial,9527657.0,9535574.0,7917.0,48,L,9530856,9531142,288,1519.7,630.1,3423,right
6,1,binary,48,1,trial,9527657.0,9535574.0,7917.0,48,L,9531182,9531540,360,1343.2,521.1,3461,right
6,1,binary,48,1,trial,9527657.0,9535574.0,7917.0,48,L,9531554,9531750,198,1382.7,502.5,3537,right
6,1,binary,48,1,trial,9527657.0,9535574.0,7917.0,48,L,9531772,9532102,332,1495.6,460.2,3587,right
6,1,binary,48,1,trial,9527657.0,9535574.0,7917.0,48,L,9532134,9532514,382,1345.6,537.9,3659,right
6,1,binary,48,1,trial,9527657.0,9535574.0,7917.0,48,L,9532584,9532892,310,529.8,476.7,3753,left
6,1,binary,48,1,trial,9527657.0,9535574.0,7917.0,48,L,9532954,9533572,620,1359.2,542.6,3583,right
6,1,binary,48,1,trial,9527657.0,9535574.0,7917.0,48,L,9533602,9533858,258,1521.7,597.7,3484,right
6,1,binary,48,1,trial,9527657.0,9535574.0,7917.0,48,L,9533884,9534180,298,1358.5,532.0,3427,right
6,1,binary,48,1,trial,9527657.0,9535574.0,7917.0,48,L,9534210,9534434,226,1360.3,433.8,3305,right
6,1,binary,48,1,trial,9527657.0,9535574.0,7917.0,48,L,9534456,9534778,324,1514.5,454.9,3283,right
6,1,binary,48,1,trial,9527657.0,9535574.0,7917.0,48,L,9534818,9535054,238,1302.8,438.2,3389,right
6,1,binary,48,1,trial,9527657.0,9535574.0,7917.0,48,L,9535126,9535552,428,615.8,465.6,3556,left
6,1,binary,48,1,trial,9527657.0,9535574.0,7917.0,48,L,9535582,9535792,212,436.8,503.4,3564,left
6,1,binary,48,1,postResponse,9527657.0,9535574.0,7917.0,48,L,9535818,9535906,90,587.7,493.6,3577,left
6,1,binary,49,1,trial,9536257.0,9544241.0,7984.0,49,L,9535980,9536448,470,706.0,459.9,3738,left
6,1,binary,49,1,trial,9536257.0,9544241.0,7984.0,49,L,9536478,9536830,354,502.2,557.9,3696,left
6,1,binary,49,1,trial,9536257.0,9544241.0,7984.0,49,L,9536848,9537174,328,576.9,535.6,3366,left
6,1,binary,49,1,trial,9536257.0,9544241.0,7984.0,49,L,9537244,9537742,500,1413.5,590.9,3161,right
6,1,binary,49,1,trial,9536257.0,9544241.0,7984.0,49,L,9537762,9538198,438,1502.0,572.9,3115,right
6,1,binary,49,1,trial,9536257.0,9544241.0,7984.0,49,L,9538254,9538392,140,1410.7,899.1,3283,NA
6,1,binary,49,1,trial,9536257.0,9544241.0,7984.0,49,L,9538470,9538678,210,518.6,970.4,3449,NA
6,1,binary,49,1,trial,9536257.0,9544241.0,7984.0,49,L,9538738,9539070,334,493.2,562.3,3559,left
6,1,binary,49,1,trial,9536257.0,9544241.0,7984.0,49,L,9539088,9539526,440,574.5,549.0,3531,left
6,1,binary,49,1,trial,9536257.0,9544241.0,7984.0,49,L,9539550,9539734,186,457.9,527.4,3433,left
6,1,binary,49,1,trial,9536257.0,9544241.0,7984.0,49,L,9539758,9540148,392,462.1,396.0,3476,left
6,1,binary,49,1,trial,9536257.0,9544241.0,7984.0,49,L,9540208,9540490,284,1263.3,551.8,3439,right
6,1,binary,49,1,trial,9536257.0,9544241.0,7984.0,49,L,9540536,9540806,272,1529.8,585.8,3258,right
6,1,binary,49,1,trial,9536257.0,9544241.0,7984.0,49,L,9540834,9540906,74,1290.0,632.2,3269,right
6,1,binary,49,1,trial,9536257.0,9544241.0,7984.0,49,L,9541090,9541796,708,485.8,547.2,3530,left
6,1,binary,49,1,trial,9536257.0,9544241.0,7984.0,49,L,9541828,9542050,224,387.6,647.6,3390,left
6,1,binary,49,1,trial,9536257.0,9544241.0,7984.0,49,L,9542116,9542474,360,1289.1,619.3,3285,right
6,1,binary,49,1,trial,9536257.0,9544241.0,7984.0,49,L,9542514,9542786,274,1541.1,579.6,3153,right
6,1,binary,49,1,trial,9536257.0,9544241.0,7984.0,49,L,9542994,9543630,638,499.9,563.5,3335,left
6,1,binary,49,1,trial,9536257.0,9544241.0,7984.0,49,L,9543662,9544460,800,382.8,642.3,3317,left
6,1,binary,49,1,postResponse,9536257.0,9544241.0,7984.0,49,L,9544476,9544584,110,443.8,637.0,3344,left
6,1,binary,50,2,fixationCross,9544957.0,9550608.0,5651.0,50,L,9544692,9544862,172,692.1,429.0,3377,left
6,1,binary,50,2,trial,9544957.0,9550608.0,5651.0,50,L,9544888,9545236,350,587.3,498.0,3571,left
6,1,binary,50,2,trial,9544957.0,9550608.0,5651.0,50,L,9545262,9545724,464,493.1,506.7,3448,left
6,1,binary,50,2,trial,9544957.0,9550608.0,5651.0,50,L,9545822,9546086,266,1384.3,515.5,3131,right
6,1,binary,50,2,trial,9544957.0,9550608.0,5651.0,50,L,9546110,9546678,570,1366.1,438.2,3206,right
6,1,binary,50,2,trial,9544957.0,9550608.0,5651.0,50,L,9546706,9547036,332,1462.6,531.0,3233,right
6,1,binary,50,2,trial,9544957.0,9550608.0,5651.0,50,L,9547242,9547320,80,1384.9,934.3,3338,NA
6,1,binary,50,2,trial,9544957.0,9550608.0,5651.0,50,L,9547400,9547642,244,511.4,574.3,3487,left
6,1,binary,50,2,trial,9544957.0,9550608.0,5651.0,50,L,9547666,9548226,562,486.3,469.0,3289,left
6,1,binary,50,2,trial,9544957.0,9550608.0,5651.0,50,L,9548258,9548636,380,494.9,565.4,3201,left
6,1,binary,50,2,trial,9544957.0,9550608.0,5651.0,50,L,9548660,9549006,348,482.7,471.4,3213,left
6,1,binary,50,2,trial,9544957.0,9550608.0,5651.0,50,L,9549074,9549300,228,1357.0,492.7,3165,right
6,1,binary,50,2,trial,9544957.0,9550608.0,5651.0,50,L,9549320,9549650,332,1353.7,437.3,3187,right
6,1,binary,50,2,trial,9544957.0,9550608.0,5651.0,50,L,9549714,9550468,756,487.0,501.4,3369,left
6,1,binary,50,2,trial,9544957.0,9550608.0,5651.0,50,L,9550546,9550774,230,1431.6,853.0,3296,NA
6,1,binary,50,2,postResponse,9544957.0,9550608.0,5651.0,50,L,9550852,9550958,108,817.2,526.5,3454,NA
6,2,continuous,1,80,fixationCross,9664625.0,9671743.0,7118.0,51,L,9664329,9664595,268,921.0,621.1,3893,NA
6,2,continuous,1,80,trial,9664625.0,9671743.0,7118.0,51,L,9664649,9664815,168,912.0,420.4,3879,NA
6,2,continuous,1,80,trial,9664625.0,9671743.0,7118.0,51,L,9664861,9664969,110,501.9,479.7,3956,left
6,2,continuous,1,80,trial,9664625.0,9671743.0,7118.0,51,L,9665155,9665361,208,437.0,551.9,3574,left
6,2,continuous,1,80,trial,9664625.0,9671743.0,7118.0,51,L,9665387,9665601,216,579.3,489.1,3492,left
6,2,continuous,1,80,trial,9664625.0,9671743.0,7118.0,51,L,9665647,9665759,114,753.6,1009.6,3368,likertHorizontal
6,2,continuous,1,80,trial,9664625.0,9671743.0,7118.0,51,L,9665785,9666043,260,542.1,971.7,3293,NA
6,2,continuous,1,80,trial,9664625.0,9671743.0,7118.0,51,L,9666103,9666223,122,1438.3,1010.5,3269,NA
6,2,continuous,1,80,trial,9664625.0,9671743.0,7118.0,51,L,9666285,9666783,500,1414.1,586.4,3311,right
6,2,continuous,1,80,trial,9664625.0,9671743.0,7118.0,51,L,9666951,9667129,180,1481.3,522.8,3083,right
6,2,continuous,1,80,trial,9664625.0,9671743.0,7118.0,51,L,9667189,9667603,416,576.9,480.8,3243,left
6,2,continuous,1,80,trial,9664625.0,9671743.0,7118.0,51,L,9667619,9668075,458,620.4,441.2,3212,left
6,2,continuous,1,80,trial,9664625.0,9671743.0,7118.0,51,L,9668113,9668395,284,416.4,518.6,3263,left
6,2,continuous,1,80,trial,9664625.0,9671743.0,7118.0,51,L,9668463,9668855,394,1417.5,575.5,3189,right
6,2,continuous,1,80,trial,9664625.0,9671743.0,7118.0,51,L,9668873,9669143,272,1482.6,580.3,3154,right
6,2,continuous,1,80,trial,9664625.0,9671743.0,7118.0,51,L,9669181,9669571,392,1376.7,455.2,3171,right
6,2,continuous,1,80,trial,9664625.0,9671743.0,7118.0,51,L,9669605,9670225,622,1454.3,614.3,3200,right
6,2,continuous,1,80,trial,9664625.0,9671743.0,7118.0,51,L,9670285,9670765,482,1147.0,936.6,3397,likertHorizontal
6,2,continuous,1,80,trial,9664625.0,9671743.0,7118.0,51,L,9670783,9670979,198,1216.6,944.2,3410,NA
6,2,continuous,1,80,trial,9664625.0,9671743.0,7118.0,51,L,9671047,9671335,290,573.7,471.9,3564,left
6,2,continuous,1,80,trial,9664625.0,9671743.0,7118.0,51,L,9671419,9671695,278,1238.8,919.7,3478,NA
6,2,continuous,1,80,trial,9664625.0,9671743.0,7118.0,51,L,9671749,9671945,198,598.7,991.8,3509,NA
6,2,continuous,1,80,postResponse,9664625.0,9671743.0,7118.0,51,L,9672019,9672091,74,736.5,558.5,3478,left
6,2,continuous,2,28,fixationCross,9672459.0,9680943.0,8484.0,52,L,9672203,9672205,4,844.3,495.8,3512,NA
6,2,continuous,2,28,fixationCross,9672459.0,9680943.0,8484.0,52,L,9672239,9672417,180,967.1,397.6,3594,NA
6,2,continuous,2,28,trial,9672459.0,9680943.0,8484.0,52,L,9672579,9672715,138,884.3,504.2,3812,NA
6,2,continuous,2,28,trial,9672459.0,9680943.0,8484.0,52,L,9672767,9673091,326,1413.6,512.1,3655,right
6,2,continuous,2,28,trial,9672459.0,9680943.0,8484.0,52,L,9673113,9673539,428,1570.3,494.2,3208,right
6,2,continuous,2,28,trial,9672459.0,9680943.0,8484.0,52,L,9673607,9673893,288,553.0,472.5,3295,left
6,2,continuous,2,28,trial,9672459.0,9680943.0,8484.0,52,L,9673923,9674191,270,629.1,572.8,3280,left
6,2,continuous,2,28,trial,9672459.0,9680943.0,8484.0,52,L,9674231,9674293,64,329.4,468.5,3246,left
6,2,continuous,2,28,trial,9672459.0,9680943.0,8484.0,52,L,9674467,9674797,332,299.3,447.4,3235,left
6,2,continuous,2,28,trial,9672459.0,9680943.0,8484.0,52,L,9674825,9675245,422,457.1,482.9,3210,left
6,2,continuous,2,28,trial,9672459.0,9680943.0,8484.0,52,L,9675473,9675883,412,593.3,495.9,3194,left
6,2,continuous,2,28,trial,9672459.0,9680943.0,8484.0,52,L,9675913,9676139,228,612.3,639.6,3306,left
6,2,continuous,2,28,trial,9672459.0,9680943.0,8484.0,52,L,9676215,9676489,276,1515.9,516.3,3100,right
6,2,continuous,2,28,trial,9672459.0,9680943.0,8484.0,52,L,9676509,9677381,874,1584.5,488.1,3087,right
6,2,continuous,2,28,trial,9672459.0,9680943.0,8484.0,52,L,9677405,9677823,420,1403.3,484.0,3223,right
6,2,continuous,2,28,trial,9672459.0,9680943.0,8484.0,52,L,9677895,9678293,400,585.8,480.6,3340,left
6,2,continuous,2,28,trial,9672459.0,9680943.0,8484.0,52,L,9678319,9679175,858,395.8,526.9,3276,left
6,2,continuous,2,28,trial,9672459.0,9680943.0,8484.0,52,L,9679231,9679401,172,502.5,863.5,3417,NA
6,2,continuous,2,28,trial,9672459.0,9680943.0,8484.0,52,L,9679439,9679591,154,519.1,986.9,3466,NA
6,2,continuous,2,28,trial,9672459.0,9680943.0,8484.0,52,L,9679645,9679971,328,400.1,510.9,3397,left
6,2,continuous,2,28,trial,9672459.0,9680943.0,8484.0,52,L,9680007,9680233,228,558.5,503.7,3319,left
6,2,continuous,2,28,trial,9672459.0,9680943.0,8484.0,52,L,9680259,9680589,332,649.4,608.6,3246,left
6,2,continuous,2,28,trial,9672459.0,9680943.0,8484.0,52,L,9680621,9680963,344,352.2,485.5,3315,left
6,2,continuous,2,28,trial,9672459.0,9680943.0,8484.0,52,L,9681017,9681241,226,643.7,909.2,3326,NA
6,2,continuous,3,25,trial,9681626.0,9688476.0,6850.0,53,L,9681437,9681635,200,786.6,403.4,3442,NA
6,2,continuous,3,25,trial,9681626.0,9688476.0,6850.0,53,L,9681679,9681847,170,1045.0,414.7,3612,NA
6,2,continuous,3,25,trial,9681626.0,9688476.0,6850.0,53,L,9681893,9682185,294,1446.2,498.2,3567,right
6,2,continuous,3,25,trial,9681626.0,9688476.0,6850.0,53,L,9682213,9682583,372,1552.6,621.0,3422,right
6,2,continuous,3,25,trial,9681626.0,9688476.0,6850.0,53,L,9682649,9683019,372,512.0,560.7,3520,left
6,2,continuous,3,25,trial,9681626.0,9688476.0,6850.0,53,L,9683055,9683533,480,380.8,423.7,3425,left
6,2,continuous,3,25,trial,9681626.0,9688476.0,6850.0,53,L,9683567,9683791,226,427.7,612.6,3432,left
6,2,continuous,3,25,trial,9681626.0,9688476.0,6850.0,53,L,9683841,9684097,258,367.7,411.1,3447,left
6,2,continuous,3,25,trial,9681626.0,9688476.0,6850.0,53,L,9684169,9684621,454,1420.2,477.8,3315,right
6,2,continuous,3,25,trial,9681626.0,9688476.0,6850.0,53,L,9684651,9685355,706,1580.7,626.6,3312,right
6,2,continuous,3,25,trial,9681626.0,9688476.0,6850.0,53,L,9685429,9685673,246,682.5,865.6,3512,NA
6,2,continuous,3,25,trial,9681626.0,9688476.0,6850.0,53,L,9685739,9686115,378,452.1,515.4,3553,left
6,2,continuous,3,25,trial,9681626.0,9688476.0,6850.0,53,L,9686163,9686447,286,370.2,410.6,3595,left
6,2,continuous,3,25,trial,9681626.0,9688476.0,6850.0,53,L,9686495,9686749,256,456.4,614.0,3559,left
6,2,continuous,3,25,trial,9681626.0,9688476.0,6850.0,53,L,9686793,9687363,572,370.6,417.2,3428,left
6,2,continuous,3,25,trial,9681626.0,9688476.0,6850.0,53,L,9687427,9687633,208,642.1,881.3,3489,NA
6,2,continuous,3,25,trial,9681626.0,9688476.0,6850.0,53,L,9687669,9687891,224,512.8,984.2,3461,NA
6,2,continuous,3,25,trial,9681626.0,9688476.0,6850.0,53,L,9687945,9688217,274,479.3,545.6,3414,left
6,2,continuous,3,25,trial,9681626.0,9688476.0,6850.0,53,L,9688271,9688687,418,622.9,889.5,3591,NA
6,2,continuous,3,25,postResponse,9681626.0,9688476.0,6850.0,53,L,9688753,9688821,70,710.3,493.5,3618,left
6,2,continuous,4,10,fixationCross,9689192.0,9692510.0,3318.0,54,L,9688921,9689067,148,713.7,456.9,3661,left
6,2,continuous,4,10,trial,9689192.0,9692510.0,3318.0,54,L,9689083,9689415,334,790.5,449.5,3741,NA
6,2,continuous,4,10,trial,9689192.0,9692510.0,3318.0,54,L,9689473,9689579,108,1068.1,477.9,3626,NA
6,2,continuous,4,10,trial,9689192.0,9692510.0,3318.0,54,L,9689619,9690093,476,1381.3,515.2,3267,right
6,2,continuous,4,10,trial,9689192.0,9692510.0,3318.0,54,L,9690297,9690641,346,1404.5,540.7,3180,right
6,2,continuous,4,10,trial,9689192.0,9692510.0,3318.0,54,L,9690699,9691271,574,499.9,491.0,3277,left
6,2,continuous,4,10,trial,9689192.0,9692510.0,3318.0,54,L,9691291,9691707,418,610.3,488.0,3294,left
6,2,continuous,4,10,trial,9689192.0,9692510.0,3318.0,54,L,9691771,9691887,118,562.8,899.7,3512,NA
6,2,continuous,4,10,trial,9689192.0,9692510.0,3318.0,54,L,9691961,9692455,496,1352.2,563.3,3440,right
6,2,continuous,4,10,trial,9689192.0,9692510.0,3318.0,54,L,9692523,9692743,222,545.4,898.9,3514,NA
6,2,continuous,4,10,postResponse,9689192.0,9692510.0,3318.0,54,L,9692813,9692857,46,536.2,502.4,3510,left
6,2,continuous,5,7,fixationCross,9693243.0,9696326.0,3083.0,55,L,9692959,9693019,62,629.5,437.6,3548,left
6,2,continuous,5,7,trial,9693243.0,9696326.0,3083.0,55,L,9693071,9693433,364,877.0,435.9,3674,NA
6,2,continuous,5,7,trial,9693243.0,9696326.0,3083.0,55,L,9693469,9693751,284,574.5,487.7,3635,left
6,2,continuous,5,7,trial,9693243.0,9696326.0,3083.0,55,L,9693789,9693923,136,422.5,568.6,3293,left
6,2,continuous,5,7,trial,9693243.0,9696326.0,3083.0,55,L,9693999,9694287,290,1478.4,495.2,2977,right
6,2,continuous,5,7,trial,9693243.0,9696326.0,3083.0,55,L,9694303,9694679,378,1480.3,449.4,2965,right
6,2,continuous,5,7,trial,9693243.0,9696326.0,3083.0,55,L,9694709,9694885,178,1470.0,561.0,3055,right
6,2,continuous,5,7,trial,9693243.0,9696326.0,3083.0,55,L,9694961,9695261,302,491.2,426.1,3264,left
6,2,continuous,5,7,trial,9693243.0,9696326.0,3083.0,55,L,9695295,9695643,350,511.1,580.6,3265,left
6,2,continuous,5,7,trial,9693243.0,9696326.0,3083.0,55,L,9695693,9696245,554,513.1,940.1,3205,NA
6,2,continuous,5,7,trial,9693243.0,9696326.0,3083.0,55,L,9696307,9696579,274,535.3,515.7,3311,left
6,2,continuous,5,7,postResponse,9693243.0,9696326.0,3083.0,55,L,9696611,9696669,60,701.9,424.8,3307,left
6,2,continuous,6,88,trial,9697009.0,9701360.0,4351.0,56,L,9696743,9697275,534,676.7,466.4,3425,left
6,2,continuous,6,88,trial,9697009.0,9701360.0,4351.0,56,L,9697321,9697621,302,491.8,509.3,3430,left
6,2,continuous,6,88,trial,9697009.0,9701360.0,4351.0,56,L,9697693,9698017,326,1371.3,537.3,3169,right
6,2,continuous,6,88,trial,9697009.0,9701360.0,4351.0,56,L,9698043,9698215,174,1510.3,641.4,3186,right
6,2,continuous,6,88,trial,9697009.0,9701360.0,4351.0,56,L,9698403,9698583,182,1479.4,581.7,3198,right
6,2,continuous,6,88,trial,9697009.0,9701360.0,4351.0,56,L,9698613,9698993,382,1344.7,456.5,3260,right
6,2,continuous,6,88,trial,9697009.0,9701360.0,4351.0,56,L,9699065,9699557,494,520.4,500.6,3343,left
6,2,continuous,6,88,trial,9697009.0,9701360.0,4351.0,56,L,9699593,9699755,164,697.8,453.4,3227,left
6,2,continuous,6,88,trial,9697009.0,9701360.0,4351.0,56,L,9699807,9700017,212,1347.0,590.6,3155,right
6,2,continuous,6,88,trial,9697009.0,9701360.0,4351.0,56,L,9700087,9700541,456,430.1,506.4,3349,left
6,2,continuous,6,88,trial,9697009.0,9701360.0,4351.0,56,L,9700605,9701575,972,1402.6,575.6,3219,right
6,2,continuous,6,88,postResponse,9697009.0,9701360.0,4351.0,56,L,9701599,9701705,108,1274.3,514.4,3339,right
6,2,continuous,7,55,trial,9702043.0,9711110.0,9067.0,57,L,9701847,9702063,218,822.8,457.7,3474,NA
6,2,continuous,7,55,trial,9702043.0,9711110.0,9067.0,57,L,9702091,9702271,182,748.3,498.0,3582,NA
6,2,continuous,7,55,trial,9702043.0,9711110.0,9067.0,57,L,9702287,9702419,134,705.4,502.6,3529,left
6,2,continuous,7,55,trial,9702043.0,9711110.0,9067.0,57,L,9702455,9702643,190,454.3,481.5,3366,left
6,2,continuous,7,55,trial,9702043.0,9711110.0,9067.0,57,L,9702711,9703067,358,1405.7,503.5,3200,right
6,2,continuous,7,55,trial,9702043.0,9711110.0,9067.0,57,L,9703103,9703233,132,1536.0,534.0,3109,right
6,2,continuous,7,55,trial,9702043.0,9711110.0,9067.0,57,L,9703451,9703645,196,1494.3,469.8,2996,right
6,2,continuous,7,55,trial,9702043.0,9711110.0,9067.0,57,L,9703723,9704305,584,498.5,480.4,3198,left
6,2,continuous,7,55,trial,9702043.0,9711110.0,9067.0,57,L,9704333,9704679,348,339.3,438.9,3219,left
6,2,continuous,7,55,trial,9702043.0,9711110.0,9067.0,57,L,9704757,9705047,292,1360.6,505.7,3203,right
6,2,continuous,7,55,trial,9702043.0,9711110.0,9067.0,57,L,9705077,9705617,542,1510.2,539.1,3151,right
6,2,continuous,7,55,trial,9702043.0,9711110.0,9067.0,57,L,9705717,9706127,412,424.1,483.9,3368,left
6,2,continuous,7,55,trial,9702043.0,9711110.0,9067.0,57,L,9706153,9706411,260,542.5,444.4,3332,left
6,2,continuous,7,55,trial,9702043.0,9711110.0,9067.0,57,L,9706433,9706741,310,422.9,477.7,3337,left
6,2,continuous,7,55,trial,9702043.0,9711110.0,9067.0,57,L,9706763,9707187,426,306.6,462.7,3289,left
6,2,continuous,7,55,trial,9702043.0,9711110.0,9067.0,57,L,9707227,9707513,288,534.3,481.5,3256,left
6,2,continuous,7,55,trial,9702043.0,9711110.0,9067.0,57,L,9707531,9707821,292,452.6,534.8,3272,left
6,2,continuous,7,55,trial,9702043.0,9711110.0,9067.0,57,L,9707855,9708119,266,430.9,469.2,3331,left
6,2,continuous,7,55,trial,9702043.0,9711110.0,9067.0,57,L,9708159,9708401,244,663.6,484.8,3371,left
6,2,continuous,7,55,trial,9702043.0,9711110.0,9067.0,57,L,9708439,9709129,692,867.9,609.1,3576,NA
6,2,continuous,7,55,trial,9702043.0,9711110.0,9067.0,57,L,9709173,9709581,410,916.0,840.4,3664,likertHorizontal
6,2,continuous,7,55,trial,9702043.0,9711110.0,9067.0,57,L,9709631,9709873,244,1000.4,641.2,3540,NA
6,2,continuous,7,55,trial,9702043.0,9711110.0,9067.0,57,L,9709899,9710141,244,829.0,629.3,3611,NA
6,2,continuous,7,55,trial,9702043.0,9711110.0,9067.0,57,L,9710203,9710451,250,1378.0,523.4,3611,right
6,2,continuous,7,55,trial,9702043.0,9711110.0,9067.0,57,L,9710535,9710647,114,965.1,962.2,3619,likertHorizontal
6,2,continuous,7,55,trial,9702043.0,9711110.0,9067.0,57,L,9710663,9710915,254,986.4,903.9,3556,likertHorizontal
6,2,continuous,7,55,trial,9702043.0,9711110.0,9067.0,57,L,9710971,9711377,408,1032.4,658.0,3534,NA
6,2,continuous,7,55,postResponse,9702043.0,9711110.0,9067.0,57,L,9711415,9711457,44,826.8,472.1,3736,NA
6,2,continuous,8,27,trial,9711810.0,9718759.0,6949.0,58,L,9711557,9712039,484,783.2,447.8,3862,NA
6,2,continuous,8,27,trial,9711810.0,9718759.0,6949.0,58,L,9712097,9712347,252,1298.5,497.3,3631,right
6,2,continuous,8,27,trial,9711810.0,9718759.0,6949.0,58,L,9712383,9712509,128,1484.4,487.7,3321,right
6,2,continuous,8,27,trial,9711810.0,9718759.0,6949.0,58,L,9712749,9713021,274,1484.0,508.5,3178,right
6,2,continuous,8,27,trial,9711810.0,9718759.0,6949.0,58,L,9713041,9713515,476,1451.2,558.1,3173,right
6,2,continuous,8,27,trial,9711810.0,9718759.0,6949.0,58,L,9713603,9713933,332,434.3,514.9,3200,left
6,2,continuous,8,27,trial,9711810.0,9718759.0,6949.0,58,L,9713961,9714163,204,328.9,438.1,3110,left
6,2,continuous,8,27,trial,9711810.0,9718759.0,6949.0,58,L,9714177,9714495,320,295.7,421.4,3061,left
6,2,continuous,8,27,trial,9711810.0,9718759.0,6949.0,58,L,9714531,9714913,384,333.2,660.4,3234,left
6,2,continuous,8,27,trial,9711810.0,9718759.0,6949.0,58,L,9714951,9715321,372,513.7,678.1,3405,left
6,2,continuous,8,27,trial,9711810.0,9718759.0,6949.0,58,L,9715385,9715763,380,1338.2,493.9,3315,right
6,2,continuous,8,27,trial,9711810.0,9718759.0,6949.0,58,L,9715785,9716351,568,1418.7,490.2,3304,right
6,2,continuous,8,27,trial,9711810.0,9718759.0,6949.0,58,L,9716361,9716797,438,1410.9,472.9,3267,right
6,2,continuous,8,27,trial,9711810.0,9718759.0,6949.0,58,L,9716815,9717229,416,1467.1,470.9,3282,right
6,2,continuous,8,27,trial,9711810.0,9718759.0,6949.0,58,L,9717249,9717703,456,1401.2,503.8,3277,right
6,2,continuous,8,27,trial,9711810.0,9718759.0,6949.0,58,L,9717723,9718005,284,1452.5,544.6,3235,right
6,2,continuous,8,27,trial,9711810.0,9718759.0,6949.0,58,L,9718079,9718411,334,454.1,499.4,3380,left
6,2,continuous,8,27,trial,9711810.0,9718759.0,6949.0,58,L,9718443,9718683,242,450.6,624.0,3225,left
6,2,continuous,8,27,trial,9711810.0,9718759.0,6949.0,58,L,9718729,9718959,232,341.0,405.5,3131,left
6,2,continuous,9,19,fixationCross,9719477.0,9724293.0,4816.0,59,L,9719217,9719389,174,723.7,523.5,3272,left
6,2,continuous,9,19,trial,9719477.0,9724293.0,4816.0,59,L,9719431,9719651,222,903.6,516.6,3406,NA
6,2,continuous,9,19,trial,9719477.0,9724293.0,4816.0,59,L,9719695,9720005,312,474.6,472.1,3456,left
6,2,continuous,9,19,trial,9719477.0,9724293.0,4816.0,59,L,9720033,9720413,382,416.7,530.6,3265,left
6,2,continuous,9,19,trial,9719477.0,9724293.0,4816.0,59,L,9720447,9720835,390,410.0,422.6,3323,left
6,2,continuous,9,19,trial,9719477.0,9724293.0,4816.0,59,L,9720863,9720965,104,448.1,545.2,3346,left
6,2,continuous,9,19,trial,9719477.0,9724293.0,4816.0,59,L,9721035,9721245,212,1366.2,576.9,3250,right
6,2,continuous,9,19,trial,9719477.0,9724293.0,4816.0,59,L,9721273,9721557,286,1334.8,421.7,3201,right
6,2,continuous,9,19,trial,9719477.0,9724293.0,4816.0,59,L,9721581,9721811,232,1313.7,498.7,3160,right
6,2,continuous,9,19,trial,9719477.0,9724293.0,4816.0,59,L,9721853,9722233,382,1526.6,648.4,3110,right
6,2,continuous,9,19,trial,9719477.0,9724293.0,4816.0,59,L,9722253,9722393,142,1442.9,618.3,3092,right
6,2,continuous,9,19,trial,9719477.0,9724293.0,4816.0,59,L,9722465,9722897,434,447.6,469.0,3218,left
6,2,continuous,9,19,trial,9719477.0,9724293.0,4816.0,59,L,9722921,9723437,518,382.2,541.2,3319,left
6,2,continuous,9,19,trial,9719477.0,9724293.0,4816.0,59,L,9723487,9724053,568,629.6,908.8,3329,NA
6,2,continuous,9,19,trial,9719477.0,9724293.0,4816.0,59,L,9724093,9724531,440,555.5,617.9,3463,left
6,2,continuous,9,19,postResponse,9719477.0,9724293.0,4816.0,59,L,9724555,9724633,80,727.4,489.1,3546,left
6,2,continuous,10,81,fixationCross,9724977.0,9731277.0,6300.0,60,L,9724709,9724855,148,763.5,441.0,3554,NA
6,2,continuous,10,81,trial,9724977.0,9731277.0,6300.0,60,L,9724891,9725189,300,800.1,503.9,3672,NA
6,2,continuous,10,81,trial,9724977.0,9731277.0,6300.0,60,L,9725247,9725609,364,422.8,507.6,3537,left
6,2,continuous,10,81,trial,9724977.0,9731277.0,6300.0,60,L,9725629,9725817,190,329.6,542.6,3339,left
6,2,continuous,10,81,trial,9724977.0,9731277.0,6300.0,60,L,9726049,9726415,368,428.3,423.5,3327,left
6,2,continuous,10,81,trial,9724977.0,9731277.0,6300.0,60,L,9726441,9726943,504,305.9,500.9,3240,left
6,2,continuous,10,81,trial,9724977.0,9731277.0,6300.0,60,L,9727101,9727437,338,1438.7,481.4,3147,right
6,2,continuous,10,81,trial,9724977.0,9731277.0,6300.0,60,L,9727461,9727867,408,1542.6,447.6,3236,right
6,2,continuous,10,81,trial,9724977.0,9731277.0,6300.0,60,L,9727893,9728193,302,1373.7,512.9,3284,right
6,2,continuous,10,81,trial,9724977.0,9731277.0,6300.0,60,L,9728273,9728677,406,351.9,486.4,3461,left
6,2,continuous,10,81,trial,9724977.0,9731277.0,6300.0,60,L,9728697,9729213,518,422.5,549.3,3357,left
6,2,continuous,10,81,trial,9724977.0,9731277.0,6300.0,60,L,9729245,9729509,266,382.1,435.6,3285,left
6,2,continuous,10,81,trial,9724977.0,9731277.0,6300.0,60,L,9729531,9729797,268,352.0,517.6,3325,left
6,2,continuous,10,81,trial,9724977.0,9731277.0,6300.0,60,L,9729881,9730331,452,1430.6,522.2,3244,right
6,2,continuous,10,81,trial,9724977.0,9731277.0,6300.0,60,L,9730357,9730617,262,1277.5,611.6,3288,right
6,2,continuous,10,81,trial,9724977.0,9731277.0,6300.0,60,L,9730665,9730867,204,1207.4,919.0,3446,NA
6,2,continuous,10,81,trial,9724977.0,9731277.0,6300.0,60,L,9730917,9731279,364,1307.1,661.8,3443,right
6,2,continuous,10,81,trial,9724977.0,9731277.0,6300.0,60,L,9731329,9731493,166,1260.7,964.1,3605,NA
6,2,continuous,10,81,postResponse,9724977.0,9731277.0,6300.0,60,L,9731589,9731627,40,989.8,409.9,3632,NA
6,2,continuous,11,97,trial,9732010.0,9736010.0,4000.0,61,L,9731925,9732165,242,841.7,464.6,3773,NA
6,2,continuous,11,97,trial,9732010.0,9736010.0,4000.0,61,L,9732209,9732345,138,439.2,447.2,3898,left
6,2,continuous,11,97,trial,9732010.0,9736010.0,4000.0,61,L,9732369,9732547,180,346.9,442.7,3565,left
6,2,continuous,11,97,trial,9732010.0,9736010.0,4000.0,61,L,9732573,9732875,304,556.4,426.8,3144,left
6,2,continuous,11,97,trial,9732010.0,9736010.0,4000.0,61,L,9732933,9733141,210,1446.5,460.7,2906,right
6,2,continuous,11,97,trial,9732010.0,9736010.0,4000.0,61,L,9733167,9733481,316,1664.5,421.7,2889,right
6,2,continuous,11,97,trial,9732010.0,9736010.0,4000.0,61,L,9733515,9733783,270,1311.4,536.1,3106,right
6,2,continuous,11,97,trial,9732010.0,9736010.0,4000.0,61,L,9733797,9734029,234,1263.4,512.3,3198,right
6,2,continuous,11,97,trial,9732010.0,9736010.0,4000.0,61,L,9734075,9734457,384,1653.5,435.6,3160,right
6,2,continuous,11,97,trial,9732010.0,9736010.0,4000.0,61,L,9734553,9734697,146,401.9,459.3,3354,left
6,2,continuous,11,97,trial,9732010.0,9736010.0,4000.0,61,L,9734719,9735037,320,355.1,423.8,3264,left
6,2,continuous,11,97,trial,9732010.0,9736010.0,4000.0,61,L,9735117,9735405,290,1251.3,923.6,3095,NA
6,2,continuous,11,97,trial,9732010.0,9736010.0,4000.0,61,L,9735427,9735753,328,1388.5,961.4,3184,NA
6,2,continuous,11,97,trial,9732010.0,9736010.0,4000.0,61,L,9735771,9736255,486,1447.5,984.9,3359,NA
6,2,continuous,12,87,fixationCross,9736827.0,9741710.0,4883.0,62,L,9736461,9736509,50,1032.4,452.3,3549,NA
6,2,continuous,12,87,trial,9736827.0,9741710.0,4883.0,62,L,9736557,9736989,434,767.0,405.7,3720,NA
6,2,continuous,12,87,trial,9736827.0,9741710.0,4883.0,62,L,9737027,9737305,280,463.3,479.7,3719,left
6,2,continuous,12,87,trial,9736827.0,9741710.0,4883.0,62,L,9737325,9737521,198,452.2,422.6,3439,left
6,2,continuous,12,87,trial,9736827.0,9741710.0,4883.0,62,L,9737583,9738067,486,1387.9,532.5,3334,right
6,2,continuous,12,87,trial,9736827.0,9741710.0,4883.0,62,L,9738079,9738199,122,1356.3,514.1,3391,right
6,2,continuous,12,87,trial,9736827.0,9741710.0,4883.0,62,L,9738263,9738419,158,484.1,434.7,3478,left
6,2,continuous,12,87,trial,9736827.0,9741710.0,4883.0,62,L,9738441,9738953,514,439.9,413.0,3373,left
6,2,continuous,12,87,trial,9736827.0,9741710.0,4883.0,62,L,9738975,9739495,522,487.1,466.0,3361,left
6,2,continuous,12,87,trial,9736827.0,9741710.0,4883.0,62,L,9739515,9739827,314,433.3,490.7,3508,left
6,2,continuous,12,87,trial,9736827.0,9741710.0,4883.0,62,L,9739843,9740297,456,457.0,424.7,3480,left
6,2,continuous,12,87,trial,9736827.0,9741710.0,4883.0,62,L,9740361,9741255,896,1345.9,518.1,3203,right
6,2,continuous,12,87,trial,9736827.0,9741710.0,4883.0,62,L,9741271,9741585,316,1416.4,533.9,3283,right
6,2,continuous,12,87,trial,9736827.0,9741710.0,4883.0,62,L,9741649,9741887,240,1328.2,934.3,3310,NA
6,2,continuous,12,87,postResponse,9736827.0,9741710.0,4883.0,62,L,9741959,9742049,92,1022.1,538.5,3359,NA
6,2,continuous,13,16,fixationCross,9742393.0,9746810.0,4417.0,63,L,9742123,9742199,78,962.9,488.7,3330,NA
6,2,continuous,13,16,trial,9742393.0,9746810.0,4417.0,63,L,9742233,9742587,356,852.0,448.9,3452,NA
6,2,continuous,13,16,trial,9742393.0,9746810.0,4417.0,63,L,9742629,9742841,214,491.9,474.5,3407,left
6,2,continuous,13,16,trial,9742393.0,9746810.0,4417.0,63,L,9742907,9743137,232,1481.1,441.3,3024,right
6,2,continuous,13,16,trial,9742393.0,9746810.0,4417.0,63,L,9743151,9743367,218,1453.6,434.5,3039,right
6,2,continuous,13,16,trial,9742393.0,9746810.0,4417.0,63,L,9743623,9743835,214,1465.0,437.2,3160,right
6,2,continuous,13,16,trial,9742393.0,9746810.0,4417.0,63,L,9743865,9744025,162,1578.7,587.8,3224,right
6,2,continuous,13,16,trial,9742393.0,9746810.0,4417.0,63,L,9744063,9744337,276,1481.4,411.1,3175,right
6,2,continuous,13,16,trial,9742393.0,9746810.0,4417.0,63,L,9744353,9744711,360,1452.1,417.2,3089,right
6,2,continuous,13,16,trial,9742393.0,9746810.0,4417.0,63,L,9744787,9745071,286,512.3,469.7,3248,left
6,2,continuous,13,16,trial,9742393.0,9746810.0,4417.0,63,L,9745095,9745349,256,414.6,562.1,3197,left
6,2,continuous,13,16,trial,9742393.0,9746810.0,4417.0,63,L,9745419,9745669,252,1455.9,480.1,3039,right
6,2,continuous,13,16,trial,9742393.0,9746810.0,4417.0,63,L,9745689,9746157,470,1441.5,433.6,3145,right
6,2,continuous,13,16,trial,9742393.0,9746810.0,4417.0,63,L,9746235,9747025,792,439.2,541.8,3293,left
6,2,continuous,13,16,postResponse,9742393.0,9746810.0,4417.0,63,L,9747051,9747159,110,633.0,500.7,3220,left
6,2,continuous,14,63,fixationCross,9747493.0,9752494.0,5001.0,64,L,9747233,9747265,34,667.6,487.3,3277,left
6,2,continuous,14,63,fixationCross,9747493.0,9752494.0,5001.0,64,L,9747307,9747485,180,878.2,469.6,3325,NA
6,2,continuous,14,63,trial,9747493.0,9752494.0,5001.0,64,L,9747523,9747759,238,713.7,458.7,3478,left
6,2,continuous,14,63,trial,9747493.0,9752494.0,5001.0,64,L,9747831,9748179,350,1424.7,517.3,3322,right
6,2,continuous,14,63,trial,9747493.0,9752494.0,5001.0,64,L,9748205,9748413,210,1503.3,431.5,3187,right
6,2,continuous,14,63,trial,9747493.0,9752494.0,5001.0,64,L,9748479,9748757,280,492.4,493.6,3334,left
6,2,continuous,14,63,trial,9747493.0,9752494.0,5001.0,64,L,9748783,9749181,400,563.9,445.9,3279,left
6,2,continuous,14,63,trial,9747493.0,9752494.0,5001.0,64,L,9749225,9749543,320,339.6,548.3,3236,left
6,2,continuous,14,63,trial,9747493.0,9752494.0,5001.0,64,L,9749573,9750489,918,557.7,433.8,3232,left
6,2,continuous,14,63,trial,9747493.0,9752494.0,5001.0,64,L,9750547,9751131,586,1413.9,507.7,3178,right
6,2,continuous,14,63,trial,9747493.0,9752494.0,5001.0,64,L,9751189,9751909,722,1054.7,757.7,3547,likertHorizontal
