participantNo,block,task,blockTrial,response,trialStage,trialStartTime,trialFinishTime,rt,trial,eye,fixStart,fixEnd,fixLength,fixPosX,fixPosY,dilation,aoi
24,1,binary,1,1,fixationCross,4200845.0,4204994.0,4149.0,1,L,4190541,4190997,458,919.0,429.2,5657,NA
24,1,binary,1,1,fixationCross,4200845.0,4204994.0,4149.0,1,L,4191023,4191965,944,964.8,533.6,6107,NA
24,1,binary,1,1,fixationCross,4200845.0,4204994.0,4149.0,1,L,4192129,4196375,4248,963.6,543.9,6197,NA
24,1,binary,1,1,fixationCross,4200845.0,4204994.0,4149.0,1,L,4196399,4196715,318,868.6,513.9,6639,NA
24,1,binary,1,1,fixationCross,4200845.0,4204994.0,4149.0,1,L,4196739,4200835,4098,952.4,550.7,6725,NA
24,1,binary,1,1,trial,4200845.0,4204994.0,4149.0,1,L,4200873,4201379,508,745.9,616.1,6434,NA
24,1,binary,1,1,trial,4200845.0,4204994.0,4149.0,1,L,4201439,4201893,456,1367.0,547.5,5601,right
24,1,binary,1,1,trial,4200845.0,4204994.0,4149.0,1,L,4201909,4202061,154,1416.0,504.1,5344,right
24,1,binary,1,1,trial,4200845.0,4204994.0,4149.0,1,L,4202123,4202319,198,1426.0,972.8,5384,NA
24,1,binary,1,1,trial,4200845.0,4204994.0,4149.0,1,L,4202389,4202499,112,661.9,994.6,5576,NA
24,1,binary,1,1,trial,4200845.0,4204994.0,4149.0,1,L,4202553,4202755,204,513.7,715.8,5352,left
24,1,binary,1,1,trial,4200845.0,4204994.0,4149.0,1,L,4202795,4203135,342,507.9,491.5,5161,left
24,1,binary,1,1,trial,4200845.0,4204994.0,4149.0,1,L,4203149,4203287,140,517.3,515.4,5235,left
24,1,binary,1,1,trial,4200845.0,4204994.0,4149.0,1,L,4203365,4203965,602,1435.7,517.0,5177,right
24,1,binary,1,1,trial,4200845.0,4204994.0,4149.0,1,L,4204037,4204613,578,573.1,597.7,5304,left
24,1,binary,1,1,trial,4200845.0,4204994.0,4149.0,1,L,4204671,4205209,540,492.3,958.6,5884,NA
24,1,binary,1,1,postResponse,4200845.0,4204994.0,4149.0,1,L,4205321,4205359,40,1045.0,463.0,5600,NA
24,1,binary,2,2,fixationCross,4215728.0,4217762.0,2034.0,2,L,4205459,4205573,116,1051.1,445.6,5781,NA
24,1,binary,2,2,fixationCross,4215728.0,4217762.0,2034.0,2,L,4205599,4205935,338,968.2,498.3,6089,NA
24,1,binary,2,2,fixationCross,4215728.0,4217762.0,2034.0,2,L,4205949,4209819,3872,966.1,532.6,5718,NA
24,1,binary,2,2,trial,4215728.0,4217762.0,2034.0,2,L,4209829,4215879,6052,967.2,535.3,5512,NA
24,1,binary,2,2,trial,4215728.0,4217762.0,2034.0,2,L,4215913,4216015,104,775.2,534.7,5298,NA
24,1,binary,2,2,trial,4215728.0,4217762.0,2034.0,2,L,4216043,4216271,230,568.1,513.8,5073,left
24,1,binary,2,2,trial,4215728.0,4217762.0,2034.0,2,L,4216305,4216457,154,478.0,422.7,4984,left
24,1,binary,2,2,trial,4215728.0,4217762.0,2034.0,2,L,4216537,4216789,254,1470.5,520.0,4956,right
24,1,binary,2,2,trial,4215728.0,4217762.0,2034.0,2,L,4216809,4217051,244,1565.0,512.1,5001,right
24,1,binary,2,2,trial,4215728.0,4217762.0,2034.0,2,L,4217109,4217247,140,1441.7,901.0,5123,NA
24,1,binary,2,2,trial,4215728.0,4217762.0,2034.0,2,L,4217279,4217613,336,1222.1,730.3,5240,right
24,1,binary,2,2,postResponse,4215728.0,4217762.0,2034.0,2,L,4217659,4218111,454,1493.8,496.4,5447,right
24,1,binary,3,1,fixationCross,4228462.0,4230178.0,1716.0,3,L,4218185,4218409,226,902.6,458.8,5430,NA
24,1,binary,3,1,trial,4228462.0,4230178.0,1716.0,3,L,4218603,4228683,10082,966.8,531.0,5796,NA
24,1,binary,3,1,trial,4228462.0,4230178.0,1716.0,3,L,4228729,4228943,216,587.3,571.1,5155,left
24,1,binary,3,1,trial,4228462.0,4230178.0,1716.0,3,L,4229037,4229239,204,1396.9,534.5,4888,right
24,1,binary,3,1,trial,4228462.0,4230178.0,1716.0,3,L,4229261,4229555,296,1460.0,578.5,4947,right
24,1,binary,3,1,trial,4228462.0,4230178.0,1716.0,3,L,4229615,4229937,324,524.4,564.4,4978,left
24,1,binary,3,1,trial,4228462.0,4230178.0,1716.0,3,L,4229967,4230457,492,494.7,659.3,5208,left
24,1,binary,4,2,fixationCross,4240861.0,4242378.0,1517.0,4,L,4230595,4230805,212,1042.9,464.0,5219,NA
24,1,binary,4,2,fixationCross,4240861.0,4242378.0,1517.0,4,L,4231021,4231183,164,1040.2,560.6,5797,NA
24,1,binary,4,2,fixationCross,4240861.0,4242378.0,1517.0,4,L,4231201,4231831,632,962.9,529.9,5683,NA
24,1,binary,4,2,trial,4240861.0,4242378.0,1517.0,4,L,4232093,4241077,8986,969.2,538.2,5651,NA
24,1,binary,4,2,trial,4240861.0,4242378.0,1517.0,4,L,4241131,4241277,148,1395.0,543.2,5232,right
24,1,binary,4,2,trial,4240861.0,4242378.0,1517.0,4,L,4241293,4241511,220,1463.6,514.6,4794,right
24,1,binary,4,2,trial,4240861.0,4242378.0,1517.0,4,L,4241587,4241901,316,483.3,593.3,4834,left
24,1,binary,4,2,trial,4240861.0,4242378.0,1517.0,4,L,4241923,4242237,316,503.7,649.2,5052,left
24,1,binary,4,2,trial,4240861.0,4242378.0,1517.0,4,L,4242293,4242389,98,444.3,1021.3,5175,NA
24,1,binary,4,2,trial,4240861.0,4242378.0,1517.0,4,L,4242471,4242645,176,1440.5,1004.2,5125,NA
24,1,binary,5,2,fixationCross,4253078.0,4254361.0,1283.0,5,L,4242863,4243129,268,1127.2,601.7,5419,NA
24,1,binary,5,2,trial,4253078.0,4254361.0,1283.0,5,L,4243159,4253293,10136,972.8,532.1,5523,NA
24,1,binary,5,2,trial,4253078.0,4254361.0,1283.0,5,L,4253349,4253515,168,574.0,548.5,5330,left
24,1,binary,5,2,trial,4253078.0,4254361.0,1283.0,5,L,4253585,4254245,662,1467.6,539.0,4866,right
24,1,binary,5,2,trial,4253078.0,4254361.0,1283.0,5,L,4254295,4254427,134,1442.9,983.5,5180,NA
24,1,binary,5,2,trial,4253078.0,4254361.0,1283.0,5,L,4254499,4254579,82,655.5,821.4,5320,NA
24,1,binary,5,2,trial,4253078.0,4254361.0,1283.0,5,L,4254607,4254625,20,749.6,653.3,5073,NA
24,1,binary,5,2,postResponse,4253078.0,4254361.0,1283.0,5,L,4254643,4254699,58,939.2,623.6,4853,NA
24,1,binary,6,1,trial,4255045.0,4256695.0,1650.0,6,L,4254983,4255209,228,957.6,561.5,5635,NA
24,1,binary,6,1,trial,4255045.0,4256695.0,1650.0,6,L,4255423,4255603,182,586.4,553.2,5294,left
24,1,binary,6,1,trial,4255045.0,4256695.0,1650.0,6,L,4255681,4255915,236,1490.2,566.1,5025,right
24,1,binary,6,1,trial,4255045.0,4256695.0,1650.0,6,L,4255933,4256205,274,1535.9,556.9,4848,right
24,1,binary,6,1,trial,4255045.0,4256695.0,1650.0,6,L,4256281,4256629,350,487.1,579.1,5201,left
24,1,binary,6,1,trial,4255045.0,4256695.0,1650.0,6,L,4256645,4256979,336,442.3,569.8,5318,left
24,1,binary,7,1,fixationCross,4257378.0,4259078.0,1700.0,7,L,4257107,4257201,96,1027.6,515.8,5505,NA
24,1,binary,7,1,trial,4257378.0,4259078.0,1700.0,7,L,4257407,4257523,118,1270.1,527.7,5862,right
24,1,binary,7,1,trial,4257378.0,4259078.0,1700.0,7,L,4257579,4257677,100,830.3,513.9,6022,NA
24,1,binary,7,1,trial,4257378.0,4259078.0,1700.0,7,L,4257709,4257841,134,581.8,511.2,5652,left
24,1,binary,7,1,trial,4257378.0,4259078.0,1700.0,7,L,4257919,4258365,448,1648.3,524.9,5067,right
24,1,binary,7,1,trial,4257378.0,4259078.0,1700.0,7,L,4258391,4258501,112,1510.5,582.2,5022,right
24,1,binary,7,1,trial,4257378.0,4259078.0,1700.0,7,L,4258573,4259311,740,599.7,515.2,5290,left
24,1,binary,7,1,postResponse,4257378.0,4259078.0,1700.0,7,L,4259379,4259413,36,1126.0,555.5,5511,NA
24,1,binary,8,1,trial,4259745.0,4261478.0,1733.0,8,L,4259489,4259977,490,1125.3,554.9,5756,NA
24,1,binary,8,1,trial,4259745.0,4261478.0,1733.0,8,L,4260039,4260251,214,602.7,526.1,5689,left
24,1,binary,8,1,trial,4259745.0,4261478.0,1733.0,8,L,4260277,4260401,126,524.8,595.2,5547,left
24,1,binary,8,1,trial,4259745.0,4261478.0,1733.0,8,L,4260465,4260813,350,1340.0,514.6,5456,right
24,1,binary,8,1,trial,4259745.0,4261478.0,1733.0,8,L,4260833,4261679,848,1375.3,482.6,5298,right
24,1,binary,8,1,postResponse,4259745.0,4261478.0,1733.0,8,L,4261733,4261815,84,767.3,517.5,5423,NA
24,1,binary,9,1,trial,4262162.0,4267512.0,5350.0,9,L,4261889,4262209,322,770.5,522.6,5556,NA
24,1,binary,9,1,trial,4262162.0,4267512.0,5350.0,9,L,4262235,4262403,170,974.1,519.2,5667,NA
24,1,binary,9,1,trial,4262162.0,4267512.0,5350.0,9,L,4262475,4262739,266,1492.5,544.4,5463,right
24,1,binary,9,1,trial,4262162.0,4267512.0,5350.0,9,L,4262815,4263081,268,491.2,562.4,5133,left
24,1,binary,9,1,trial,4262162.0,4267512.0,5350.0,9,L,4263095,4263927,834,495.8,519.3,5230,left
24,1,binary,9,1,trial,4262162.0,4267512.0,5350.0,9,L,4263999,4264361,364,1435.3,530.8,5299,right
24,1,binary,9,1,trial,4262162.0,4267512.0,5350.0,9,L,4264377,4264551,176,1516.3,527.5,4959,right
24,1,binary,9,1,trial,4262162.0,4267512.0,5350.0,9,L,4264617,4265045,430,488.3,533.0,5069,left
24,1,binary,9,1,trial,4262162.0,4267512.0,5350.0,9,L,4265117,4265567,452,1535.2,561.1,4988,right
24,1,binary,9,1,trial,4262162.0,4267512.0,5350.0,9,L,4265583,4266213,632,1499.9,520.5,4859,right
24,1,binary,9,1,trial,4262162.0,4267512.0,5350.0,9,L,4266233,4266347,116,1440.0,514.0,4968,right
24,1,binary,9,1,trial,4262162.0,4267512.0,5350.0,9,L,4266421,4266713,294,500.7,528.8,4958,left
24,1,binary,9,1,trial,4262162.0,4267512.0,5350.0,9,L,4266727,4267121,396,465.9,514.7,5020,left
24,1,binary,9,1,trial,4262162.0,4267512.0,5350.0,9,L,4267193,4267823,632,1472.3,511.1,5024,right
24,1,binary,10,2,fixationCross,4268212.0,4270329.0,2117.0,10,L,4267933,4268097,166,1061.7,470.4,5153,NA
24,1,binary,10,2,trial,4268212.0,4270329.0,2117.0,10,L,4268295,4268437,144,994.6,498.1,5457,NA
24,1,binary,10,2,trial,4268212.0,4270329.0,2117.0,10,L,4268509,4268809,302,1493.8,514.8,5306,right
24,1,binary,10,2,trial,4268212.0,4270329.0,2117.0,10,L,4268885,4269189,306,536.0,517.2,4975,left
24,1,binary,10,2,trial,4268212.0,4270329.0,2117.0,10,L,4269211,4269371,162,442.4,478.0,4992,left
24,1,binary,10,2,trial,4268212.0,4270329.0,2117.0,10,L,4269401,4269701,302,594.7,561.8,5157,left
24,1,binary,10,2,trial,4268212.0,4270329.0,2117.0,10,L,4269767,4269965,200,1452.6,496.4,4928,right
24,1,binary,10,2,trial,4268212.0,4270329.0,2117.0,10,L,4270041,4270237,198,542.3,550.1,5098,left
24,1,binary,10,2,postResponse,4268212.0,4270329.0,2117.0,10,L,4270249,4270665,418,505.4,550.6,5219,left
24,1,binary,11,2,trial,4271012.0,4273845.0,2833.0,11,L,4270739,4271193,456,944.3,485.4,5339,NA
24,1,binary,11,2,trial,4271012.0,4273845.0,2833.0,11,L,4271239,4271513,276,532.9,546.0,5548,left
24,1,binary,11,2,trial,4271012.0,4273845.0,2833.0,11,L,4271547,4271645,100,403.6,429.2,5282,left
24,1,binary,11,2,trial,4271012.0,4273845.0,2833.0,11,L,4271717,4272091,376,1457.9,511.0,5218,right
24,1,binary,11,2,trial,4271012.0,4273845.0,2833.0,11,L,4272115,4272271,158,1427.4,422.7,5107,right
24,1,binary,11,2,trial,4271012.0,4273845.0,2833.0,11,L,4272281,4272531,252,1403.6,426.6,5118,right
24,1,binary,11,2,trial,4271012.0,4273845.0,2833.0,11,L,4272563,4272863,302,1456.2,537.1,5152,right
24,1,binary,11,2,trial,4271012.0,4273845.0,2833.0,11,L,4272937,4273327,392,508.3,565.2,5066,left
24,1,binary,11,2,trial,4271012.0,4273845.0,2833.0,11,L,4273363,4273717,356,414.5,410.7,5128,left
24,1,binary,11,2,trial,4271012.0,4273845.0,2833.0,11,L,4273795,4274145,352,1385.0,474.3,5234,right
24,1,binary,12,1,fixationCross,4274562.0,4277628.0,3066.0,12,L,4274291,4274491,202,826.5,537.5,5354,NA
24,1,binary,12,1,trial,4274562.0,4277628.0,3066.0,12,L,4274517,4274761,246,933.5,477.0,5381,NA
24,1,binary,12,1,trial,4274562.0,4277628.0,3066.0,12,L,4274817,4275083,268,1400.3,499.4,5351,right
24,1,binary,12,1,trial,4274562.0,4277628.0,3066.0,12,L,4275103,4275225,124,1384.8,443.6,5245,right
24,1,binary,12,1,trial,4274562.0,4277628.0,3066.0,12,L,4275297,4275577,282,528.8,534.6,5271,left
24,1,binary,12,1,trial,4274562.0,4277628.0,3066.0,12,L,4275759,4276257,500,580.7,507.6,5184,left
24,1,binary,12,1,trial,4274562.0,4277628.0,3066.0,12,L,4276271,4276745,476,540.9,519.7,5137,left
24,1,binary,12,1,trial,4274562.0,4277628.0,3066.0,12,L,4276819,4277847,1030,1368.2,449.9,5205,right
24,1,binary,12,1,postResponse,4274562.0,4277628.0,3066.0,12,L,4277899,4277963,66,819.0,515.3,5282,NA
24,1,binary,13,2,trial,4278345.0,4280212.0,1867.0,13,L,4278063,4278401,340,815.9,515.4,5366,NA
24,1,binary,13,2,trial,4278345.0,4280212.0,1867.0,13,L,4278427,4278565,140,952.5,517.8,5340,NA
24,1,binary,13,2,trial,4278345.0,4280212.0,1867.0,13,L,4278613,4278845,234,1326.5,497.0,5227,right
24,1,binary,13,2,trial,4278345.0,4280212.0,1867.0,13,L,4278873,4279085,214,1535.3,574.1,5133,right
24,1,binary,13,2,trial,4278345.0,4280212.0,1867.0,13,L,4279169,4279437,270,394.3,494.0,5059,left
24,1,binary,13,2,trial,4278345.0,4280212.0,1867.0,13,L,4279459,4279769,312,403.1,420.9,4966,left
24,1,binary,13,2,trial,4278345.0,4280212.0,1867.0,13,L,4279853,4280061,210,1422.4,613.9,5111,right
24,1,binary,13,2,trial,4278345.0,4280212.0,1867.0,13,L,4280099,4280491,394,1657.1,590.9,4950,right
24,1,binary,14,1,trial,4280912.0,4282479.0,1567.0,14,L,4280647,4281087,442,1017.4,485.2,5152,NA
24,1,binary,14,1,trial,4280912.0,4282479.0,1567.0,14,L,4281133,4281367,236,592.0,524.0,5316,left
24,1,binary,14,1,trial,4280912.0,4282479.0,1567.0,14,L,4281393,4281607,216,453.9,549.4,5019,left
24,1,binary,14,1,trial,4280912.0,4282479.0,1567.0,14,L,4281677,4281977,302,1471.5,549.0,4983,right
24,1,binary,14,1,trial,4280912.0,4282479.0,1567.0,14,L,4282003,4282277,276,1473.0,619.1,5230,right
24,1,binary,14,1,trial,4280912.0,4282479.0,1567.0,14,L,4282335,4282449,116,1430.9,967.2,5283,NA
24,1,binary,14,1,trial,4280912.0,4282479.0,1567.0,14,L,4282507,4282735,230,1413.0,549.8,5159,right
24,1,binary,14,1,postResponse,4280912.0,4282479.0,1567.0,14,L,4282783,4282815,34,928.4,515.8,5172,NA
24,1,binary,15,2,trial,4283179.0,4285596.0,2417.0,15,L,4282889,4283359,472,929.2,514.9,5565,NA
24,1,binary,15,2,trial,4283179.0,4285596.0,2417.0,15,L,4283403,4283637,236,564.2,557.0,5632,left
24,1,binary,15,2,trial,4283179.0,4285596.0,2417.0,15,L,4283661,4283779,120,447.5,530.6,5193,left
24,1,binary,15,2,trial,4283179.0,4285596.0,2417.0,15,L,4283847,4284203,358,1388.3,463.6,4943,right
24,1,binary,15,2,trial,4283179.0,4285596.0,2417.0,15,L,4284231,4284645,416,1413.9,554.1,5246,right
24,1,binary,15,2,trial,4283179.0,4285596.0,2417.0,15,L,4284719,4285195,478,512.3,548.6,5197,left
24,1,binary,15,2,trial,4283179.0,4285596.0,2417.0,15,L,4285267,4285811,546,1433.4,583.3,4992,right
24,1,binary,15,2,postResponse,4283179.0,4285596.0,2417.0,15,L,4285869,4285929,62,824.7,473.6,5175,NA
24,1,binary,16,2,trial,4286279.0,4288512.0,2233.0,16,L,4286005,4286437,434,823.2,481.0,5349,NA
24,1,binary,16,2,trial,4286279.0,4288512.0,2233.0,16,L,4286475,4286621,148,520.3,559.8,5557,left
24,1,binary,16,2,trial,4286279.0,4288512.0,2233.0,16,L,4286697,4287115,420,1490.7,527.0,5105,right
24,1,binary,16,2,trial,4286279.0,4288512.0,2233.0,16,L,4287183,4287763,582,490.4,536.8,5101,left
24,1,binary,16,2,trial,4286279.0,4288512.0,2233.0,16,L,4287783,4288027,246,462.1,551.7,5009,left
24,1,binary,16,2,trial,4286279.0,4288512.0,2233.0,16,L,4288103,4288311,210,1412.1,511.0,4955,right
24,1,binary,16,2,trial,4286279.0,4288512.0,2233.0,16,L,4288329,4288729,402,1490.2,515.8,4955,right
24,1,binary,16,2,postResponse,4286279.0,4288512.0,2233.0,16,L,4288787,4288857,72,1018.5,496.2,5076,NA
24,1,binary,17,2,fixationCross,4289229.0,4291779.0,2550.0,17,L,4288957,4289093,138,1005.1,493.1,5161,NA
24,1,binary,17,2,trial,4289229.0,4291779.0,2550.0,17,L,4289115,4289411,298,913.2,508.4,5408,NA
24,1,binary,17,2,trial,4289229.0,4291779.0,2550.0,17,L,4289453,4289719,268,588.9,565.9,5443,left
24,1,binary,17,2,trial,4289229.0,4291779.0,2550.0,17,L,4289781,4290083,304,1384.4,607.2,5041,right
24,1,binary,17,2,trial,4289229.0,4291779.0,2550.0,17,L,4290107,4290349,244,1463.6,512.0,4960,right
24,1,binary,17,2,trial,4289229.0,4291779.0,2550.0,17,L,4290547,4290885,340,479.0,593.7,5198,left
24,1,binary,17,2,trial,4289229.0,4291779.0,2550.0,17,L,4290909,4291171,264,592.1,563.9,5001,left
24,1,binary,17,2,trial,4289229.0,4291779.0,2550.0,17,L,4291237,4291557,322,1386.4,571.3,4836,right
24,1,binary,17,2,trial,4289229.0,4291779.0,2550.0,17,L,4291579,4291771,194,1473.5,521.3,4859,right
24,1,binary,17,2,trial,4289229.0,4291779.0,2550.0,17,L,4291819,4291995,178,1427.3,925.2,5060,NA
24,1,binary,17,2,postResponse,4289229.0,4291779.0,2550.0,17,L,4292059,4292113,56,994.6,520.5,5264,NA
24,1,binary,18,1,trial,4292462.0,4297045.0,4583.0,18,L,4292189,4292657,470,996.7,517.0,5509,NA
24,1,binary,18,1,trial,4292462.0,4297045.0,4583.0,18,L,4292703,4292907,206,582.4,552.1,5587,left
24,1,binary,18,1,trial,4292462.0,4297045.0,4583.0,18,L,4292975,4293339,366,1407.3,521.1,5182,right
24,1,binary,18,1,trial,4292462.0,4297045.0,4583.0,18,L,4293355,4293959,606,1477.3,527.6,5131,right
24,1,binary,18,1,trial,4292462.0,4297045.0,4583.0,18,L,4294021,4294173,154,726.9,472.8,5210,left
24,1,binary,18,1,trial,4292462.0,4297045.0,4583.0,18,L,4294205,4294601,398,536.0,512.8,5202,left
24,1,binary,18,1,trial,4292462.0,4297045.0,4583.0,18,L,4294627,4294893,268,476.2,569.9,5183,left
24,1,binary,18,1,trial,4292462.0,4297045.0,4583.0,18,L,4294911,4295195,286,484.7,619.3,5270,left
24,1,binary,18,1,trial,4292462.0,4297045.0,4583.0,18,L,4295219,4295429,212,394.1,546.2,5222,left
24,1,binary,18,1,trial,4292462.0,4297045.0,4583.0,18,L,4295469,4295813,346,666.0,477.9,5214,left
24,1,binary,18,1,trial,4292462.0,4297045.0,4583.0,18,L,4295879,4296257,380,1504.6,518.2,5078,right
24,1,binary,18,1,trial,4292462.0,4297045.0,4583.0,18,L,4296277,4297223,948,1410.1,507.1,5093,right
24,1,binary,18,1,postResponse,4292462.0,4297045.0,4583.0,18,L,4297249,4297381,134,1233.0,518.8,5076,right
24,1,binary,19,2,trial,4297762.0,4299529.0,1767.0,19,L,4297481,4297959,480,1109.9,506.0,5199,NA
24,1,binary,19,2,trial,4297762.0,4299529.0,1767.0,19,L,4298005,4298217,214,1449.1,533.4,5162,right
24,1,binary,19,2,trial,4297762.0,4299529.0,1767.0,19,L,4298231,4298547,318,1490.5,522.4,4968,right
24,1,binary,19,2,trial,4297762.0,4299529.0,1767.0,19,L,4298627,4299355,730,532.1,602.8,5019,left
24,1,binary,19,2,trial,4297762.0,4299529.0,1767.0,19,L,4299429,4299765,338,1458.2,539.2,4981,right
24,1,binary,19,2,postResponse,4297762.0,4299529.0,1767.0,19,L,4299809,4299863,56,940.8,479.6,5140,NA
24,1,binary,20,1,trial,4300196.0,4301862.0,1666.0,20,L,4299939,4300325,388,930.9,476.5,5301,NA
24,1,binary,20,1,trial,4300196.0,4301862.0,1666.0,20,L,4300367,4300727,362,574.1,535.7,5314,left
24,1,binary,20,1,trial,4300196.0,4301862.0,1666.0,20,L,4300755,4301003,250,413.0,499.5,5012,left
24,1,binary,20,1,trial,4300196.0,4301862.0,1666.0,20,L,4301079,4301461,384,1475.4,503.2,4935,right
24,1,binary,20,1,trial,4300196.0,4301862.0,1666.0,20,L,4301473,4301803,332,1503.9,478.4,4847,right
24,1,binary,20,1,trial,4300196.0,4301862.0,1666.0,20,L,4301867,4302051,186,604.5,446.8,4990,left
24,1,binary,20,1,postResponse,4300196.0,4301862.0,1666.0,20,L,4302095,4302207,114,1018.3,483.5,4999,NA
24,1,binary,21,2,trial,4302562.0,4304262.0,1700.0,21,L,4302307,4302737,432,1025.9,487.1,5229,NA
24,1,binary,21,2,trial,4302562.0,4304262.0,1700.0,21,L,4302785,4303171,388,556.6,544.8,5072,left
24,1,binary,21,2,trial,4302562.0,4304262.0,1700.0,21,L,4303233,4303609,378,1373.3,566.8,4845,right
24,1,binary,21,2,trial,4302562.0,4304262.0,1700.0,21,L,4303633,4303933,302,1487.6,571.2,4823,right
24,1,binary,21,2,trial,4302562.0,4304262.0,1700.0,21,L,4303959,4304485,528,1324.2,529.3,4755,right
24,1,binary,21,2,postResponse,4302562.0,4304262.0,1700.0,21,L,4304503,4304597,96,1244.5,538.2,4786,right
24,1,binary,22,2,fixationCross,4304979.0,4307212.0,2233.0,22,L,4304697,4304727,32,1240.7,538.8,4888,right
24,1,binary,22,2,trial,4304979.0,4307212.0,2233.0,22,L,4304749,4305177,430,1143.3,505.3,5137,NA
24,1,binary,22,2,trial,4304979.0,4307212.0,2233.0,22,L,4305223,4305583,362,1488.4,537.9,4945,right
24,1,binary,22,2,trial,4304979.0,4307212.0,2233.0,22,L,4305607,4305765,160,1389.5,480.1,4737,right
24,1,binary,22,2,trial,4304979.0,4307212.0,2233.0,22,L,4305835,4306079,246,485.0,518.5,4859,left
24,1,binary,22,2,trial,4304979.0,4307212.0,2233.0,22,L,4306103,4306515,414,378.1,450.5,4754,left
24,1,binary,22,2,trial,4304979.0,4307212.0,2233.0,22,L,4306543,4306667,126,504.6,525.1,4788,left
24,1,binary,22,2,trial,4304979.0,4307212.0,2233.0,22,L,4306745,4307083,340,1413.0,476.5,4799,right
24,1,binary,22,2,trial,4304979.0,4307212.0,2233.0,22,L,4307101,4307249,150,1369.4,472.0,4848,right
24,1,binary,22,2,trial,4304979.0,4307212.0,2233.0,22,L,4307295,4307459,166,1544.3,645.0,4887,right
24,1,binary,22,2,postResponse,4304979.0,4307212.0,2233.0,22,L,4307503,4307547,46,1124.5,487.0,4977,NA
24,1,binary,23,2,trial,4307912.0,4309396.0,1484.0,23,L,4307623,4308077,456,1118.0,480.4,5040,NA
24,1,binary,23,2,trial,4307912.0,4309396.0,1484.0,23,L,4308123,4308379,258,1419.1,560.9,5123,right
24,1,binary,23,2,trial,4307912.0,4309396.0,1484.0,23,L,4308391,4308563,174,1454.4,555.2,4920,right
24,1,binary,23,2,trial,4307912.0,4309396.0,1484.0,23,L,4308635,4308985,352,559.2,553.9,4919,left
24,1,binary,23,2,trial,4307912.0,4309396.0,1484.0,23,L,4309005,4309255,252,496.3,529.4,4857,left
24,1,binary,23,2,trial,4307912.0,4309396.0,1484.0,23,L,4309319,4309617,300,1416.3,606.8,4797,right
24,1,binary,23,2,postResponse,4307912.0,4309396.0,1484.0,23,L,4309639,4309725,88,1291.6,581.5,4798,right
24,1,binary,24,2,fixationCross,4310079.0,4314629.0,4550.0,24,L,4309891,4310069,180,1144.1,534.3,5007,NA
24,1,binary,24,2,trial,4310079.0,4314629.0,4550.0,24,L,4310099,4310281,184,1005.1,505.3,5244,NA
24,1,binary,24,2,trial,4310079.0,4314629.0,4550.0,24,L,4310327,4310513,188,572.9,531.0,5041,left
24,1,binary,24,2,trial,4310079.0,4314629.0,4550.0,24,L,4310587,4311287,702,1461.9,544.9,4764,right
24,1,binary,24,2,trial,4310079.0,4314629.0,4550.0,24,L,4311305,4311587,284,1409.9,557.4,4885,right
24,1,binary,24,2,trial,4310079.0,4314629.0,4550.0,24,L,4311611,4311743,134,1427.3,632.7,4992,right
24,1,binary,24,2,trial,4310079.0,4314629.0,4550.0,24,L,4311815,4312099,286,569.5,522.0,5123,left
24,1,binary,24,2,trial,4310079.0,4314629.0,4550.0,24,L,4312115,4312449,336,601.0,479.5,5100,left
24,1,binary,24,2,trial,4310079.0,4314629.0,4550.0,24,L,4312475,4312753,280,517.1,562.3,5249,left
24,1,binary,24,2,trial,4310079.0,4314629.0,4550.0,24,L,4312775,4313251,478,609.9,497.5,5336,left
24,1,binary,24,2,trial,4310079.0,4314629.0,4550.0,24,L,4313283,4313375,94,458.2,463.9,5305,left
24,1,binary,24,2,trial,4310079.0,4314629.0,4550.0,24,L,4313445,4313769,326,1455.7,561.0,5198,right
24,1,binary,24,2,trial,4310079.0,4314629.0,4550.0,24,L,4313787,4314175,390,1421.5,598.3,5072,right
24,1,binary,24,2,trial,4310079.0,4314629.0,4550.0,24,L,4314199,4314345,148,1451.0,527.4,5101,right
24,1,binary,24,2,trial,4310079.0,4314629.0,4550.0,24,L,4314407,4314595,190,1457.8,952.6,5211,NA
24,1,binary,24,2,trial,4310079.0,4314629.0,4550.0,24,L,4314641,4314913,274,1293.5,539.3,5042,right
24,1,binary,25,1,trial,4315296.0,4317312.0,2016.0,25,L,4315039,4315439,402,1072.7,517.9,5264,NA
24,1,binary,25,1,trial,4315296.0,4317312.0,2016.0,25,L,4315487,4315847,362,597.4,530.6,5196,left
24,1,binary,25,1,trial,4315296.0,4317312.0,2016.0,25,L,4315867,4316015,150,573.7,482.8,4979,left
24,1,binary,25,1,trial,4315296.0,4317312.0,2016.0,25,L,4316085,4316361,278,1523.3,502.0,4873,right
24,1,binary,25,1,trial,4315296.0,4317312.0,2016.0,25,L,4316375,4316523,150,1566.3,517.4,4925,right
24,1,binary,25,1,trial,4315296.0,4317312.0,2016.0,25,L,4316599,4316923,326,556.5,525.4,5088,left
24,1,binary,25,1,trial,4315296.0,4317312.0,2016.0,25,L,4316941,4317061,122,563.7,487.3,5009,left
24,1,binary,25,1,trial,4315296.0,4317312.0,2016.0,25,L,4317127,4317515,390,1521.4,507.5,4886,right
24,1,binary,25,1,postResponse,4315296.0,4317312.0,2016.0,25,L,4317573,4317647,76,934.9,474.6,5048,NA
24,1,binary,26,2,trial,4338545.0,4339929.0,1384.0,26,L,4338275,4338733,460,985.1,455.5,5746,NA
24,1,binary,26,2,trial,4338545.0,4339929.0,1384.0,26,L,4338787,4338975,190,569.9,569.5,5534,left
24,1,binary,26,2,trial,4338545.0,4339929.0,1384.0,26,L,4339039,4339123,86,1055.6,513.4,5413,NA
24,1,binary,26,2,trial,4338545.0,4339929.0,1384.0,26,L,4339171,4339729,560,1453.8,551.3,5230,right
24,1,binary,26,2,trial,4338545.0,4339929.0,1384.0,26,L,4339799,4340139,342,601.0,534.3,5633,left
24,1,binary,26,2,postResponse,4338545.0,4339929.0,1384.0,26,L,4340181,4340263,84,946.7,476.2,5334,NA
24,1,binary,27,2,fixationCross,4340596.0,4341812.0,1216.0,27,L,4340337,4340537,202,958.3,471.0,5269,NA
24,1,binary,27,2,trial,4340596.0,4341812.0,1216.0,27,L,4340553,4340781,230,979.0,510.2,5525,NA
24,1,binary,27,2,trial,4340596.0,4341812.0,1216.0,27,L,4340861,4341119,260,1494.3,588.4,5353,right
24,1,binary,27,2,trial,4340596.0,4341812.0,1216.0,27,L,4341139,4341351,214,1499.7,524.6,5043,right
24,1,binary,27,2,trial,4340596.0,4341812.0,1216.0,27,L,4341427,4341997,572,474.7,596.2,5013,left
24,1,binary,27,2,postResponse,4340596.0,4341812.0,1216.0,27,L,4342047,4342149,104,982.4,511.7,4855,NA
24,1,binary,28,2,trial,4342495.0,4344429.0,1934.0,28,L,4342223,4342673,452,977.6,507.6,5207,NA
24,1,binary,28,2,trial,4342495.0,4344429.0,1934.0,28,L,4342723,4342957,236,1392.2,566.6,5270,right
24,1,binary,28,2,trial,4342495.0,4344429.0,1934.0,28,L,4342977,4343249,274,1472.5,577.8,5149,right
24,1,binary,28,2,trial,4342495.0,4344429.0,1934.0,28,L,4343327,4343777,452,510.7,544.9,5222,left
24,1,binary,28,2,trial,4342495.0,4344429.0,1934.0,28,L,4343801,4343915,116,485.4,451.1,5158,left
24,1,binary,28,2,trial,4342495.0,4344429.0,1934.0,28,L,4343985,4344273,290,1511.7,577.5,5056,right
24,1,binary,28,2,trial,4342495.0,4344429.0,1934.0,28,L,4344293,4344393,102,1616.8,581.9,5106,right
24,1,binary,28,2,trial,4342495.0,4344429.0,1934.0,28,L,4344473,4344659,188,502.0,494.1,5299,left
24,1,binary,28,2,postResponse,4342495.0,4344429.0,1934.0,28,L,4344719,4344763,46,945.6,517.8,5201,NA
24,1,binary,29,2,trial,4345146.0,4346913.0,1767.0,29,L,4344863,4345323,462,970.8,527.5,5414,NA
24,1,binary,29,2,trial,4345146.0,4346913.0,1767.0,29,L,4345367,4345667,302,582.7,542.7,5342,left
24,1,binary,29,2,trial,4345146.0,4346913.0,1767.0,29,L,4345693,4345891,200,469.8,431.9,4953,left
24,1,binary,29,2,trial,4345146.0,4346913.0,1767.0,29,L,4345959,4346235,278,1380.3,607.1,4862,right
24,1,binary,29,2,trial,4345146.0,4346913.0,1767.0,29,L,4346261,4346889,630,1471.6,657.4,4831,right
24,1,binary,29,2,trial,4345146.0,4346913.0,1767.0,29,L,4346929,4347097,170,1432.6,986.7,4885,NA
24,1,binary,29,2,postResponse,4345146.0,4346913.0,1767.0,29,L,4347157,4347247,92,1007.6,543.9,4980,NA
24,1,binary,30,2,fixationCross,4347596.0,4349362.0,1766.0,30,L,4347321,4347343,24,1008.2,540.6,4943,NA
24,1,binary,30,2,trial,4347596.0,4349362.0,1766.0,30,L,4347357,4347775,420,936.1,506.9,5107,NA
24,1,binary,30,2,trial,4347596.0,4349362.0,1766.0,30,L,4347817,4348003,188,555.9,552.5,5281,left
24,1,binary,30,2,trial,4347596.0,4349362.0,1766.0,30,L,4348075,4348387,314,1380.5,549.0,4891,right
24,1,binary,30,2,trial,4347596.0,4349362.0,1766.0,30,L,4348411,4348747,338,1516.5,552.5,4813,right
24,1,binary,30,2,trial,4347596.0,4349362.0,1766.0,30,L,4348817,4349135,320,449.5,521.8,4935,left
24,1,binary,30,2,trial,4347596.0,4349362.0,1766.0,30,L,4349155,4349527,374,441.0,576.1,5018,left
24,1,binary,30,2,postResponse,4347596.0,4349362.0,1766.0,30,L,4349575,4349697,124,1056.5,511.1,4945,NA
24,1,binary,31,1,trial,4350063.0,4352129.0,2066.0,31,L,4349797,4350245,450,1096.5,517.0,5139,NA
24,1,binary,31,1,trial,4350063.0,4352129.0,2066.0,31,L,4350289,4350553,266,1427.7,552.6,5119,right
24,1,binary,31,1,trial,4350063.0,4352129.0,2066.0,31,L,4350623,4350911,290,597.0,504.7,4690,left
24,1,binary,31,1,trial,4350063.0,4352129.0,2066.0,31,L,4350931,4351125,196,540.8,477.1,4681,left
24,1,binary,31,1,trial,4350063.0,4352129.0,2066.0,31,L,4351169,4351429,262,372.0,705.8,4920,left
24,1,binary,31,1,trial,4350063.0,4352129.0,2066.0,31,L,4351441,4351579,140,353.5,681.3,4943,left
24,1,binary,31,1,trial,4350063.0,4352129.0,2066.0,31,L,4351651,4351833,184,1387.2,900.5,4852,NA
24,1,binary,31,1,trial,4350063.0,4352129.0,2066.0,31,L,4351891,4352105,216,661.1,517.5,4947,left
24,1,binary,31,1,trial,4350063.0,4352129.0,2066.0,31,L,4352133,4352299,168,539.0,449.4,5077,left
24,1,binary,31,1,postResponse,4350063.0,4352129.0,2066.0,31,L,4352343,4352477,136,954.4,443.5,5231,NA
24,1,binary,32,2,trial,4352846.0,4354479.0,1633.0,32,L,4352577,4353057,482,1023.3,499.6,5432,NA
24,1,binary,32,2,trial,4352846.0,4354479.0,1633.0,32,L,4353107,4353299,194,724.8,515.0,5451,left
24,1,binary,32,2,trial,4352846.0,4354479.0,1633.0,32,L,4353373,4353593,222,1437.7,560.0,5358,right
24,1,binary,32,2,trial,4352846.0,4354479.0,1633.0,32,L,4353669,4353971,304,416.7,465.9,5403,left
24,1,binary,32,2,trial,4352846.0,4354479.0,1633.0,32,L,4354053,4354383,332,1395.2,575.5,5503,right
24,1,binary,32,2,trial,4352846.0,4354479.0,1633.0,32,L,4354457,4354795,340,506.8,513.6,5363,left
24,1,binary,33,2,fixationCross,4355213.0,4357830.0,2617.0,33,L,4354929,4355061,134,759.9,495.6,5421,NA
24,1,binary,33,2,trial,4355213.0,4357830.0,2617.0,33,L,4355105,4355389,286,947.6,527.3,5660,NA
24,1,binary,33,2,trial,4355213.0,4357830.0,2617.0,33,L,4355435,4355595,162,530.2,580.2,5709,left
24,1,binary,33,2,trial,4355213.0,4357830.0,2617.0,33,L,4355675,4355945,272,1431.6,551.5,4967,right
24,1,binary,33,2,trial,4355213.0,4357830.0,2617.0,33,L,4355967,4356131,166,1467.7,463.5,4887,right
24,1,binary,33,2,trial,4355213.0,4357830.0,2617.0,33,L,4356153,4356407,256,1351.2,443.4,4987,right
24,1,binary,33,2,trial,4355213.0,4357830.0,2617.0,33,L,4356435,4356681,248,1421.4,558.6,5061,right
24,1,binary,33,2,trial,4355213.0,4357830.0,2617.0,33,L,4356857,4357139,284,487.8,579.0,5139,left
24,1,binary,33,2,trial,4355213.0,4357830.0,2617.0,33,L,4357155,4357363,210,446.8,556.8,4961,left
24,1,binary,33,2,trial,4355213.0,4357830.0,2617.0,33,L,4357437,4357699,264,1461.0,527.2,4706,right
24,1,binary,33,2,trial,4355213.0,4357830.0,2617.0,33,L,4357729,4358047,320,1320.5,425.9,4873,right
24,1,binary,33,2,postResponse,4355213.0,4357830.0,2617.0,33,L,4358071,4358163,94,1261.6,489.6,4985,right
24,1,binary,34,1,trial,4358530.0,4359979.0,1449.0,34,L,4358263,4358743,482,1253.8,482.9,5315,right
24,1,binary,34,1,trial,4358530.0,4359979.0,1449.0,34,L,4358783,4358971,190,1483.7,561.3,5170,right
24,1,binary,34,1,trial,4358530.0,4359979.0,1449.0,34,L,4359039,4359329,292,685.9,548.5,4833,left
24,1,binary,34,1,trial,4358530.0,4359979.0,1449.0,34,L,4359347,4359643,298,635.9,523.9,4761,left
24,1,binary,34,1,trial,4358530.0,4359979.0,1449.0,34,L,4359653,4360181,530,610.2,500.5,4766,left
24,1,binary,34,1,postResponse,4358530.0,4359979.0,1449.0,34,L,4360231,4360327,98,958.4,549.9,4807,NA
24,1,binary,35,1,fixationCross,4360680.0,4362079.0,1399.0,35,L,4360401,4360449,50,961.0,549.7,4886,NA
24,1,binary,35,1,trial,4360680.0,4362079.0,1399.0,35,L,4360475,4360847,374,1090.7,497.0,5111,NA
24,1,binary,35,1,trial,4360680.0,4362079.0,1399.0,35,L,4360897,4361217,322,1447.0,553.9,5191,right
24,1,binary,35,1,trial,4360680.0,4362079.0,1399.0,35,L,4361297,4361693,398,605.6,545.0,4931,left
24,1,binary,35,1,trial,4360680.0,4362079.0,1399.0,35,L,4361707,4362275,570,632.2,502.9,4765,left
24,1,binary,35,1,trial,4360680.0,4362079.0,1399.0,35,L,4362309,4362323,16,845.8,548.9,4805,NA
24,1,binary,35,1,postResponse,4360680.0,4362079.0,1399.0,35,L,4362333,4362413,82,970.2,567.1,4798,NA
24,1,binary,36,2,fixationCross,4362779.0,4364196.0,1417.0,36,L,4362487,4362717,232,981.4,559.1,4926,NA
24,1,binary,36,2,trial,4362779.0,4364196.0,1417.0,36,L,4362733,4362965,234,1007.9,516.0,5105,NA
24,1,binary,36,2,trial,4362779.0,4364196.0,1417.0,36,L,4363017,4363231,216,1382.4,535.4,5136,right
24,1,binary,36,2,trial,4362779.0,4364196.0,1417.0,36,L,4363253,4363575,324,1507.1,552.8,4943,right
24,1,binary,36,2,trial,4362779.0,4364196.0,1417.0,36,L,4363599,4363913,316,1369.8,470.2,4895,right
24,1,binary,36,2,trial,4362779.0,4364196.0,1417.0,36,L,4363987,4364385,400,458.3,527.4,4950,left
24,1,binary,36,2,postResponse,4362779.0,4364196.0,1417.0,36,L,4364465,4364547,84,1117.9,521.3,4861,NA
24,1,binary,37,2,trial,4364913.0,4366896.0,1983.0,37,L,4364647,4365109,464,1125.2,518.9,5203,NA
24,1,binary,37,2,trial,4364913.0,4366896.0,1983.0,37,L,4365139,4365485,348,1395.4,546.6,5122,right
24,1,binary,37,2,trial,4364913.0,4366896.0,1983.0,37,L,4365505,4365911,408,1441.0,492.8,4902,right
24,1,binary,37,2,trial,4364913.0,4366896.0,1983.0,37,L,4365987,4366243,258,537.2,490.3,5016,left
24,1,binary,37,2,trial,4364913.0,4366896.0,1983.0,37,L,4366263,4366867,606,477.7,469.2,5014,left
24,1,binary,37,2,trial,4364913.0,4366896.0,1983.0,37,L,4366881,4367111,232,468.4,494.1,5193,left
24,1,binary,37,2,postResponse,4364913.0,4366896.0,1983.0,37,L,4367205,4367231,28,1178.2,571.1,5235,NA
24,1,binary,38,1,fixationCross,4367580.0,4369013.0,1433.0,38,L,4367331,4367397,68,1197.6,566.5,5257,right
24,1,binary,38,1,trial,4367580.0,4369013.0,1433.0,38,L,4367423,4367759,338,1092.3,518.4,5407,NA
24,1,binary,38,1,trial,4367580.0,4369013.0,1433.0,38,L,4367799,4368129,332,1350.9,522.5,5477,right
24,1,binary,38,1,trial,4367580.0,4369013.0,1433.0,38,L,4368151,4368325,176,1464.3,530.2,5251,right
24,1,binary,38,1,trial,4367580.0,4369013.0,1433.0,38,L,4368399,4368691,294,564.8,550.1,5283,left
24,1,binary,38,1,trial,4367580.0,4369013.0,1433.0,38,L,4368719,4369261,544,471.6,598.9,5256,left
24,1,binary,38,1,postResponse,4367580.0,4369013.0,1433.0,38,L,4369287,4369361,76,680.0,582.8,5151,left
24,1,binary,39,2,fixationCross,4369680.0,4371796.0,2116.0,39,L,4369435,4369515,82,692.7,576.4,5238,left
24,1,binary,39,2,trial,4369680.0,4371796.0,2116.0,39,L,4369543,4369871,330,898.8,531.0,5508,NA
24,1,binary,39,2,trial,4369680.0,4371796.0,2116.0,39,L,4369921,4370409,490,1399.7,546.9,5142,right
24,1,binary,39,2,trial,4369680.0,4371796.0,2116.0,39,L,4370449,4370545,98,1156.8,569.7,5020,NA
24,1,binary,39,2,trial,4369680.0,4371796.0,2116.0,39,L,4370597,4370773,178,587.2,517.8,5147,left
24,1,binary,39,2,trial,4369680.0,4371796.0,2116.0,39,L,4370795,4371049,256,513.5,523.3,5129,left
24,1,binary,39,2,trial,4369680.0,4371796.0,2116.0,39,L,4371079,4371219,142,552.1,644.0,5052,left
24,1,binary,39,2,trial,4369680.0,4371796.0,2116.0,39,L,4371281,4372107,828,1369.6,638.8,5070,right
24,1,binary,40,2,fixationCross,4372446.0,4374313.0,1867.0,40,L,4372205,4372315,112,1245.0,567.1,5177,right
24,1,binary,40,2,trial,4372446.0,4374313.0,1867.0,40,L,4372337,4372655,320,1099.0,537.2,5401,NA
24,1,binary,40,2,trial,4372446.0,4374313.0,1867.0,40,L,4372697,4372975,280,1347.3,487.9,5402,right
24,1,binary,40,2,trial,4372446.0,4374313.0,1867.0,40,L,4373033,4373473,442,560.7,540.2,5216,left
24,1,binary,40,2,trial,4372446.0,4374313.0,1867.0,40,L,4373489,4373669,182,606.0,514.6,5279,left
24,1,binary,40,2,trial,4372446.0,4374313.0,1867.0,40,L,4373679,4373791,114,631.9,502.1,5221,left
24,1,binary,40,2,trial,4372446.0,4374313.0,1867.0,40,L,4373853,4374531,680,1376.9,469.1,5012,right
24,1,binary,40,2,postResponse,4372446.0,4374313.0,1867.0,40,L,4374555,4374645,92,1267.9,521.4,4947,right
24,1,binary,41,1,trial,4374996.0,4377263.0,2267.0,41,L,4374761,4375171,412,1070.1,539.0,5219,NA
24,1,binary,41,1,trial,4374996.0,4377263.0,2267.0,41,L,4375217,4375483,268,1373.3,542.6,5226,right
24,1,binary,41,1,trial,4374996.0,4377263.0,2267.0,41,L,4375521,4375553,34,1269.6,486.1,5036,right
24,1,binary,41,1,trial,4374996.0,4377263.0,2267.0,41,L,4375577,4375753,178,1422.7,483.7,4914,right
24,1,binary,41,1,trial,4374996.0,4377263.0,2267.0,41,L,4375779,4376003,226,1573.2,526.9,4879,right
24,1,binary,41,1,trial,4374996.0,4377263.0,2267.0,41,L,4376085,4376367,284,533.3,543.5,4893,left
24,1,binary,41,1,trial,4374996.0,4377263.0,2267.0,41,L,4376385,4376749,366,611.3,525.2,4857,left
24,1,binary,41,1,trial,4374996.0,4377263.0,2267.0,41,L,4376815,4377199,386,1523.1,539.3,4977,right
24,1,binary,41,1,trial,4374996.0,4377263.0,2267.0,41,L,4377223,4377473,252,1622.1,620.8,4854,right
24,1,binary,41,1,postResponse,4374996.0,4377263.0,2267.0,41,L,4377545,4377611,68,838.8,708.9,5012,NA
24,1,binary,42,1,fixationCross,4377980.0,4379979.0,1999.0,42,L,4377711,4377785,76,837.9,716.8,5191,NA
24,1,binary,42,1,trial,4377980.0,4379979.0,1999.0,42,L,4377827,4378155,330,967.2,495.5,5306,NA
24,1,binary,42,1,trial,4377980.0,4379979.0,1999.0,42,L,4378207,4378409,204,1412.6,533.4,5151,right
24,1,binary,42,1,trial,4377980.0,4379979.0,1999.0,42,L,4378435,4378575,142,1586.4,506.8,4968,right
24,1,binary,42,1,trial,4377980.0,4379979.0,1999.0,42,L,4378653,4379081,430,528.8,529.1,5050,left
24,1,binary,42,1,trial,4377980.0,4379979.0,1999.0,42,L,4379157,4379519,364,1551.4,537.1,4892,right
24,1,binary,42,1,trial,4377980.0,4379979.0,1999.0,42,L,4379539,4379793,256,1645.8,506.1,4950,right
24,1,binary,42,1,trial,4377980.0,4379979.0,1999.0,42,L,4379861,4380023,164,1439.2,935.9,5190,NA
24,1,binary,42,1,trial,4377980.0,4379979.0,1999.0,42,L,4380083,4380275,194,1253.4,531.2,5132,right
24,1,binary,43,2,trial,4380696.0,4381996.0,1300.0,43,L,4380413,4380855,444,1097.3,515.2,5315,NA
24,1,binary,43,2,trial,4380696.0,4381996.0,1300.0,43,L,4380895,4381071,178,1407.1,517.6,5293,right
24,1,binary,43,2,trial,4380696.0,4381996.0,1300.0,43,L,4381087,4381295,210,1447.7,476.1,5094,right
24,1,binary,43,2,trial,4380696.0,4381996.0,1300.0,43,L,4381365,4381893,530,651.7,474.3,5086,left
24,1,binary,43,2,trial,4380696.0,4381996.0,1300.0,43,L,4381935,4382149,216,326.8,530.7,5031,left
24,1,binary,43,2,postResponse,4380696.0,4381996.0,1300.0,43,L,4382275,4382331,58,1228.8,623.2,5123,right
24,1,binary,44,2,fixationCross,4382680.0,4384780.0,2100.0,44,L,4382405,4382421,18,1237.6,620.5,5213,right
24,1,binary,44,2,trial,4382680.0,4384780.0,2100.0,44,L,4382465,4382877,414,1030.6,501.7,5493,NA
24,1,binary,44,2,trial,4382680.0,4384780.0,2100.0,44,L,4382929,4383101,174,1479.6,547.6,5250,right
24,1,binary,44,2,trial,4382680.0,4384780.0,2100.0,44,L,4383123,4383437,316,1614.2,503.9,4913,right
24,1,binary,44,2,trial,4382680.0,4384780.0,2100.0,44,L,4383519,4383831,314,478.8,548.5,4971,left
24,1,binary,44,2,trial,4382680.0,4384780.0,2100.0,44,L,4383849,4384261,414,407.4,536.0,4952,left
24,1,binary,44,2,trial,4382680.0,4384780.0,2100.0,44,L,4384339,4384651,314,1558.4,526.1,4809,right
24,1,binary,44,2,trial,4382680.0,4384780.0,2100.0,44,L,4384667,4384983,318,1615.5,507.5,4828,right
24,1,binary,44,2,postResponse,4382680.0,4384780.0,2100.0,44,L,4385005,4385113,110,1504.5,537.2,4872,right
24,1,binary,45,1,trial,4385446.0,4387163.0,1717.0,45,L,4385187,4385689,504,1384.3,514.4,5007,right
24,1,binary,45,1,trial,4385446.0,4387163.0,1717.0,45,L,4385709,4385931,224,1438.3,553.0,4965,right
24,1,binary,45,1,trial,4385446.0,4387163.0,1717.0,45,L,4386005,4386369,366,572.7,582.3,5067,left
24,1,binary,45,1,trial,4385446.0,4387163.0,1717.0,45,L,4386433,4386799,368,1427.0,555.5,5019,right
24,1,binary,45,1,trial,4385446.0,4387163.0,1717.0,45,L,4386827,4387127,302,1474.0,646.1,5272,right
24,1,binary,45,1,trial,4385446.0,4387163.0,1717.0,45,L,4387191,4387461,272,567.5,575.4,5413,left
24,1,binary,46,1,trial,4387846.0,4389830.0,1984.0,46,L,4387573,4388025,454,954.3,493.5,5337,NA
24,1,binary,46,1,trial,4387846.0,4389830.0,1984.0,46,L,4388077,4388333,258,1389.7,540.7,5325,right
24,1,binary,46,1,trial,4387846.0,4389830.0,1984.0,46,L,4388561,4388809,250,482.8,541.2,5154,left
24,1,binary,46,1,trial,4387846.0,4389830.0,1984.0,46,L,4388831,4389089,260,560.9,478.5,5013,left
24,1,binary,46,1,trial,4387846.0,4389830.0,1984.0,46,L,4389117,4389379,264,392.2,479.0,4839,left
24,1,binary,46,1,trial,4387846.0,4389830.0,1984.0,46,L,4389405,4389833,430,543.2,474.5,4850,left
24,1,binary,46,1,trial,4387846.0,4389830.0,1984.0,46,L,4389847,4390035,190,585.1,474.3,4871,left
24,1,binary,46,1,postResponse,4387846.0,4389830.0,1984.0,46,L,4390091,4390167,78,1100.8,508.6,4816,NA
24,1,binary,47,1,trial,4390513.0,4392663.0,2150.0,47,L,4390241,4390673,434,1136.8,517.8,5128,NA
24,1,binary,47,1,trial,4390513.0,4392663.0,2150.0,47,L,4390709,4391117,410,1425.8,572.0,4905,right
24,1,binary,47,1,trial,4390513.0,4392663.0,2150.0,47,L,4391179,4391415,238,587.7,531.9,4694,left
24,1,binary,47,1,trial,4390513.0,4392663.0,2150.0,47,L,4391441,4391811,372,372.7,485.1,4692,left
24,1,binary,47,1,trial,4390513.0,4392663.0,2150.0,47,L,4391863,4392243,382,622.6,619.3,4880,left
24,1,binary,47,1,trial,4390513.0,4392663.0,2150.0,47,L,4392307,4392919,614,1414.5,565.5,4685,right
24,1,binary,47,1,postResponse,4390513.0,4392663.0,2150.0,47,L,4392943,4392999,58,1249.5,529.1,4738,right
24,1,binary,48,2,fixationCross,4393363.0,4394896.0,1533.0,48,L,4393073,4393103,32,1246.2,525.8,4751,right
24,1,binary,48,2,trial,4393363.0,4394896.0,1533.0,48,L,4393129,4393539,412,1085.1,512.6,5035,NA
24,1,binary,48,2,trial,4393363.0,4394896.0,1533.0,48,L,4393567,4393941,376,1321.2,538.6,5027,right
24,1,binary,48,2,trial,4393363.0,4394896.0,1533.0,48,L,4394011,4394347,338,529.1,515.6,4933,left
24,1,binary,48,2,trial,4393363.0,4394896.0,1533.0,48,L,4394369,4394495,128,417.3,546.4,4678,left
24,1,binary,48,2,trial,4393363.0,4394896.0,1533.0,48,L,4394571,4395101,532,1377.0,559.4,4699,right
24,1,binary,49,2,trial,4395613.0,4397463.0,1850.0,49,L,4395349,4395791,444,989.0,499.4,5131,NA
24,1,binary,49,2,trial,4395613.0,4397463.0,1850.0,49,L,4395845,4396345,502,1492.2,539.0,4803,right
24,1,binary,49,2,trial,4395613.0,4397463.0,1850.0,49,L,4396419,4396783,366,600.0,529.5,4796,left
24,1,binary,49,2,trial,4395613.0,4397463.0,1850.0,49,L,4396853,4397213,362,1491.9,537.4,4674,right
24,1,binary,49,2,trial,4395613.0,4397463.0,1850.0,49,L,4397233,4397417,186,1591.8,547.7,4772,right
24,1,binary,49,2,trial,4395613.0,4397463.0,1850.0,49,L,4397497,4397729,234,554.3,527.1,4945,left
24,1,binary,50,2,trial,4398147.0,4399230.0,1083.0,50,L,4397873,4398287,416,968.5,503.9,4931,NA
24,1,binary,50,2,trial,4398147.0,4399230.0,1083.0,50,L,4398335,4398643,310,1380.1,529.5,4956,right
24,1,binary,50,2,trial,4398147.0,4399230.0,1083.0,50,L,4398667,4398833,168,1523.5,556.2,4745,right
24,1,binary,50,2,trial,4398147.0,4399230.0,1083.0,50,L,4398907,4399431,526,582.3,556.9,4917,left
24,1,binary,50,2,postResponse,4398147.0,4399230.0,1083.0,50,L,4399491,4399565,76,1018.6,506.1,4933,NA
24,2,continuous,1,80,trial,4472280.0,4476664.0,4384.0,51,L,4471992,4472280,290,991.3,675.1,5637,NA
24,2,continuous,1,80,trial,4472280.0,4476664.0,4384.0,51,L,4472302,4472468,168,996.4,608.7,5493,NA
24,2,continuous,1,80,trial,4472280.0,4476664.0,4384.0,51,L,4472514,4472814,302,506.7,593.2,5400,left
24,2,continuous,1,80,trial,4472280.0,4476664.0,4384.0,51,L,4472842,4473072,232,422.3,454.4,5100,left
24,2,continuous,1,80,trial,4472280.0,4476664.0,4384.0,51,L,4473104,4473190,88,613.1,507.3,4975,left
24,2,continuous,1,80,trial,4472280.0,4476664.0,4384.0,51,L,4473254,4473934,682,1430.1,581.2,4916,right
24,2,continuous,1,80,trial,4472280.0,4476664.0,4384.0,51,L,4473984,4474066,84,1401.6,811.3,5009,NA
24,2,continuous,1,80,trial,4472280.0,4476664.0,4384.0,51,L,4474100,4474362,264,1471.7,999.5,5113,NA
24,2,continuous,1,80,trial,4472280.0,4476664.0,4384.0,51,L,4474420,4474770,352,1449.5,553.5,4948,right
24,2,continuous,1,80,trial,4472280.0,4476664.0,4384.0,51,L,4474844,4475042,200,547.7,508.8,4847,left
24,2,continuous,1,80,trial,4472280.0,4476664.0,4384.0,51,L,4475116,4475420,306,1449.2,962.9,4922,NA
24,2,continuous,1,80,trial,4472280.0,4476664.0,4384.0,51,L,4475474,4475692,220,1465.8,576.0,4858,right
24,2,continuous,1,80,trial,4472280.0,4476664.0,4384.0,51,L,4475766,4476440,676,525.1,531.2,4987,left
24,2,continuous,1,80,trial,4472280.0,4476664.0,4384.0,51,L,4476470,4476802,334,386.2,425.4,5019,left
24,2,continuous,1,80,postResponse,4472280.0,4476664.0,4384.0,51,L,4476854,4477000,148,962.0,505.1,5032,NA
24,2,continuous,2,84,trial,4477347.0,4479215.0,1868.0,52,L,4477074,4477528,456,969.0,505.4,5304,NA
24,2,continuous,2,84,trial,4477347.0,4479215.0,1868.0,52,L,4477580,4477878,300,1440.7,500.9,5208,right
24,2,continuous,2,84,trial,4477347.0,4479215.0,1868.0,52,L,4477954,4478194,242,590.9,521.8,5022,left
24,2,continuous,2,84,trial,4477347.0,4479215.0,1868.0,52,L,4478216,4478492,278,524.5,544.8,5077,left
24,2,continuous,2,84,trial,4477347.0,4479215.0,1868.0,52,L,4478570,4478994,426,1434.5,497.0,5111,right
24,2,continuous,2,84,trial,4477347.0,4479215.0,1868.0,52,L,4479008,4479416,410,1456.8,463.4,4891,right
24,2,continuous,2,84,postResponse,4477347.0,4479215.0,1868.0,52,L,4479440,4479550,112,1317.2,516.1,4956,right
24,2,continuous,3,3,trial,4479897.0,4482648.0,2751.0,53,L,4479626,4480092,468,1052.5,496.2,5266,NA
24,2,continuous,3,3,trial,4479897.0,4482648.0,2751.0,53,L,4480134,4480530,398,1411.2,511.2,5128,right
24,2,continuous,3,3,trial,4479897.0,4482648.0,2751.0,53,L,4480602,4480832,232,638.6,518.8,5136,left
24,2,continuous,3,3,trial,4479897.0,4482648.0,2751.0,53,L,4480866,4481254,390,441.3,568.4,5167,left
24,2,continuous,3,3,trial,4479897.0,4482648.0,2751.0,53,L,4481324,4481702,380,1471.4,515.9,4998,right
24,2,continuous,3,3,trial,4479897.0,4482648.0,2751.0,53,L,4481730,4482118,390,1611.4,618.5,5092,right
24,2,continuous,3,3,trial,4479897.0,4482648.0,2751.0,53,L,4482206,4482490,286,485.4,506.5,5162,left
24,2,continuous,3,3,trial,4479897.0,4482648.0,2751.0,53,L,4482518,4482868,352,406.6,432.4,5229,left
24,2,continuous,3,3,postResponse,4479897.0,4482648.0,2751.0,53,L,4482926,4482982,58,976.0,556.1,5467,NA
24,2,continuous,4,82,trial,4483347.0,4487331.0,3984.0,54,L,4483082,4483544,464,1010.8,556.5,5632,NA
24,2,continuous,4,82,trial,4483347.0,4487331.0,3984.0,54,L,4483594,4483794,202,1443.8,578.4,5254,right
24,2,continuous,4,82,trial,4483347.0,4487331.0,3984.0,54,L,4483818,4484176,360,1483.1,507.2,4967,right
24,2,continuous,4,82,trial,4483347.0,4487331.0,3984.0,54,L,4484256,4484594,340,488.4,504.9,5010,left
24,2,continuous,4,82,trial,4483347.0,4487331.0,3984.0,54,L,4484612,4484958,348,467.4,456.4,4800,left
24,2,continuous,4,82,trial,4483347.0,4487331.0,3984.0,54,L,4485018,4485318,302,688.0,923.2,5011,NA
24,2,continuous,4,82,trial,4483347.0,4487331.0,3984.0,54,L,4485382,4485648,268,1493.9,569.7,4963,right
24,2,continuous,4,82,trial,4483347.0,4487331.0,3984.0,54,L,4485672,4486100,430,1470.7,497.0,4997,right
24,2,continuous,4,82,trial,4483347.0,4487331.0,3984.0,54,L,4486164,4486404,242,543.8,516.2,5139,left
24,2,continuous,4,82,trial,4483347.0,4487331.0,3984.0,54,L,4486472,4486664,194,1279.9,861.9,4986,NA
24,2,continuous,4,82,trial,4483347.0,4487331.0,3984.0,54,L,4486692,4486978,288,1402.3,947.5,5066,NA
24,2,continuous,4,82,trial,4483347.0,4487331.0,3984.0,54,L,4487038,4487204,168,1393.3,527.0,5064,right
24,2,continuous,4,82,trial,4483347.0,4487331.0,3984.0,54,L,4487250,4487536,288,828.3,482.8,5046,NA
24,2,continuous,5,100,fixationCross,4488031.0,4489914.0,1883.0,55,L,4487754,4487980,228,1051.8,476.2,5196,NA
24,2,continuous,5,100,trial,4488031.0,4489914.0,1883.0,55,L,4488002,4488226,226,954.8,468.6,5244,NA
24,2,continuous,5,100,trial,4488031.0,4489914.0,1883.0,55,L,4488294,4488650,358,1423.1,501.6,4878,right
24,2,continuous,5,100,trial,4488031.0,4489914.0,1883.0,55,L,4488722,4488986,266,548.5,483.8,4736,left
24,2,continuous,5,100,trial,4488031.0,4489914.0,1883.0,55,L,4489010,4489114,106,444.0,479.9,4739,left
24,2,continuous,5,100,trial,4488031.0,4489914.0,1883.0,55,L,4489178,4489750,574,1395.1,558.0,4885,right
24,2,continuous,5,100,trial,4488031.0,4489914.0,1883.0,55,L,4489804,4490156,354,1507.5,1006.0,5022,NA
24,2,continuous,5,100,postResponse,4488031.0,4489914.0,1883.0,55,L,4490226,4490258,34,1082.8,476.2,4862,NA
24,2,continuous,6,74,trial,4490614.0,4494147.0,3533.0,56,L,4490332,4490776,446,1082.5,472.3,5103,NA
24,2,continuous,6,74,trial,4490614.0,4494147.0,3533.0,56,L,4490822,4491118,298,1427.1,494.0,5008,right
24,2,continuous,6,74,trial,4490614.0,4494147.0,3533.0,56,L,4491190,4491478,290,581.1,488.5,4699,left
24,2,continuous,6,74,trial,4490614.0,4494147.0,3533.0,56,L,4491506,4491816,312,427.8,545.1,4833,left
24,2,continuous,6,74,trial,4490614.0,4494147.0,3533.0,56,L,4491838,4492102,266,323.2,527.3,4925,left
24,2,continuous,6,74,trial,4490614.0,4494147.0,3533.0,56,L,4492130,4492496,368,512.9,624.7,4993,left
24,2,continuous,6,74,trial,4490614.0,4494147.0,3533.0,56,L,4492514,4492720,208,469.3,639.3,5003,left
24,2,continuous,6,74,trial,4490614.0,4494147.0,3533.0,56,L,4492756,4493078,324,500.3,437.0,4907,left
24,2,continuous,6,74,trial,4490614.0,4494147.0,3533.0,56,L,4493150,4493314,166,1282.2,570.1,5001,right
24,2,continuous,6,74,trial,4490614.0,4494147.0,3533.0,56,L,4493336,4494104,770,1411.1,471.9,4960,right
24,2,continuous,6,74,trial,4490614.0,4494147.0,3533.0,56,L,4494160,4494366,208,1516.7,973.7,4935,NA
24,2,continuous,6,74,postResponse,4490614.0,4494147.0,3533.0,56,L,4494426,4494484,60,953.9,507.1,4878,NA
24,2,continuous,7,66,trial,4494831.0,4500715.0,5884.0,57,L,4494560,4495020,462,949.4,498.3,5074,NA
24,2,continuous,7,66,trial,4494831.0,4500715.0,5884.0,57,L,4495086,4495370,286,1400.1,542.5,5036,right
24,2,continuous,7,66,trial,4494831.0,4500715.0,5884.0,57,L,4495440,4495570,132,772.1,556.3,5007,NA
24,2,continuous,7,66,trial,4494831.0,4500715.0,5884.0,57,L,4495604,4496210,608,459.0,632.1,4976,left
24,2,continuous,7,66,trial,4494831.0,4500715.0,5884.0,57,L,4496230,4496420,192,436.2,570.1,4914,left
24,2,continuous,7,66,trial,4494831.0,4500715.0,5884.0,57,L,4496492,4496820,330,1366.6,539.4,4900,right
24,2,continuous,7,66,trial,4494831.0,4500715.0,5884.0,57,L,4496882,4497376,496,441.5,594.6,4982,left
24,2,continuous,7,66,trial,4494831.0,4500715.0,5884.0,57,L,4497400,4497624,226,334.1,572.8,5042,left
24,2,continuous,7,66,trial,4494831.0,4500715.0,5884.0,57,L,4497686,4497858,174,606.5,960.2,5389,NA
24,2,continuous,7,66,trial,4494831.0,4500715.0,5884.0,57,L,4497900,4498414,516,851.8,936.6,5326,likertHorizontal
24,2,continuous,7,66,trial,4494831.0,4500715.0,5884.0,57,L,4498474,4498806,334,1364.4,579.6,5302,right
24,2,continuous,7,66,trial,4494831.0,4500715.0,5884.0,57,L,4498816,4499254,440,1379.9,552.3,5111,right
24,2,continuous,7,66,trial,4494831.0,4500715.0,5884.0,57,L,4499320,4499498,180,969.9,964.7,5305,likertHorizontal
24,2,continuous,7,66,trial,4494831.0,4500715.0,5884.0,57,L,4499548,4499700,154,1433.4,995.4,5161,NA
24,2,continuous,7,66,trial,4494831.0,4500715.0,5884.0,57,L,4499750,4500258,510,1077.1,915.0,5132,likertHorizontal
24,2,continuous,7,66,trial,4494831.0,4500715.0,5884.0,57,L,4500316,4500652,338,1274.1,543.2,5220,right
24,2,continuous,7,66,postResponse,4494831.0,4500715.0,5884.0,57,L,4500684,4501046,364,1203.0,559.9,5272,right
24,2,continuous,8,100,trial,4501415.0,4503181.0,1766.0,58,L,4501120,4501450,332,1187.9,562.5,5613,right
24,2,continuous,8,100,trial,4501415.0,4503181.0,1766.0,58,L,4501490,4501652,164,986.3,525.0,5649,NA
24,2,continuous,8,100,trial,4501415.0,4503181.0,1766.0,58,L,4501698,4501910,214,1349.8,521.0,5329,right
24,2,continuous,8,100,trial,4501415.0,4503181.0,1766.0,58,L,4501984,4502240,258,523.1,542.4,5131,left
24,2,continuous,8,100,trial,4501415.0,4503181.0,1766.0,58,L,4502266,4502506,242,461.4,632.6,5014,left
24,2,continuous,8,100,trial,4501415.0,4503181.0,1766.0,58,L,4502586,4503086,502,1371.4,531.4,4871,right
24,2,continuous,8,100,trial,4501415.0,4503181.0,1766.0,58,L,4503162,4503360,200,500.5,530.9,4890,left
24,2,continuous,8,100,postResponse,4501415.0,4503181.0,1766.0,58,L,4503412,4503518,108,1049.6,498.3,4972,NA
24,2,continuous,9,100,trial,4503898.0,4507931.0,4033.0,59,L,4503618,4504082,466,1059.7,495.0,5304,NA
24,2,continuous,9,100,trial,4503898.0,4507931.0,4033.0,59,L,4504130,4504480,352,1431.3,494.2,5106,right
24,2,continuous,9,100,trial,4503898.0,4507931.0,4033.0,59,L,4504518,4504614,98,1289.1,443.6,4990,right
24,2,continuous,9,100,trial,4503898.0,4507931.0,4033.0,59,L,4504682,4505234,554,519.2,498.5,5313,left
24,2,continuous,9,100,trial,4503898.0,4507931.0,4033.0,59,L,4505308,4505800,494,1405.8,451.3,5307,right
24,2,continuous,9,100,trial,4503898.0,4507931.0,4033.0,59,L,4505864,4506444,582,1379.7,928.0,5422,NA
24,2,continuous,9,100,trial,4503898.0,4507931.0,4033.0,59,L,4506520,4506926,408,535.4,503.3,5449,left
24,2,continuous,9,100,trial,4503898.0,4507931.0,4033.0,59,L,4506994,4507334,342,1434.6,454.9,5274,right
24,2,continuous,9,100,trial,4503898.0,4507931.0,4033.0,59,L,4507400,4507600,202,517.7,491.5,5522,left
24,2,continuous,9,100,trial,4503898.0,4507931.0,4033.0,59,L,4507696,4507950,256,1503.2,691.5,5339,right
24,2,continuous,9,100,trial,4503898.0,4507931.0,4033.0,59,L,4507982,4508228,248,1435.8,463.0,5340,right
24,2,continuous,10,100,trial,4508648.0,4513331.0,4683.0,60,L,4508368,4508818,452,1098.8,503.9,5431,NA
24,2,continuous,10,100,trial,4508648.0,4513331.0,4683.0,60,L,4508850,4509210,362,1418.5,498.8,5109,right
24,2,continuous,10,100,trial,4508648.0,4513331.0,4683.0,60,L,4509228,4509258,32,1369.8,456.5,4804,right
24,2,continuous,10,100,trial,4508648.0,4513331.0,4683.0,60,L,4509410,4509658,250,1372.5,454.8,4816,right
24,2,continuous,10,100,trial,4508648.0,4513331.0,4683.0,60,L,4509728,4509978,252,550.3,506.3,4886,left
24,2,continuous,10,100,trial,4508648.0,4513331.0,4683.0,60,L,4509994,4510172,180,607.0,472.8,4732,left
24,2,continuous,10,100,trial,4508648.0,4513331.0,4683.0,60,L,4510212,4510598,388,326.3,505.1,4741,left
24,2,continuous,10,100,trial,4508648.0,4513331.0,4683.0,60,L,4510634,4510814,182,341.3,674.0,4809,left
24,2,continuous,10,100,trial,4508648.0,4513331.0,4683.0,60,L,4511018,4511288,272,370.5,583.7,5013,left
24,2,continuous,10,100,trial,4508648.0,4513331.0,4683.0,60,L,4511334,4511612,280,647.8,476.5,4934,left
24,2,continuous,10,100,trial,4508648.0,4513331.0,4683.0,60,L,4511654,4512064,412,324.8,510.5,4928,left
24,2,continuous,10,100,trial,4508648.0,4513331.0,4683.0,60,L,4512174,4512268,96,1221.6,441.1,4908,right
24,2,continuous,10,100,trial,4508648.0,4513331.0,4683.0,60,L,4512294,4512676,384,1421.8,466.9,4866,right
24,2,continuous,10,100,trial,4508648.0,4513331.0,4683.0,60,L,4512694,4513164,472,1377.4,462.7,4814,right
24,2,continuous,10,100,trial,4508648.0,4513331.0,4683.0,60,L,4513232,4513296,66,1480.1,975.8,4893,NA
24,2,continuous,10,100,postResponse,4508648.0,4513331.0,4683.0,60,L,4513352,4513680,330,714.3,538.5,4894,left
24,2,continuous,11,1,trial,4514015.0,4515848.0,1833.0,61,L,4513778,4514186,410,1094.6,484.4,5147,NA
24,2,continuous,11,1,trial,4514015.0,4515848.0,1833.0,61,L,4514220,4514478,260,1373.7,539.7,5204,right
24,2,continuous,11,1,trial,4514015.0,4515848.0,1833.0,61,L,4514504,4514764,262,1388.2,599.9,4816,right
24,2,continuous,11,1,trial,4514015.0,4515848.0,1833.0,61,L,4514774,4514954,182,1375.5,586.3,4644,right
24,2,continuous,11,1,trial,4514015.0,4515848.0,1833.0,61,L,4515024,4515362,340,490.1,596.4,4593,left
24,2,continuous,11,1,trial,4514015.0,4515848.0,1833.0,61,L,4515386,4516028,644,363.1,573.7,4818,left
24,2,continuous,11,1,postResponse,4514015.0,4515848.0,1833.0,61,L,4516086,4516182,98,1093.8,546.3,4940,NA
24,2,continuous,12,1,trial,4516531.0,4518414.0,1883.0,62,L,4516256,4516688,434,1103.7,539.4,5084,NA
24,2,continuous,12,1,trial,4516531.0,4518414.0,1883.0,62,L,4516730,4517024,296,1381.4,527.8,5040,right
24,2,continuous,12,1,trial,4516531.0,4518414.0,1883.0,62,L,4517044,4517318,276,1476.7,474.2,4824,right
24,2,continuous,12,1,trial,4516531.0,4518414.0,1883.0,62,L,4517392,4517650,260,522.4,636.4,4949,left
24,2,continuous,12,1,trial,4516531.0,4518414.0,1883.0,62,L,4517690,4518036,348,336.1,489.5,4849,left
24,2,continuous,12,1,trial,4516531.0,4518414.0,1883.0,62,L,4518096,4518236,142,529.7,957.3,5060,NA
24,2,continuous,12,1,postResponse,4516531.0,4518414.0,1883.0,62,L,4518314,4518750,438,1439.9,555.0,4965,right
24,2,continuous,13,1,trial,4519097.0,4520481.0,1384.0,63,L,4518828,4519258,432,1228.2,508.0,5137,right
24,2,continuous,13,1,trial,4519097.0,4520481.0,1384.0,63,L,4519284,4519530,248,1427.3,515.4,5121,right
24,2,continuous,13,1,trial,4519097.0,4520481.0,1384.0,63,L,4519568,4519674,108,1569.7,485.9,4915,right
24,2,continuous,13,1,trial,4519097.0,4520481.0,1384.0,63,L,4519750,4519944,196,549.4,524.8,5047,left
24,2,continuous,13,1,trial,4519097.0,4520481.0,1384.0,63,L,4519974,4520670,698,485.9,644.9,5241,left
24,2,continuous,13,1,postResponse,4519097.0,4520481.0,1384.0,63,L,4520726,4520820,96,1135.8,559.3,5262,NA
24,2,continuous,14,76,fixationCross,4521165.0,4524181.0,3016.0,64,L,4520922,4521004,84,1162.8,552.3,5292,NA
24,2,continuous,14,76,trial,4521165.0,4524181.0,3016.0,64,L,4521024,4521338,316,1097.0,503.7,5355,NA
24,2,continuous,14,76,trial,4521165.0,4524181.0,3016.0,64,L,4521368,4521696,330,1355.6,538.8,5275,right
24,2,continuous,14,76,trial,4521165.0,4524181.0,3016.0,64,L,4521722,4521964,244,1538.7,476.1,4924,right
24,2,continuous,14,76,trial,4521165.0,4524181.0,3016.0,64,L,4522142,4522712,572,506.8,621.5,5037,left
24,2,continuous,14,76,trial,4521165.0,4524181.0,3016.0,64,L,4522726,4523110,386,494.9,582.9,4782,left
24,2,continuous,14,76,trial,4521165.0,4524181.0,3016.0,64,L,4523174,4523558,386,1332.1,537.7,4760,right
24,2,continuous,14,76,trial,4521165.0,4524181.0,3016.0,64,L,4523586,4524022,438,1535.0,487.9,4879,right
24,2,continuous,14,76,trial,4521165.0,4524181.0,3016.0,64,L,4524086,4524416,332,1238.6,943.4,5062,NA
24,2,continuous,14,76,postResponse,4521165.0,4524181.0,3016.0,64,L,4524458,4524514,58,1081.8,696.6,4892,NA
24,2,continuous,15,91,trial,4524848.0,4527265.0,2417.0,65,L,4524602,4525014,414,930.5,499.9,5091,NA
24,2,continuous,15,91,trial,4524848.0,4527265.0,2417.0,65,L,4525066,4525368,304,1410.0,533.4,5023,right
24,2,continuous,15,91,trial,4524848.0,4527265.0,2417.0,65,L,4525392,4525714,324,1557.8,536.8,4564,right
24,2,continuous,15,91,trial,4524848.0,4527265.0,2417.0,65,L,4525730,4525922,194,1614.7,538.2,4440,right
24,2,continuous,15,91,trial,4524848.0,4527265.0,2417.0,65,L,4525988,4526312,326,630.6,586.5,4608,left
24,2,continuous,15,91,trial,4524848.0,4527265.0,2417.0,65,L,4526340,4526502,164,496.1,597.1,4675,left
24,2,continuous,15,91,trial,4524848.0,4527265.0,2417.0,65,L,4526568,4526772,206,1321.1,893.8,4751,NA
24,2,continuous,15,91,trial,4524848.0,4527265.0,2417.0,65,L,4526830,4527466,638,1473.1,536.9,4519,right
24,2,continuous,16,9,trial,4527965.0,4529815.0,1850.0,66,L,4527704,4528186,484,1231.4,504.4,4789,right
24,2,continuous,16,9,trial,4527965.0,4529815.0,1850.0,66,L,4528214,4528644,432,1449.3,537.2,4504,right
24,2,continuous,16,9,trial,4527965.0,4529815.0,1850.0,66,L,4528718,4529176,460,490.7,577.6,4360,left
24,2,continuous,16,9,trial,4527965.0,4529815.0,1850.0,66,L,4529192,4529580,390,563.8,579.4,4640,left
24,2,continuous,16,9,trial,4527965.0,4529815.0,1850.0,66,L,4529638,4529800,164,507.5,928.6,4961,NA
24,2,continuous,16,9,trial,4527965.0,4529815.0,1850.0,66,L,4529862,4530092,232,360.9,615.1,4921,left
24,2,continuous,17,88,trial,4530482.0,4532464.0,1982.0,67,L,4530222,4530622,402,1060.3,501.5,5165,NA
24,2,continuous,17,88,trial,4530482.0,4532464.0,1982.0,67,L,4530666,4530840,176,1400.6,554.8,5380,right
24,2,continuous,17,88,trial,4530482.0,4532464.0,1982.0,67,L,4530860,4531098,240,1461.9,575.8,4990,right
24,2,continuous,17,88,trial,4530482.0,4532464.0,1982.0,67,L,4531170,4531430,262,559.0,544.7,4802,left
24,2,continuous,17,88,trial,4530482.0,4532464.0,1982.0,67,L,4531454,4531728,276,622.8,615.5,4853,left
24,2,continuous,17,88,trial,4530482.0,4532464.0,1982.0,67,L,4531796,4532232,438,1462.5,559.8,4734,right
24,2,continuous,17,88,postResponse,4530482.0,4532464.0,1982.0,67,L,4532252,4532800,550,1535.6,516.7,4541,right
24,2,continuous,18,92,trial,4533149.0,4534965.0,1816.0,68,L,4532880,4533326,448,1054.4,517.8,5033,NA
24,2,continuous,18,92,trial,4533149.0,4534965.0,1816.0,68,L,4533378,4533654,278,1506.5,614.3,4944,right
24,2,continuous,18,92,trial,4533149.0,4534965.0,1816.0,68,L,4533726,4534126,402,625.8,639.1,4870,left
24,2,continuous,18,92,trial,4533149.0,4534965.0,1816.0,68,L,4534188,4534596,410,1454.3,651.8,4834,right
24,2,continuous,18,92,trial,4533149.0,4534965.0,1816.0,68,L,4534620,4534940,322,1561.4,696.2,4761,right
24,2,continuous,18,92,trial,4533149.0,4534965.0,1816.0,68,L,4534994,4535220,228,1397.7,980.6,4790,NA
24,2,continuous,18,92,postResponse,4533149.0,4534965.0,1816.0,68,L,4535266,4535298,34,1082.6,536.0,4782,NA
24,2,continuous,19,100,trial,4535632.0,4537548.0,1916.0,69,L,4535372,4535798,428,1086.9,518.6,4902,NA
24,2,continuous,19,100,trial,4535632.0,4537548.0,1916.0,69,L,4535842,4536180,340,1449.8,546.4,4904,right
24,2,continuous,19,100,trial,4535632.0,4537548.0,1916.0,69,L,4536198,4536632,436,1483.0,493.8,4653,right
24,2,continuous,19,100,trial,4535632.0,4537548.0,1916.0,69,L,4536706,4536866,162,591.7,507.3,4716,left
24,2,continuous,19,100,trial,4535632.0,4537548.0,1916.0,69,L,4536890,4537722,834,535.1,454.4,4910,left
24,2,continuous,19,100,postResponse,4535632.0,4537548.0,1916.0,69,L,4537814,4537884,72,1347.0,692.2,5018,right
24,2,continuous,20,15,fixationCross,4538232.0,4540565.0,2333.0,70,L,4537958,4538018,62,1356.4,690.1,5041,right
24,2,continuous,20,15,trial,4538232.0,4540565.0,2333.0,70,L,4538070,4538374,306,1122.5,496.6,5215,NA
24,2,continuous,20,15,trial,4538232.0,4540565.0,2333.0,70,L,4538416,4538712,298,1386.5,531.9,5060,right
24,2,continuous,20,15,trial,4538232.0,4540565.0,2333.0,70,L,4538780,4539016,238,579.5,551.3,4860,left
24,2,continuous,20,15,trial,4538232.0,4540565.0,2333.0,70,L,4539042,4539576,536,485.5,574.5,4863,left
24,2,continuous,20,15,trial,4538232.0,4540565.0,2333.0,70,L,4539598,4539952,356,455.3,522.8,4905,left
24,2,continuous,20,15,trial,4538232.0,4540565.0,2333.0,70,L,4539978,4540646,670,485.5,597.4,4898,left
24,2,continuous,20,15,trial,4538232.0,4540565.0,2333.0,70,L,4540704,4540866,164,1253.8,496.2,4785,right
24,2,continuous,21,13,trial,4541248.0,4543765.0,2517.0,71,L,4540974,4541426,454,1150.9,512.8,5010,NA
24,2,continuous,21,13,trial,4541248.0,4543765.0,2517.0,71,L,4541462,4541774,314,1428.1,554.1,4891,right
24,2,continuous,21,13,trial,4541248.0,4543765.0,2517.0,71,L,4541786,4541882,98,1447.4,575.1,4758,right
24,2,continuous,21,13,trial,4541248.0,4543765.0,2517.0,71,L,4541954,4542290,338,564.3,541.7,4763,left
24,2,continuous,21,13,trial,4541248.0,4543765.0,2517.0,71,L,4542314,4542586,274,478.0,463.6,4710,left
24,2,continuous,21,13,trial,4541248.0,4543765.0,2517.0,71,L,4542668,4542862,196,1460.5,603.8,4815,right
24,2,continuous,21,13,trial,4541248.0,4543765.0,2517.0,71,L,4542888,4543158,272,1413.7,589.1,4796,right
24,2,continuous,21,13,trial,4541248.0,4543765.0,2517.0,71,L,4543226,4543666,442,638.9,910.5,4931,NA
24,2,continuous,21,13,trial,4541248.0,4543765.0,2517.0,71,L,4543728,4543978,252,531.0,500.9,4910,left
24,2,continuous,22,4,trial,4544448.0,4548998.0,4550.0,72,L,4544174,4544608,436,1134.9,532.3,5071,NA
24,2,continuous,22,4,trial,4544448.0,4548998.0,4550.0,72,L,4544634,4544766,134,1336.5,565.3,5152,right
24,2,continuous,22,4,trial,4544448.0,4548998.0,4550.0,72,L,4544806,4544960,156,1527.2,575.0,4853,right
24,2,continuous,22,4,trial,4544448.0,4548998.0,4550.0,72,L,4545032,4545262,232,668.0,449.9,4789,left
24,2,continuous,22,4,trial,4544448.0,4548998.0,4550.0,72,L,4545280,4545816,538,611.1,472.4,4906,left
24,2,continuous,22,4,trial,4544448.0,4548998.0,4550.0,72,L,4545836,4546604,770,634.9,426.8,5144,left
24,2,continuous,22,4,trial,4544448.0,4548998.0,4550.0,72,L,4546630,4546936,308,590.6,501.3,5168,left
24,2,continuous,22,4,trial,4544448.0,4548998.0,4550.0,72,L,4546954,4547132,180,620.1,460.6,5275,left
24,2,continuous,22,4,trial,4544448.0,4548998.0,4550.0,72,L,4547322,4547622,302,608.6,492.6,5230,left
24,2,continuous,22,4,trial,4544448.0,4548998.0,4550.0,72,L,4547644,4547824,182,625.6,417.3,5023,left
24,2,continuous,22,4,trial,4544448.0,4548998.0,4550.0,72,L,4547890,4548316,428,1496.7,555.6,4695,right
24,2,continuous,22,4,trial,4544448.0,4548998.0,4550.0,72,L,4548386,4548564,180,686.8,507.0,4744,left
24,2,continuous,22,4,trial,4544448.0,4548998.0,4550.0,72,L,4548626,4549010,386,596.6,940.7,5123,NA
24,2,continuous,22,4,trial,4544448.0,4548998.0,4550.0,72,L,4549038,4549282,246,510.4,951.6,5119,NA
24,2,continuous,23,9,fixationCross,4549715.0,4551865.0,2150.0,73,L,4549438,4549536,100,827.2,479.1,5228,NA
24,2,continuous,23,9,trial,4549715.0,4551865.0,2150.0,73,L,4549572,4549880,310,1020.0,489.8,5291,NA
24,2,continuous,23,9,trial,4549715.0,4551865.0,2150.0,73,L,4549920,4550162,244,1351.7,546.2,5243,right
24,2,continuous,23,9,trial,4549715.0,4551865.0,2150.0,73,L,4550184,4550494,312,1471.7,527.4,4913,right
24,2,continuous,23,9,trial,4549715.0,4551865.0,2150.0,73,L,4550566,4550880,316,582.4,566.2,4908,left
24,2,continuous,23,9,trial,4549715.0,4551865.0,2150.0,73,L,4550908,4551512,606,445.4,630.9,4835,left
24,2,continuous,23,9,trial,4549715.0,4551865.0,2150.0,73,L,4551584,4552062,480,1394.5,563.1,4899,right
24,2,continuous,23,9,trial,4549715.0,4551865.0,2150.0,73,L,4552080,4552100,22,1326.9,527.7,4899,right
24,2,continuous,24,85,trial,4552565.0,4554749.0,2184.0,74,L,4552322,4552700,380,986.6,542.5,5129,NA
24,2,continuous,24,85,trial,4552565.0,4554749.0,2184.0,74,L,4552748,4552898,152,1373.9,525.9,4956,right
24,2,continuous,24,85,trial,4552565.0,4554749.0,2184.0,74,L,4552924,4553080,158,1570.1,551.3,4617,right
24,2,continuous,24,85,trial,4552565.0,4554749.0,2184.0,74,L,4553100,4553314,216,1640.7,570.9,4494,right
24,2,continuous,24,85,trial,4552565.0,4554749.0,2184.0,74,L,4553342,4553582,242,1404.3,479.0,4466,right
24,2,continuous,24,85,trial,4552565.0,4554749.0,2184.0,74,L,4553654,4554100,448,565.9,503.8,4660,left
24,2,continuous,24,85,trial,4552565.0,4554749.0,2184.0,74,L,4554172,4554374,204,1588.1,578.6,4752,right
24,2,continuous,24,85,trial,4552565.0,4554749.0,2184.0,74,L,4554390,4554584,196,1627.7,582.7,4772,right
24,2,continuous,24,85,trial,4552565.0,4554749.0,2184.0,74,L,4554646,4554970,326,1304.0,930.7,4929,NA
24,2,continuous,25,15,trial,4555432.0,4557732.0,2300.0,75,L,4555168,4555594,428,1128.6,534.4,5102,NA
24,2,continuous,25,15,trial,4555432.0,4557732.0,2300.0,75,L,4555632,4555990,360,1376.0,547.3,4881,right
24,2,continuous,25,15,trial,4555432.0,4557732.0,2300.0,75,L,4556064,4556682,620,515.8,603.2,4713,left
24,2,continuous,25,15,trial,4555432.0,4557732.0,2300.0,75,L,4556752,4557058,308,1457.5,553.8,4622,right
24,2,continuous,25,15,trial,4555432.0,4557732.0,2300.0,75,L,4557084,4557268,186,1353.4,491.6,4697,right
24,2,continuous,25,15,trial,4555432.0,4557732.0,2300.0,75,L,4557344,4557932,590,613.4,897.7,4977,NA
24,2,continuous,26,17,fixationCross,4577765.0,4580865.0,3100.0,76,L,4577511,4577737,228,1026.2,398.2,4751,NA
24,2,continuous,26,17,trial,4577765.0,4580865.0,3100.0,76,L,4577765,4577973,210,921.0,488.0,4995,NA
24,2,continuous,26,17,trial,4577765.0,4580865.0,3100.0,76,L,4578015,4578257,244,585.9,551.3,4849,left
24,2,continuous,26,17,trial,4577765.0,4580865.0,3100.0,76,L,4578283,4578609,328,413.3,590.9,4651,left
24,2,continuous,26,17,trial,4577765.0,4580865.0,3100.0,76,L,4578683,4579009,328,1291.8,563.3,4627,right
24,2,continuous,26,17,trial,4577765.0,4580865.0,3100.0,76,L,4579083,4579227,146,455.7,589.7,4626,left
24,2,continuous,26,17,trial,4577765.0,4580865.0,3100.0,76,L,4579249,4579505,258,387.1,609.9,4731,left
24,2,continuous,26,17,trial,4577765.0,4580865.0,3100.0,76,L,4579549,4579747,200,566.6,490.4,4804,left
24,2,continuous,26,17,trial,4577765.0,4580865.0,3100.0,76,L,4579811,4580069,260,566.3,949.4,5112,NA
24,2,continuous,26,17,trial,4577765.0,4580865.0,3100.0,76,L,4580141,4580433,294,1242.5,589.9,4804,right
24,2,continuous,26,17,trial,4577765.0,4580865.0,3100.0,76,L,4580497,4580811,316,561.9,602.8,4773,left
24,2,continuous,26,17,trial,4577765.0,4580865.0,3100.0,76,L,4580843,4581079,238,388.7,608.7,4783,left
24,2,continuous,26,17,postResponse,4577765.0,4580865.0,3100.0,76,L,4581139,4581199,62,931.3,549.0,4830,NA
24,2,continuous,27,11,fixationCross,4581549.0,4583632.0,2083.0,77,L,4581299,4581479,182,937.0,543.2,5021,NA
24,2,continuous,27,11,trial,4581549.0,4583632.0,2083.0,77,L,4581517,4581707,192,1153.3,510.3,5102,NA
24,2,continuous,27,11,trial,4581549.0,4583632.0,2083.0,77,L,4581733,4581979,248,1393.6,539.5,4972,right
24,2,continuous,27,11,trial,4581549.0,4583632.0,2083.0,77,L,4582051,4582301,252,508.1,591.7,4993,left
24,2,continuous,27,11,trial,4581549.0,4583632.0,2083.0,77,L,4582329,4582571,244,467.2,669.3,5047,left
24,2,continuous,27,11,trial,4581549.0,4583632.0,2083.0,77,L,4582587,4582909,324,474.6,626.3,4950,left
24,2,continuous,27,11,trial,4581549.0,4583632.0,2083.0,77,L,4582975,4583581,608,1367.1,484.1,4980,right
24,2,continuous,27,11,trial,4581549.0,4583632.0,2083.0,77,L,4583655,4583947,294,475.0,535.8,5174,left
24,2,continuous,28,89,trial,4584299.0,4585966.0,1667.0,78,L,4584043,4584331,290,928.0,469.2,5129,NA
24,2,continuous,28,89,trial,4584299.0,4585966.0,1667.0,78,L,4584363,4584481,120,1135.3,526.8,5371,NA
24,2,continuous,28,89,trial,4584299.0,4585966.0,1667.0,78,L,4584507,4584793,288,1342.2,551.7,5202,right
24,2,continuous,28,89,trial,4584299.0,4585966.0,1667.0,78,L,4584869,4585033,166,570.1,509.6,4867,left
24,2,continuous,28,89,trial,4584299.0,4585966.0,1667.0,78,L,4585055,4585323,270,448.2,505.6,4751,left
24,2,continuous,28,89,trial,4584299.0,4585966.0,1667.0,78,L,4585397,4585867,472,1397.4,548.9,4570,right
24,2,continuous,28,89,trial,4584299.0,4585966.0,1667.0,78,L,4585933,4586177,246,1351.8,970.0,4635,NA
24,2,continuous,28,89,postResponse,4584299.0,4585966.0,1667.0,78,L,4586237,4586313,78,1055.5,474.1,4468,NA
24,2,continuous,29,88,trial,4586649.0,4590649.0,4000.0,79,L,4586387,4586829,444,1049.8,474.7,4732,NA
24,2,continuous,29,88,trial,4586649.0,4590649.0,4000.0,79,L,4586881,4587189,310,1449.0,534.5,4872,right
24,2,continuous,29,88,trial,4586649.0,4590649.0,4000.0,79,L,4587369,4587639,272,537.4,546.6,4931,left
24,2,continuous,29,88,trial,4586649.0,4590649.0,4000.0,79,L,4587661,4587891,232,462.1,486.5,4851,left
24,2,continuous,29,88,trial,4586649.0,4590649.0,4000.0,79,L,4587909,4588485,578,506.4,542.1,4697,left
24,2,continuous,29,88,trial,4586649.0,4590649.0,4000.0,79,L,4588559,4588913,356,1449.4,598.1,4608,right
24,2,continuous,29,88,trial,4586649.0,4590649.0,4000.0,79,L,4588943,4589421,480,1396.0,470.2,4654,right
24,2,continuous,29,88,trial,4586649.0,4590649.0,4000.0,79,L,4589489,4589647,160,776.5,808.0,4949,likertHorizontal
24,2,continuous,29,88,trial,4586649.0,4590649.0,4000.0,79,L,4589699,4590073,376,507.7,553.7,4830,left
24,2,continuous,29,88,trial,4586649.0,4590649.0,4000.0,79,L,4590137,4590479,344,1242.5,854.2,4839,NA
24,2,continuous,29,88,trial,4586649.0,4590649.0,4000.0,79,L,4590537,4590849,314,516.4,595.9,4922,left
24,2,continuous,29,88,trial,4586649.0,4590649.0,4000.0,79,L,4590875,4590901,28,705.5,528.8,4662,left
24,2,continuous,30,20,fixationCross,4591332.0,4599632.0,8300.0,80,L,4591059,4591271,214,1123.0,524.3,4823,NA
24,2,continuous,30,20,trial,4591332.0,4599632.0,8300.0,80,L,4591297,4591493,198,996.2,536.0,5186,NA
24,2,continuous,30,20,trial,4591332.0,4599632.0,8300.0,80,L,4591547,4591861,316,1473.8,566.5,4990,right
24,2,continuous,30,20,trial,4591332.0,4599632.0,8300.0,80,L,4591883,4592185,304,1532.0,510.6,4658,right
24,2,continuous,30,20,trial,4591332.0,4599632.0,8300.0,80,L,4592215,4592351,138,1512.6,644.1,4705,right
24,2,continuous,30,20,trial,4591332.0,4599632.0,8300.0,80,L,4592531,4592605,76,1481.7,623.6,4782,right
24,2,continuous,30,20,trial,4591332.0,4599632.0,8300.0,80,L,4592683,4592939,258,551.0,588.9,4923,left
24,2,continuous,30,20,trial,4591332.0,4599632.0,8300.0,80,L,4592963,4593311,350,527.2,503.2,4723,left
24,2,continuous,30,20,trial,4591332.0,4599632.0,8300.0,80,L,4593335,4593711,378,415.5,518.8,4789,left
24,2,continuous,30,20,trial,4591332.0,4599632.0,8300.0,80,L,4593727,4594057,332,369.1,515.4,4955,left
24,2,continuous,30,20,trial,4591332.0,4599632.0,8300.0,80,L,4594081,4594323,244,487.6,523.5,5132,left
24,2,continuous,30,20,trial,4591332.0,4599632.0,8300.0,80,L,4594493,4594655,164,546.8,521.9,5144,left
24,2,continuous,30,20,trial,4591332.0,4599632.0,8300.0,80,L,4594665,4594805,142,532.3,503.8,5217,left
24,2,continuous,30,20,trial,4591332.0,4599632.0,8300.0,80,L,4595003,4595191,190,533.1,524.2,4872,left
24,2,continuous,30,20,trial,4591332.0,4599632.0,8300.0,80,L,4595205,4595433,230,528.4,498.9,4894,left
24,2,continuous,30,20,trial,4591332.0,4599632.0,8300.0,80,L,4595463,4595881,420,551.9,625.9,4641,left
24,2,continuous,30,20,trial,4591332.0,4599632.0,8300.0,80,L,4595899,4595995,98,501.0,597.1,4703,left
24,2,continuous,30,20,trial,4591332.0,4599632.0,8300.0,80,L,4596149,4596491,344,1466.9,541.7,4798,right
24,2,continuous,30,20,trial,4591332.0,4599632.0,8300.0,80,L,4596509,4597095,588,1512.4,542.0,4724,right
24,2,continuous,30,20,trial,4591332.0,4599632.0,8300.0,80,L,4597111,4597297,188,1570.3,522.9,4792,right
24,2,continuous,30,20,trial,4591332.0,4599632.0,8300.0,80,L,4597329,4597591,264,1481.7,659.6,5070,right
24,2,continuous,30,20,trial,4591332.0,4599632.0,8300.0,80,L,4597615,4597755,142,1399.8,647.5,5052,right
24,2,continuous,30,20,trial,4591332.0,4599632.0,8300.0,80,L,4597815,4598119,306,565.8,579.5,4969,left
24,2,continuous,30,20,trial,4591332.0,4599632.0,8300.0,80,L,4598143,4598435,294,543.0,505.9,5004,left
24,2,continuous,30,20,trial,4591332.0,4599632.0,8300.0,80,L,4598461,4598843,384,432.9,525.6,5179,left
24,2,continuous,30,20,trial,4591332.0,4599632.0,8300.0,80,L,4598865,4599089,226,351.5,513.8,5079,left
24,2,continuous,30,20,trial,4591332.0,4599632.0,8300.0,80,L,4599141,4599543,404,665.6,781.7,5203,NA
24,2,continuous,30,20,trial,4591332.0,4599632.0,8300.0,80,L,4599619,4599855,238,1453.2,506.9,4994,right
24,2,continuous,30,20,postResponse,4591332.0,4599632.0,8300.0,80,L,4599879,4599979,102,1296.1,536.6,5014,right
24,2,continuous,31,82,trial,4600316.0,4601999.0,1683.0,81,L,4600053,4600533,482,1293.9,543.6,5179,right
24,2,continuous,31,82,trial,4600316.0,4601999.0,1683.0,81,L,4600573,4600705,134,1510.3,520.5,5196,right
24,2,continuous,31,82,trial,4600316.0,4601999.0,1683.0,81,L,4600777,4601083,308,600.2,508.1,5042,left
24,2,continuous,31,82,trial,4600316.0,4601999.0,1683.0,81,L,4601109,4601353,246,557.3,591.7,5001,left
24,2,continuous,31,82,trial,4600316.0,4601999.0,1683.0,81,L,4601425,4601607,184,1518.5,503.0,4885,right
24,2,continuous,31,82,trial,4600316.0,4601999.0,1683.0,81,L,4601629,4601973,346,1574.9,493.0,4748,right
24,2,continuous,31,82,trial,4600316.0,4601999.0,1683.0,81,L,4602037,4602249,214,1340.8,1005.3,4849,NA
24,2,continuous,31,82,postResponse,4600316.0,4601999.0,1683.0,81,L,4602293,4602345,54,1071.7,505.4,4830,NA
24,2,continuous,32,16,trial,4602682.0,4604849.0,2167.0,82,L,4602419,4602841,424,1078.2,501.5,4957,NA
24,2,continuous,32,16,trial,4602682.0,4604849.0,2167.0,82,L,4602883,4603179,298,1388.3,579.7,5010,right
24,2,continuous,32,16,trial,4602682.0,4604849.0,2167.0,82,L,4603251,4603787,538,557.8,577.9,4669,left
24,2,continuous,32,16,trial,4602682.0,4604849.0,2167.0,82,L,4603855,4604403,550,1431.6,595.5,4580,right
24,2,continuous,32,16,trial,4602682.0,4604849.0,2167.0,82,L,4604465,4604717,254,669.2,697.7,4692,left
24,2,continuous,32,16,trial,4602682.0,4604849.0,2167.0,82,L,4604743,4605039,298,526.1,573.7,4658,left
24,2,continuous,32,16,trial,4602682.0,4604849.0,2167.0,82,L,4605063,4605085,24,681.5,557.7,4505,left
24,2,continuous,32,16,postResponse,4602682.0,4604849.0,2167.0,82,L,4605139,4605195,58,1100.1,566.0,4540,NA
24,2,continuous,33,94,trial,4605566.0,4609299.0,3733.0,83,L,4605295,4605729,436,1121.3,566.6,4718,NA
24,2,continuous,33,94,trial,4605566.0,4609299.0,3733.0,83,L,4605769,4605919,152,1423.4,556.8,4613,right
24,2,continuous,33,94,trial,4605566.0,4609299.0,3733.0,83,L,4605937,4606243,308,1495.6,556.5,4604,right
24,2,continuous,33,94,trial,4605566.0,4609299.0,3733.0,83,L,4606437,4606915,480,481.9,581.1,4832,left
24,2,continuous,33,94,trial,4605566.0,4609299.0,3733.0,83,L,4606957,4607083,128,822.8,554.9,4564,NA
24,2,continuous,33,94,trial,4605566.0,4609299.0,3733.0,83,L,4607141,4607301,162,1436.7,551.8,4491,right
24,2,continuous,33,94,trial,4605566.0,4609299.0,3733.0,83,L,4607315,4607729,416,1481.6,553.0,4603,right
24,2,continuous,33,94,trial,4605566.0,4609299.0,3733.0,83,L,4607791,4608157,368,558.8,577.6,4676,left
24,2,continuous,33,94,trial,4605566.0,4609299.0,3733.0,83,L,4608179,4608641,464,472.4,595.7,4690,left
24,2,continuous,33,94,trial,4605566.0,4609299.0,3733.0,83,L,4608709,4609081,374,1416.3,618.8,4665,right
24,2,continuous,33,94,trial,4605566.0,4609299.0,3733.0,83,L,4609135,4609505,372,1443.1,952.6,4794,NA
24,2,continuous,33,94,postResponse,4605566.0,4609299.0,3733.0,83,L,4609563,4609635,74,1047.4,600.7,4766,NA
24,2,continuous,34,100,fixationCross,4609982.0,4611332.0,1350.0,84,L,4609709,4609795,88,1043.8,595.9,4896,NA
24,2,continuous,34,100,trial,4609982.0,4611332.0,1350.0,84,L,4609817,4610161,346,961.4,517.6,5068,NA
24,2,continuous,34,100,trial,4609982.0,4611332.0,1350.0,84,L,4610211,4610569,360,1367.1,557.3,4949,right
24,2,continuous,34,100,trial,4609982.0,4611332.0,1350.0,84,L,4610639,4611199,562,605.6,601.2,4915,left
24,2,continuous,34,100,trial,4609982.0,4611332.0,1350.0,84,L,4611233,4611547,316,430.2,588.7,4754,left
24,2,continuous,34,100,postResponse,4609982.0,4611332.0,1350.0,84,L,4611609,4611667,60,1017.7,522.0,4663,NA
24,2,continuous,35,85,trial,4612049.0,4613783.0,1734.0,85,L,4611767,4612187,422,1020.6,522.4,4880,NA
24,2,continuous,35,85,trial,4612049.0,4613783.0,1734.0,85,L,4612235,4612529,296,1395.3,552.4,5053,right
24,2,continuous,35,85,trial,4612049.0,4613783.0,1734.0,85,L,4612603,4612839,238,586.5,585.9,5013,left
24,2,continuous,35,85,trial,4612049.0,4613783.0,1734.0,85,L,4612863,4613407,546,511.6,555.9,4821,left
24,2,continuous,35,85,trial,4612049.0,4613783.0,1734.0,85,L,4613419,4613995,578,506.2,523.4,4698,left
24,2,continuous,35,85,postResponse,4612049.0,4613783.0,1734.0,85,L,4614059,4614131,74,1198.8,549.5,4599,right
24,2,continuous,36,97,fixationCross,4614483.0,4616282.0,1799.0,86,L,4614243,4614425,184,1081.5,567.0,4759,NA
24,2,continuous,36,97,trial,4614483.0,4616282.0,1799.0,86,L,4614451,4614699,250,1231.9,547.3,4991,right
24,2,continuous,36,97,trial,4614483.0,4616282.0,1799.0,86,L,4614727,4615069,344,1400.1,530.2,4756,right
24,2,continuous,36,97,trial,4614483.0,4616282.0,1799.0,86,L,4615141,4615341,202,628.0,505.7,4743,left
24,2,continuous,36,97,trial,4614483.0,4616282.0,1799.0,86,L,4615369,4615729,362,514.8,557.6,4845,left
24,2,continuous,36,97,trial,4614483.0,4616282.0,1799.0,86,L,4615797,4616113,318,1301.2,902.7,4931,NA
24,2,continuous,36,97,trial,4614483.0,4616282.0,1799.0,86,L,4616171,4616507,338,1355.4,547.1,4773,right
24,2,continuous,36,97,trial,4614483.0,4616282.0,1799.0,86,L,4616527,4616567,42,1256.5,510.5,4730,right
24,2,continuous,37,1,trial,4616965.0,4618399.0,1434.0,87,L,4616761,4617119,360,1030.5,540.0,5061,NA
24,2,continuous,37,1,trial,4616965.0,4618399.0,1434.0,87,L,4617163,4617443,282,1395.2,541.3,4777,right
24,2,continuous,37,1,trial,4616965.0,4618399.0,1434.0,87,L,4617515,4617657,144,536.1,532.1,4522,left
24,2,continuous,37,1,trial,4616965.0,4618399.0,1434.0,87,L,4617681,4618245,566,475.5,516.4,4662,left
24,2,continuous,37,1,trial,4616965.0,4618399.0,1434.0,87,L,4618309,4618587,280,473.0,979.6,5068,NA
24,2,continuous,37,1,postResponse,4616965.0,4618399.0,1434.0,87,L,4618671,4618747,78,1148.5,543.9,4796,NA
24,2,continuous,38,10,trial,4619099.0,4620466.0,1367.0,88,L,4618821,4619103,284,1154.2,537.4,4958,NA
24,2,continuous,38,10,trial,4619099.0,4620466.0,1367.0,88,L,4619125,4619291,168,1270.3,549.0,5095,right
24,2,continuous,38,10,trial,4619099.0,4620466.0,1367.0,88,L,4619317,4619495,180,1433.4,512.9,4951,right
24,2,continuous,38,10,trial,4619099.0,4620466.0,1367.0,88,L,4619567,4619997,432,545.0,540.3,4675,left
24,2,continuous,38,10,trial,4619099.0,4620466.0,1367.0,88,L,4620049,4620499,452,670.5,930.4,4728,NA
24,2,continuous,38,10,trial,4619099.0,4620466.0,1367.0,88,L,4620563,4620731,170,1289.5,538.2,4607,right
24,2,continuous,38,10,postResponse,4619099.0,4620466.0,1367.0,88,L,4620757,4620803,48,1204.4,554.4,4655,right
24,2,continuous,39,94,trial,4621183.0,4622482.0,1299.0,89,L,4620903,4621347,446,1186.7,556.9,4961,right
24,2,continuous,39,94,trial,4621183.0,4622482.0,1299.0,89,L,4621385,4621685,302,1407.3,598.7,4839,right
24,2,continuous,39,94,trial,4621183.0,4622482.0,1299.0,89,L,4621705,4621847,144,1497.7,645.2,4619,right
24,2,continuous,39,94,trial,4621183.0,4622482.0,1299.0,89,L,4621921,4622691,772,527.1,554.1,4691,left
24,2,continuous,39,94,trial,4621183.0,4622482.0,1299.0,89,L,4622729,4622735,8,709.1,554.1,4770,left
24,2,continuous,39,94,postResponse,4621183.0,4622482.0,1299.0,89,L,4622755,4622833,80,877.3,553.1,4770,NA
24,2,continuous,40,81,fixationCross,4623149.0,4624666.0,1517.0,90,L,4622907,4622955,50,890.9,545.9,4837,NA
24,2,continuous,40,81,trial,4623149.0,4624666.0,1517.0,90,L,4622977,4623289,314,1021.5,562.9,5070,NA
24,2,continuous,40,81,trial,4623149.0,4624666.0,1517.0,90,L,4623335,4623671,338,1377.7,566.1,4862,right
24,2,continuous,40,81,trial,4623149.0,4624666.0,1517.0,90,L,4623743,4624109,368,583.9,541.0,4419,left
24,2,continuous,40,81,trial,4623149.0,4624666.0,1517.0,90,L,4624131,4624253,124,511.5,522.2,4440,left
24,2,continuous,40,81,trial,4623149.0,4624666.0,1517.0,90,L,4624317,4624843,528,1361.2,557.2,4434,right
24,2,continuous,41,23,trial,4625349.0,4629249.0,3900.0,91,L,4625095,4625507,414,1081.8,540.8,4626,NA
24,2,continuous,41,23,trial,4625349.0,4629249.0,3900.0,91,L,4625553,4625803,252,1393.2,571.9,4542,right
24,2,continuous,41,23,trial,4625349.0,4629249.0,3900.0,91,L,4625825,4626203,380,1497.5,589.5,4381,right
24,2,continuous,41,23,trial,4625349.0,4629249.0,3900.0,91,L,4626267,4626479,214,611.5,547.4,4571,left
24,2,continuous,41,23,trial,4625349.0,4629249.0,3900.0,91,L,4626507,4626931,426,549.7,575.9,4736,left
24,2,continuous,41,23,trial,4625349.0,4629249.0,3900.0,91,L,4626951,4627185,236,470.6,543.9,4876,left
24,2,continuous,41,23,trial,4625349.0,4629249.0,3900.0,91,L,4627259,4627609,352,1468.5,588.0,4879,right
24,2,continuous,41,23,trial,4625349.0,4629249.0,3900.0,91,L,4627621,4627909,290,1495.3,567.5,4819,right
24,2,continuous,41,23,trial,4625349.0,4629249.0,3900.0,91,L,4627973,4628373,402,563.9,594.7,5023,left
24,2,continuous,41,23,trial,4625349.0,4629249.0,3900.0,91,L,4628399,4628829,432,463.1,542.7,4917,left
24,2,continuous,41,23,trial,4625349.0,4629249.0,3900.0,91,L,4628891,4629129,240,693.7,945.7,5171,NA
24,2,continuous,41,23,trial,4625349.0,4629249.0,3900.0,91,L,4629279,4629503,226,1472.5,642.0,4863,right
24,2,continuous,42,100,trial,4629949.0,4632300.0,2351.0,92,L,4629723,4630129,408,1165.4,550.0,5223,NA
24,2,continuous,42,100,trial,4629949.0,4632300.0,2351.0,92,L,4630167,4630447,282,1418.3,525.8,4775,right
24,2,continuous,42,100,trial,4629949.0,4632300.0,2351.0,92,L,4630471,4630867,398,1522.8,436.2,4442,right
24,2,continuous,42,100,trial,4629949.0,4632300.0,2351.0,92,L,4630901,4631109,210,1469.3,547.0,4645,right
24,2,continuous,42,100,trial,4629949.0,4632300.0,2351.0,92,L,4631175,4631421,248,598.5,520.8,4814,left
24,2,continuous,42,100,trial,4629949.0,4632300.0,2351.0,92,L,4631445,4631717,274,538.3,461.2,4792,left
24,2,continuous,42,100,trial,4629949.0,4632300.0,2351.0,92,L,4631783,4631985,204,1323.1,732.7,4949,NA
24,2,continuous,42,100,trial,4629949.0,4632300.0,2351.0,92,L,4632039,4632163,126,1299.0,459.6,4935,right
24,2,continuous,42,100,trial,4629949.0,4632300.0,2351.0,92,L,4632233,4632529,298,553.3,489.0,5012,left
24,2,continuous,42,100,postResponse,4629949.0,4632300.0,2351.0,92,L,4632581,4632633,54,1062.9,522.9,5046,NA
24,2,continuous,43,100,trial,4632983.0,4634633.0,1650.0,93,L,4632709,4633133,426,1077.8,520.4,5190,NA
24,2,continuous,43,100,trial,4632983.0,4634633.0,1650.0,93,L,4633175,4633497,324,1390.0,594.4,5116,right
24,2,continuous,43,100,trial,4632983.0,4634633.0,1650.0,93,L,4633513,4633739,228,1458.3,614.8,4819,right
24,2,continuous,43,100,trial,4632983.0,4634633.0,1650.0,93,L,4633809,4634031,224,574.7,534.7,4836,left
24,2,continuous,43,100,trial,4632983.0,4634633.0,1650.0,93,L,4634047,4634363,318,540.1,537.3,4748,left
24,2,continuous,43,100,trial,4632983.0,4634633.0,1650.0,93,L,4634425,4634595,172,1279.6,948.3,4788,NA
24,2,continuous,43,100,trial,4632983.0,4634633.0,1650.0,93,L,4634647,4634837,192,1439.3,624.6,4680,right
24,2,continuous,44,27,trial,4635316.0,4636499.0,1183.0,94,L,4635057,4635487,432,1105.6,545.1,5085,NA
24,2,continuous,44,27,trial,4635316.0,4636499.0,1183.0,94,L,4635525,4635753,230,1380.6,574.6,4874,right
24,2,continuous,44,27,trial,4635316.0,4636499.0,1183.0,94,L,4635823,4636307,486,531.7,543.2,4699,left
24,2,continuous,44,27,trial,4635316.0,4636499.0,1183.0,94,L,4636363,4636689,328,702.6,874.5,4890,NA
24,2,continuous,45,80,trial,4637183.0,4638383.0,1200.0,95,L,4636917,4637327,412,1050.5,564.3,5066,NA
24,2,continuous,45,80,trial,4637183.0,4638383.0,1200.0,95,L,4637375,4637643,270,1384.9,594.0,4803,right
24,2,continuous,45,80,trial,4637183.0,4638383.0,1200.0,95,L,4637667,4637769,104,1474.7,635.9,4620,right
24,2,continuous,45,80,trial,4637183.0,4638383.0,1200.0,95,L,4637841,4638293,454,588.3,606.5,4670,left
24,2,continuous,45,80,trial,4637183.0,4638383.0,1200.0,95,L,4638361,4638677,318,1479.2,576.6,4571,right
24,2,continuous,46,22,trial,4639066.0,4641866.0,2800.0,96,L,4638925,4639233,310,1060.6,564.9,5093,NA
24,2,continuous,46,22,trial,4639066.0,4641866.0,2800.0,96,L,4639271,4639515,246,1349.5,574.9,4861,right
24,2,continuous,46,22,trial,4639066.0,4641866.0,2800.0,96,L,4639533,4639715,184,1432.1,563.3,4464,right
24,2,continuous,46,22,trial,4639066.0,4641866.0,2800.0,96,L,4639785,4639975,192,592.6,564.6,4487,left
24,2,continuous,46,22,trial,4639066.0,4641866.0,2800.0,96,L,4640001,4640677,678,493.5,561.7,4219,left
24,2,continuous,46,22,trial,4639066.0,4641866.0,2800.0,96,L,4640703,4641055,354,589.6,457.3,4076,left
24,2,continuous,46,22,trial,4639066.0,4641866.0,2800.0,96,L,4641077,4641303,228,656.7,392.2,4077,left
24,2,continuous,46,22,trial,4639066.0,4641866.0,2800.0,96,L,4641351,4641665,316,661.7,686.2,4247,left
24,2,continuous,46,22,trial,4639066.0,4641866.0,2800.0,96,L,4641731,4642085,356,1412.6,547.9,4160,right
24,2,continuous,47,14,trial,4642533.0,4645533.0,3000.0,97,L,4642281,4642729,450,1183.3,560.8,4659,right
24,2,continuous,47,14,trial,4642533.0,4645533.0,3000.0,97,L,4642767,4643007,242,1413.4,552.7,4582,right
24,2,continuous,47,14,trial,4642533.0,4645533.0,3000.0,97,L,4643081,4643385,306,543.7,531.5,4574,left
24,2,continuous,47,14,trial,4642533.0,4645533.0,3000.0,97,L,4643465,4643931,468,1526.8,457.8,4499,right
24,2,continuous,47,14,trial,4642533.0,4645533.0,3000.0,97,L,4643957,4644199,244,1379.5,537.3,4556,right
24,2,continuous,47,14,trial,4642533.0,4645533.0,3000.0,97,L,4644263,4644967,706,457.7,540.3,4834,left
24,2,continuous,47,14,trial,4642533.0,4645533.0,3000.0,97,L,4645011,4645423,414,620.9,718.1,5244,left
24,2,continuous,47,14,trial,4642533.0,4645533.0,3000.0,97,L,4645465,4645683,220,606.8,949.8,5489,NA
24,2,continuous,48,28,trial,4646216.0,4652533.0,6317.0,98,L,4645943,4646375,434,1045.9,544.6,5308,NA
24,2,continuous,48,28,trial,4646216.0,4652533.0,6317.0,98,L,4646419,4646727,310,1411.2,549.0,4905,right
24,2,continuous,48,28,trial,4646216.0,4652533.0,6317.0,98,L,4646741,4646881,142,1458.1,518.9,4639,right
24,2,continuous,48,28,trial,4646216.0,4652533.0,6317.0,98,L,4646953,4647205,254,529.0,550.0,4754,left
24,2,continuous,48,28,trial,4646216.0,4652533.0,6317.0,98,L,4647219,4647519,302,498.9,544.4,4692,left
24,2,continuous,48,28,trial,4646216.0,4652533.0,6317.0,98,L,4647593,4647859,268,1487.8,508.4,4587,right
24,2,continuous,48,28,trial,4646216.0,4652533.0,6317.0,98,L,4648055,4648179,126,1425.5,503.4,4858,right
24,2,continuous,48,28,trial,4646216.0,4652533.0,6317.0,98,L,4648395,4648583,190,528.4,497.6,5208,left
24,2,continuous,48,28,trial,4646216.0,4652533.0,6317.0,98,L,4648653,4648909,258,1434.9,508.8,4941,right
24,2,continuous,48,28,trial,4646216.0,4652533.0,6317.0,98,L,4648921,4649421,502,1464.1,497.2,4577,right
24,2,continuous,48,28,trial,4646216.0,4652533.0,6317.0,98,L,4649445,4649891,448,1379.0,518.1,4837,right
24,2,continuous,48,28,trial,4646216.0,4652533.0,6317.0,98,L,4649913,4650751,840,1444.9,502.6,4906,right
24,2,continuous,48,28,trial,4646216.0,4652533.0,6317.0,98,L,4650825,4650997,174,565.2,546.4,4979,left
24,2,continuous,48,28,trial,4646216.0,4652533.0,6317.0,98,L,4651017,4651281,266,500.0,538.1,4954,left
24,2,continuous,48,28,trial,4646216.0,4652533.0,6317.0,98,L,4651351,4651913,564,1461.3,505.4,4772,right
24,2,continuous,48,28,trial,4646216.0,4652533.0,6317.0,98,L,4651979,4652509,532,736.2,768.3,5184,NA
24,2,continuous,48,28,postResponse,4646216.0,4652533.0,6317.0,98,L,4652557,4652867,312,1107.9,501.0,5124,NA
24,2,continuous,49,26,trial,4653249.0,4654933.0,1684.0,99,L,4652967,4653465,500,1119.3,504.0,5239,NA
24,2,continuous,49,26,trial,4653249.0,4654933.0,1684.0,99,L,4653531,4653777,248,567.4,525.4,5152,left
24,2,continuous,49,26,trial,4653249.0,4654933.0,1684.0,99,L,4653795,4654103,310,495.4,543.0,4922,left
24,2,continuous,49,26,trial,4653249.0,4654933.0,1684.0,99,L,4654177,4654473,298,1371.6,504.5,4808,right
24,2,continuous,49,26,trial,4653249.0,4654933.0,1684.0,99,L,4654495,4654677,184,1412.6,552.0,4754,right
24,2,continuous,49,26,trial,4653249.0,4654933.0,1684.0,99,L,4654751,4655077,328,521.4,547.8,4748,left
24,2,continuous,49,26,postResponse,4653249.0,4654933.0,1684.0,99,L,4655161,4655267,108,1160.0,539.9,4638,NA
24,2,continuous,50,100,trial,4655600.0,4657766.0,2166.0,100,L,4655343,4655783,442,1167.8,540.9,4901,NA
24,2,continuous,50,100,trial,4655600.0,4657766.0,2166.0,100,L,4655823,4656127,306,1427.6,546.9,4776,right
24,2,continuous,50,100,trial,4655600.0,4657766.0,2166.0,100,L,4656191,4656615,426,570.0,548.4,4652,left
24,2,continuous,50,100,trial,4655600.0,4657766.0,2166.0,100,L,4656639,4656783,146,475.0,571.0,4527,left
24,2,continuous,50,100,trial,4655600.0,4657766.0,2166.0,100,L,4656853,4657075,224,1421.4,547.1,4424,right
24,2,continuous,50,100,trial,4655600.0,4657766.0,2166.0,100,L,4657099,4657475,378,1623.7,545.6,4326,right
24,2,continuous,50,100,trial,4655600.0,4657766.0,2166.0,100,L,4657513,4657985,474,1400.3,622.2,4467,right
24,2,continuous,50,100,postResponse,4655600.0,4657766.0,2166.0,100,L,4658003,4658103,102,1323.7,596.2,4631,right
24,3,valuation,1,5,fixationCross,4725950.0,4728184.0,2234.0,101,L,4725687,4725901,216,948.5,590.8,5347,NA
24,3,valuation,1,5,trial,4725950.0,4728184.0,2234.0,101,L,4725941,4726119,180,1203.4,595.3,5273,right
24,3,valuation,1,5,trial,4725950.0,4728184.0,2234.0,101,L,4726233,4726309,78,721.7,468.5,5228,likertVertical
24,3,valuation,1,5,trial,4725950.0,4728184.0,2234.0,101,L,4726347,4726631,286,552.9,302.2,5383,likertVertical
24,3,valuation,1,5,trial,4725950.0,4728184.0,2234.0,101,L,4726713,4726969,258,1449.0,536.0,5127,right
24,3,valuation,1,5,trial,4725950.0,4728184.0,2234.0,101,L,4726993,4727217,226,1549.8,497.5,4980,right
24,3,valuation,1,5,trial,4725950.0,4728184.0,2234.0,101,L,4727235,4727357,124,1488.2,500.3,4975,right
24,3,valuation,1,5,trial,4725950.0,4728184.0,2234.0,101,L,4727433,4727867,436,516.4,503.9,5130,likertVertical
24,3,valuation,1,5,trial,4725950.0,4728184.0,2234.0,101,L,4727879,4728355,478,499.2,479.9,5165,likertVertical
24,3,valuation,1,5,postResponse,4725950.0,4728184.0,2234.0,101,L,4728405,4728531,128,1099.0,403.4,5169,NA
24,3,valuation,2,5,trial,4728884.0,4730450.0,1566.0,102,L,4728631,4729021,392,1098.9,394.5,5469,NA
24,3,valuation,2,5,trial,4728884.0,4730450.0,1566.0,102,L,4729061,4729371,312,1387.7,461.9,5392,right
24,3,valuation,2,5,trial,4728884.0,4730450.0,1566.0,102,L,4729385,4729727,344,1398.3,431.1,4721,right
24,3,valuation,2,5,trial,4728884.0,4730450.0,1566.0,102,L,4729741,4729915,176,1366.4,430.5,4602,right
24,3,valuation,2,5,trial,4728884.0,4730450.0,1566.0,102,L,4729979,4730403,426,535.9,458.6,4680,likertVertical
24,3,valuation,2,5,trial,4728884.0,4730450.0,1566.0,102,L,4730429,4730699,272,626.7,282.3,4714,likertVertical
24,3,valuation,3,5,fixationCross,4731100.0,4732668.0,1568.0,103,L,4730861,4730979,120,1277.1,436.2,4896,right
24,3,valuation,3,5,trial,4731100.0,4732668.0,1568.0,103,L,4731005,4731253,250,1153.2,451.3,5036,NA
24,3,valuation,3,5,trial,4731100.0,4732668.0,1568.0,103,L,4731281,4731553,274,1350.4,471.2,5055,right
24,3,valuation,3,5,trial,4731100.0,4732668.0,1568.0,103,L,4731575,4731765,192,1426.5,485.8,4707,right
24,3,valuation,3,5,trial,4731100.0,4732668.0,1568.0,103,L,4731829,4731967,140,559.9,566.7,4718,likertVertical
24,3,valuation,3,5,trial,4731100.0,4732668.0,1568.0,103,L,4731993,4732159,168,507.7,615.3,4830,likertVertical
24,3,valuation,3,5,trial,4731100.0,4732668.0,1568.0,103,L,4732187,4732583,398,503.3,465.1,4966,likertVertical
24,3,valuation,3,5,trial,4731100.0,4732668.0,1568.0,103,L,4732651,4732955,306,1410.7,486.0,5020,right
24,3,valuation,3,5,postResponse,4731100.0,4732668.0,1568.0,103,L,4732987,4733015,30,1351.4,493.0,4914,right
24,3,valuation,4,6,trial,4733367.0,4735317.0,1950.0,104,L,4733115,4733551,438,1344.2,495.1,5047,right
24,3,valuation,4,6,trial,4733367.0,4735317.0,1950.0,104,L,4733573,4734185,614,1455.9,479.8,4887,right
24,3,valuation,4,6,trial,4733367.0,4735317.0,1950.0,104,L,4734209,4734417,210,1373.8,547.6,4847,right
24,3,valuation,4,6,trial,4733367.0,4735317.0,1950.0,104,L,4734489,4734625,138,550.0,418.7,4825,likertVertical
24,3,valuation,4,6,trial,4733367.0,4735317.0,1950.0,104,L,4734645,4735505,862,519.6,370.9,4816,likertVertical
24,3,valuation,5,4,fixationCross,4735968.0,4737417.0,1449.0,105,L,4735725,4735903,180,1205.3,445.3,5057,right
24,3,valuation,5,4,trial,4735968.0,4737417.0,1449.0,105,L,4735933,4736167,236,1429.1,489.9,5263,right
24,3,valuation,5,4,trial,4735968.0,4737417.0,1449.0,105,L,4736193,4736461,270,1382.2,556.5,5055,right
24,3,valuation,5,4,trial,4735968.0,4737417.0,1449.0,105,L,4736473,4736581,110,1387.0,529.1,4739,right
24,3,valuation,5,4,trial,4735968.0,4737417.0,1449.0,105,L,4736641,4736913,274,534.1,460.3,4727,likertVertical
24,3,valuation,5,4,trial,4735968.0,4737417.0,1449.0,105,L,4736963,4737135,174,606.5,688.6,4982,likertVertical
24,3,valuation,5,4,trial,4735968.0,4737417.0,1449.0,105,L,4737161,4737295,136,637.4,812.9,5123,likertVertical
24,3,valuation,5,4,trial,4735968.0,4737417.0,1449.0,105,L,4737337,4737583,248,522.9,522.0,5103,likertVertical
24,3,valuation,5,4,trial,4735968.0,4737417.0,1449.0,105,L,4737637,4737703,68,1132.8,451.5,5178,NA
24,3,valuation,6,3,trial,4738101.0,4740701.0,2600.0,106,L,4737851,4738305,456,1305.7,491.5,5351,right
24,3,valuation,6,3,trial,4738101.0,4740701.0,2600.0,106,L,4738331,4738809,480,1449.4,590.2,5162,right
24,3,valuation,6,3,trial,4738101.0,4740701.0,2600.0,106,L,4738827,4739099,274,1474.8,529.4,4790,right
24,3,valuation,6,3,trial,4738101.0,4740701.0,2600.0,106,L,4739175,4739387,214,542.3,531.4,4788,likertVertical
24,3,valuation,6,3,trial,4738101.0,4740701.0,2600.0,106,L,4739415,4739657,244,502.5,619.4,4941,likertVertical
24,3,valuation,6,3,trial,4738101.0,4740701.0,2600.0,106,L,4739697,4739949,254,488.5,720.6,5225,likertVertical
24,3,valuation,6,3,trial,4738101.0,4740701.0,2600.0,106,L,4739973,4740611,640,495.8,633.8,5150,likertVertical
24,3,valuation,6,3,trial,4738101.0,4740701.0,2600.0,106,L,4740813,4740921,110,1419.6,551.5,5182,right
24,3,valuation,7,3,fixationCross,4741368.0,4743367.0,1999.0,107,L,4741109,4741205,98,1153.0,527.6,5309,NA
24,3,valuation,7,3,trial,4741368.0,4743367.0,1999.0,107,L,4741225,4741593,370,1215.5,518.6,5313,right
24,3,valuation,7,3,trial,4741368.0,4743367.0,1999.0,107,L,4741617,4741855,240,1381.8,489.4,4958,right
24,3,valuation,7,3,trial,4741368.0,4743367.0,1999.0,107,L,4741881,4742045,166,1555.2,545.2,4749,right
24,3,valuation,7,3,trial,4741368.0,4743367.0,1999.0,107,L,4742069,4742523,456,1623.7,605.3,4693,right
24,3,valuation,7,3,trial,4741368.0,4743367.0,1999.0,107,L,4742531,4742683,154,1648.5,607.3,4726,right
24,3,valuation,7,3,trial,4741368.0,4743367.0,1999.0,107,L,4742727,4742929,204,1433.8,416.4,4746,right
24,3,valuation,7,3,trial,4741368.0,4743367.0,1999.0,107,L,4743005,4743225,222,527.1,605.7,4898,likertVertical
24,3,valuation,7,3,trial,4741368.0,4743367.0,1999.0,107,L,4743241,4743547,308,507.5,631.7,4911,likertVertical
24,3,valuation,7,3,postResponse,4741368.0,4743367.0,1999.0,107,L,4743625,4743703,80,1282.5,469.2,4970,right
24,3,valuation,8,3,trial,4744034.0,4745384.0,1350.0,108,L,4743777,4744237,462,1289.1,464.5,5077,right
24,3,valuation,8,3,trial,4744034.0,4745384.0,1350.0,108,L,4744265,4744837,574,1446.4,533.8,4858,right
24,3,valuation,8,3,trial,4744034.0,4745384.0,1350.0,108,L,4744859,4745585,728,1479.7,444.0,4773,right
24,3,valuation,8,3,postResponse,4744034.0,4745384.0,1350.0,108,L,4745603,4745717,116,1426.7,474.1,4819,right
24,3,valuation,9,5,trial,4746067.0,4747651.0,1584.0,109,L,4745829,4746309,482,1354.4,476.9,5025,right
24,3,valuation,9,5,trial,4746067.0,4747651.0,1584.0,109,L,4746333,4746835,504,1482.4,521.3,4748,right
24,3,valuation,9,5,trial,4746067.0,4747651.0,1584.0,109,L,4746857,4747023,168,1409.5,463.2,4625,right
24,3,valuation,9,5,trial,4746067.0,4747651.0,1584.0,109,L,4747043,4747277,236,1306.0,490.7,4704,right
24,3,valuation,9,5,trial,4746067.0,4747651.0,1584.0,109,L,4747351,4747585,236,502.8,493.5,4702,likertVertical
24,3,valuation,9,5,trial,4746067.0,4747651.0,1584.0,109,L,4747653,4747953,302,1388.6,463.8,4533,right
24,3,valuation,10,6,trial,4748317.0,4750301.0,1984.0,110,L,4748059,4748493,436,1330.1,477.2,4717,right
24,3,valuation,10,6,trial,4748317.0,4750301.0,1984.0,110,L,4748521,4748719,200,1553.4,485.1,4623,right
24,3,valuation,10,6,trial,4748317.0,4750301.0,1984.0,110,L,4748731,4748987,258,1607.4,472.4,4330,right
24,3,valuation,10,6,trial,4748317.0,4750301.0,1984.0,110,L,4749057,4749567,512,538.1,437.6,4495,likertVertical
24,3,valuation,10,6,trial,4748317.0,4750301.0,1984.0,110,L,4749603,4749757,156,511.9,247.9,4636,likertVertical
24,3,valuation,10,6,trial,4748317.0,4750301.0,1984.0,110,L,4749781,4749927,148,606.3,268.4,4819,likertVertical
24,3,valuation,10,6,trial,4748317.0,4750301.0,1984.0,110,L,4749955,4750195,242,515.7,309.0,5003,likertVertical
24,3,valuation,10,6,trial,4748317.0,4750301.0,1984.0,110,L,4750279,4750537,260,1548.8,478.6,4991,right
24,3,valuation,10,6,postResponse,4748317.0,4750301.0,1984.0,110,L,4750559,4750637,80,1424.6,469.4,4861,right
24,3,valuation,11,5,fixationCross,4750968.0,4752217.0,1249.0,111,L,4750711,4750841,132,1420.0,464.8,4771,right
24,3,valuation,11,5,trial,4750968.0,4752217.0,1249.0,111,L,4750863,4751221,360,1339.4,475.6,5002,right
24,3,valuation,11,5,trial,4750968.0,4752217.0,1249.0,111,L,4751245,4751471,228,1471.3,477.4,4923,right
24,3,valuation,11,5,trial,4750968.0,4752217.0,1249.0,111,L,4751549,4751717,170,575.1,432.3,4834,likertVertical
24,3,valuation,11,5,trial,4750968.0,4752217.0,1249.0,111,L,4751735,4752103,370,539.6,462.8,4808,likertVertical
24,3,valuation,11,5,trial,4750968.0,4752217.0,1249.0,111,L,4752283,4752477,196,1459.4,454.1,4834,right
24,3,valuation,11,5,postResponse,4750968.0,4752217.0,1249.0,111,L,4752499,4752551,54,1413.6,512.4,4992,right
24,3,valuation,12,5,trial,4752884.0,4754167.0,1283.0,112,L,4752625,4753171,548,1413.1,506.4,4953,right
24,3,valuation,12,5,trial,4752884.0,4754167.0,1283.0,112,L,4753189,4753611,424,1422.2,443.3,4396,right
24,3,valuation,12,5,trial,4752884.0,4754167.0,1283.0,112,L,4753677,4753833,158,565.5,492.8,4466,likertVertical
24,3,valuation,12,5,trial,4752884.0,4754167.0,1283.0,112,L,4753851,4754159,310,533.8,462.7,4550,likertVertical
24,3,valuation,12,5,trial,4752884.0,4754167.0,1283.0,112,L,4754217,4754351,136,776.2,618.4,4756,NA
24,3,valuation,12,5,postResponse,4752884.0,4754167.0,1283.0,112,L,4754419,4754501,84,1196.2,575.6,4866,right
24,3,valuation,13,6,trial,4754850.0,4756817.0,1967.0,113,L,4754633,4754995,364,1236.3,480.4,4988,right
24,3,valuation,13,6,trial,4754850.0,4756817.0,1967.0,113,L,4755021,4755251,232,1434.4,505.5,4975,right
24,3,valuation,13,6,trial,4754850.0,4756817.0,1967.0,113,L,4755261,4755869,610,1455.7,478.2,4631,right
24,3,valuation,13,6,trial,4754850.0,4756817.0,1967.0,113,L,4755935,4756719,786,569.8,395.3,4808,likertVertical
24,3,valuation,13,6,trial,4754850.0,4756817.0,1967.0,113,L,4756787,4757059,274,1445.9,471.6,4850,right
