participantNo,block,task,blockTrial,response,trialStage,trialStartTime,trialFinishTime,rt,trial,eye,fixStart,fixEnd,fixLength,fixPosX,fixPosY,dilation,aoi
49,1,continuous,1,78,fixationCross,7493320.0,7497953.0,4633.0,1,R,7492409,7492447,40,998.0,864.7,3970,likertHorizontal
49,1,continuous,1,78,fixationCross,7493320.0,7497953.0,4633.0,1,R,7492463,7492641,180,1056.8,875.1,3968,likertHorizontal
49,1,continuous,1,78,fixationCross,7493320.0,7497953.0,4633.0,1,R,7492667,7492801,136,874.8,874.2,3990,likertHorizontal
49,1,continuous,1,78,fixationCross,7493320.0,7497953.0,4633.0,1,R,7492861,7493023,164,956.1,417.6,3922,NA
49,1,continuous,1,78,trial,7493320.0,7497953.0,4633.0,1,R,7493047,7493589,544,961.8,522.3,3974,NA
49,1,continuous,1,78,trial,7493320.0,7497953.0,4633.0,1,R,7493637,7493751,116,1399.5,452.8,3690,right
49,1,continuous,1,78,trial,7493320.0,7497953.0,4633.0,1,R,7493845,7493989,146,1322.0,997.9,3468,NA
49,1,continuous,1,78,trial,7493320.0,7497953.0,4633.0,1,R,7494007,7494187,182,1414.8,1039.0,3413,NA
49,1,continuous,1,78,trial,7493320.0,7497953.0,4633.0,1,R,7494251,7494509,260,1428.7,505.9,3416,right
49,1,continuous,1,78,trial,7493320.0,7497953.0,4633.0,1,R,7494581,7495011,432,528.5,562.1,3372,left
49,1,continuous,1,78,trial,7493320.0,7497953.0,4633.0,1,R,7495087,7495325,240,1520.9,553.1,3184,right
49,1,continuous,1,78,trial,7493320.0,7497953.0,4633.0,1,R,7495351,7495505,156,1362.6,525.6,3204,right
49,1,continuous,1,78,trial,7493320.0,7497953.0,4633.0,1,R,7495579,7495789,212,504.7,572.2,3338,left
49,1,continuous,1,78,trial,7493320.0,7497953.0,4633.0,1,R,7495817,7496117,302,660.7,593.2,3318,left
49,1,continuous,1,78,trial,7493320.0,7497953.0,4633.0,1,R,7496183,7496465,284,1378.0,528.7,3218,right
49,1,continuous,1,78,trial,7493320.0,7497953.0,4633.0,1,R,7496519,7496701,184,1300.2,975.1,3238,NA
49,1,continuous,1,78,trial,7493320.0,7497953.0,4633.0,1,R,7496723,7496861,140,1396.7,1024.8,3291,NA
49,1,continuous,1,78,trial,7493320.0,7497953.0,4633.0,1,R,7496881,7497107,228,1312.5,990.5,3351,NA
49,1,continuous,1,78,trial,7493320.0,7497953.0,4633.0,1,R,7497133,7497347,216,1186.5,861.4,3461,NA
49,1,continuous,1,78,trial,7493320.0,7497953.0,4633.0,1,R,7497371,7497767,398,1183.4,717.6,3533,right
49,1,continuous,1,78,postResponse,7493320.0,7497953.0,4633.0,1,R,7497873,7498293,422,1209.7,999.4,3714,NA
49,1,continuous,2,17,fixationCross,7499070.0,7501387.0,2317.0,2,R,7498415,7498747,334,948.2,1049.0,3972,likertHorizontal
49,1,continuous,2,17,fixationCross,7499070.0,7501387.0,2317.0,2,R,7498825,7498913,90,962.0,550.1,4091,NA
49,1,continuous,2,17,trial,7499070.0,7501387.0,2317.0,2,R,7498935,7499245,312,958.8,456.0,4114,NA
49,1,continuous,2,17,trial,7499070.0,7501387.0,2317.0,2,R,7499289,7499721,434,561.9,448.3,3860,left
49,1,continuous,2,17,trial,7499070.0,7501387.0,2317.0,2,R,7499785,7500131,348,1395.7,449.3,3456,right
49,1,continuous,2,17,trial,7499070.0,7501387.0,2317.0,2,R,7500199,7500521,324,559.9,456.0,3576,left
49,1,continuous,2,17,trial,7499070.0,7501387.0,2317.0,2,R,7500575,7501117,544,678.6,970.4,3553,NA
49,1,continuous,2,17,trial,7499070.0,7501387.0,2317.0,2,R,7501129,7501301,174,621.7,978.2,3581,NA
49,1,continuous,2,17,trial,7499070.0,7501387.0,2317.0,2,R,7501343,7501667,326,646.8,806.1,3608,NA
49,1,continuous,3,90,fixationCross,7502603.0,7504837.0,2234.0,3,R,7501875,7501899,26,789.5,58.1,3779,NA
49,1,continuous,3,90,fixationCross,7502603.0,7504837.0,2234.0,3,R,7501911,7502033,124,774.9,92.0,3623,NA
49,1,continuous,3,90,fixationCross,7502603.0,7504837.0,2234.0,3,R,7502087,7502237,152,306.1,80.4,3713,NA
49,1,continuous,3,90,fixationCross,7502603.0,7504837.0,2234.0,3,R,7502303,7502459,158,964.6,471.8,3716,NA
49,1,continuous,3,90,trial,7502603.0,7504837.0,2234.0,3,R,7502473,7502807,336,951.1,513.5,3802,NA
49,1,continuous,3,90,trial,7502603.0,7504837.0,2234.0,3,R,7502853,7503181,330,1448.9,473.6,3719,right
49,1,continuous,3,90,trial,7502603.0,7504837.0,2234.0,3,R,7503201,7503507,308,1535.8,454.2,3496,right
49,1,continuous,3,90,trial,7502603.0,7504837.0,2234.0,3,R,7503577,7503879,304,632.9,545.5,3645,left
49,1,continuous,3,90,trial,7502603.0,7504837.0,2234.0,3,R,7503945,7504181,238,1521.3,457.3,3510,right
49,1,continuous,3,90,trial,7502603.0,7504837.0,2234.0,3,R,7504251,7504503,254,1144.9,957.3,3616,likertHorizontal
49,1,continuous,3,90,trial,7502603.0,7504837.0,2234.0,3,R,7504529,7504765,238,1369.6,992.6,3585,NA
49,1,continuous,3,90,postResponse,7502603.0,7504837.0,2234.0,3,R,7504777,7505185,410,1336.4,987.8,3644,NA
49,1,continuous,4,100,fixationCross,7505920.0,7508503.0,2583.0,4,R,7505259,7505335,78,1330.0,985.7,3700,NA
49,1,continuous,4,100,fixationCross,7505920.0,7508503.0,2583.0,4,R,7505375,7505575,202,955.1,1021.1,3865,likertHorizontal
49,1,continuous,4,100,fixationCross,7505920.0,7508503.0,2583.0,4,R,7505635,7505797,164,926.2,513.8,3931,NA
49,1,continuous,4,100,trial,7505920.0,7508503.0,2583.0,4,R,7505947,7505967,22,957.2,481.3,4206,NA
49,1,continuous,4,100,trial,7505920.0,7508503.0,2583.0,4,R,7505987,7506119,134,964.9,516.8,4058,NA
49,1,continuous,4,100,trial,7505920.0,7508503.0,2583.0,4,R,7506161,7506379,220,616.6,449.7,3955,left
49,1,continuous,4,100,trial,7505920.0,7508503.0,2583.0,4,R,7506407,7506675,270,397.6,486.4,3615,left
49,1,continuous,4,100,trial,7505920.0,7508503.0,2583.0,4,R,7506747,7507229,484,1391.6,507.3,3362,right
49,1,continuous,4,100,trial,7505920.0,7508503.0,2583.0,4,R,7507245,7507387,144,1419.4,538.3,3219,right
49,1,continuous,4,100,trial,7505920.0,7508503.0,2583.0,4,R,7507467,7507623,158,488.0,494.7,3316,left
49,1,continuous,4,100,trial,7505920.0,7508503.0,2583.0,4,R,7507693,7507849,158,1149.2,1017.3,3277,likertHorizontal
49,1,continuous,4,100,trial,7505920.0,7508503.0,2583.0,4,R,7507877,7508129,254,1397.4,1003.6,3411,NA
49,1,continuous,4,100,trial,7505920.0,7508503.0,2583.0,4,R,7508143,7508415,274,1439.3,991.9,3586,NA
49,1,continuous,4,100,trial,7505920.0,7508503.0,2583.0,4,R,7508495,7508773,280,436.1,542.6,3770,left
49,1,continuous,5,1,fixationCross,7509671.0,7511704.0,2033.0,5,R,7508965,7509171,208,1231.5,456.7,3582,right
49,1,continuous,5,1,fixationCross,7509671.0,7511704.0,2033.0,5,R,7509197,7509359,164,1051.6,407.6,3750,NA
49,1,continuous,5,1,fixationCross,7509671.0,7511704.0,2033.0,5,R,7509381,7509527,148,975.2,482.4,3862,NA
49,1,continuous,5,1,trial,7509671.0,7511704.0,2033.0,5,R,7509539,7509893,356,957.8,504.7,3964,NA
49,1,continuous,5,1,trial,7509671.0,7511704.0,2033.0,5,R,7509939,7510167,230,1448.4,484.6,3734,right
49,1,continuous,5,1,trial,7509671.0,7511704.0,2033.0,5,R,7510185,7510429,246,1546.0,480.8,3499,right
49,1,continuous,5,1,trial,7509671.0,7511704.0,2033.0,5,R,7510507,7511083,578,504.1,529.4,3485,left
49,1,continuous,5,1,trial,7509671.0,7511704.0,2033.0,5,R,7511135,7511407,274,518.2,991.1,3367,NA
49,1,continuous,5,1,postResponse,7509671.0,7511704.0,2033.0,5,R,7511421,7512043,624,491.0,950.8,3533,NA
49,1,continuous,6,24,fixationCross,7512887.0,7515020.0,2133.0,6,R,7512245,7512307,64,723.3,873.9,4044,NA
49,1,continuous,6,24,fixationCross,7512887.0,7515020.0,2133.0,6,R,7512329,7512363,36,725.8,868.6,4055,NA
49,1,continuous,6,24,fixationCross,7512887.0,7515020.0,2133.0,6,R,7512551,7512575,26,1046.9,275.6,3809,NA
49,1,continuous,6,24,fixationCross,7512887.0,7515020.0,2133.0,6,R,7512593,7512625,34,1046.3,309.2,3705,NA
49,1,continuous,6,24,trial,7512887.0,7515020.0,2133.0,6,R,7512661,7513089,430,946.8,509.4,3975,NA
49,1,continuous,6,24,trial,7512887.0,7515020.0,2133.0,6,R,7513137,7513615,480,518.6,455.3,3696,left
49,1,continuous,6,24,trial,7512887.0,7515020.0,2133.0,6,R,7513635,7513781,148,532.3,400.1,3500,left
49,1,continuous,6,24,trial,7512887.0,7515020.0,2133.0,6,R,7513845,7514161,318,1388.9,458.9,3414,right
49,1,continuous,6,24,trial,7512887.0,7515020.0,2133.0,6,R,7514181,7514331,152,1473.2,482.3,3279,right
49,1,continuous,6,24,trial,7512887.0,7515020.0,2133.0,6,R,7514405,7514657,254,491.2,464.5,3255,left
49,1,continuous,6,24,trial,7512887.0,7515020.0,2133.0,6,R,7514711,7514905,196,608.5,935.6,3310,NA
49,1,continuous,6,24,trial,7512887.0,7515020.0,2133.0,6,R,7514929,7515289,362,710.1,980.2,3512,NA
49,1,continuous,7,40,fixationCross,7516170.0,7518537.0,2367.0,7,R,7515485,7515511,28,828.1,121.4,3808,NA
49,1,continuous,7,40,fixationCross,7516170.0,7518537.0,2367.0,7,R,7515523,7515623,102,828.5,139.0,3665,NA
49,1,continuous,7,40,fixationCross,7516170.0,7518537.0,2367.0,7,R,7515677,7515815,140,361.9,73.8,3777,NA
49,1,continuous,7,40,fixationCross,7516170.0,7518537.0,2367.0,7,R,7515881,7516045,166,981.5,483.0,3845,NA
49,1,continuous,7,40,trial,7516170.0,7518537.0,2367.0,7,R,7516061,7516361,302,942.3,497.1,3862,NA
49,1,continuous,7,40,trial,7516170.0,7518537.0,2367.0,7,R,7516407,7516733,328,475.5,523.5,3756,left
49,1,continuous,7,40,trial,7516170.0,7518537.0,2367.0,7,R,7516793,7517141,350,1324.6,528.0,3348,right
49,1,continuous,7,40,trial,7516170.0,7518537.0,2367.0,7,R,7517163,7517503,342,1453.1,558.4,3362,right
49,1,continuous,7,40,trial,7516170.0,7518537.0,2367.0,7,R,7517581,7517861,282,454.1,522.0,3459,left
49,1,continuous,7,40,trial,7516170.0,7518537.0,2367.0,7,R,7517919,7518227,310,758.0,912.9,3509,likertHorizontal
49,1,continuous,7,40,trial,7516170.0,7518537.0,2367.0,7,R,7518249,7518779,532,847.9,981.5,3656,likertHorizontal
49,1,continuous,8,49,fixationCross,7519571.0,7522120.0,2549.0,8,R,7519001,7519231,232,835.4,154.9,3782,NA
49,1,continuous,8,49,trial,7519571.0,7522120.0,2549.0,8,R,7519281,7519761,482,951.9,534.3,3946,NA
49,1,continuous,8,49,trial,7519571.0,7522120.0,2549.0,8,R,7519809,7520263,456,541.2,463.5,3644,left
49,1,continuous,8,49,trial,7519571.0,7522120.0,2549.0,8,R,7520287,7520347,62,671.4,484.9,3476,left
49,1,continuous,8,49,trial,7519571.0,7522120.0,2549.0,8,R,7520401,7520461,62,1207.1,465.2,3396,right
49,1,continuous,8,49,trial,7519571.0,7522120.0,2549.0,8,R,7520497,7520747,252,1525.0,499.8,3323,right
49,1,continuous,8,49,trial,7519571.0,7522120.0,2549.0,8,R,7520771,7520933,164,1383.0,492.0,3214,right
49,1,continuous,8,49,trial,7519571.0,7522120.0,2549.0,8,R,7521003,7521355,354,546.8,547.7,3266,left
49,1,continuous,8,49,trial,7519571.0,7522120.0,2549.0,8,R,7521383,7521517,136,776.1,599.9,3401,NA
49,1,continuous,8,49,trial,7519571.0,7522120.0,2549.0,8,R,7521569,7522403,836,930.6,991.7,3628,likertHorizontal
49,1,continuous,9,22,fixationCross,7523220.0,7525188.0,1968.0,9,R,7522609,7522641,34,990.4,530.5,3915,NA
49,1,continuous,9,22,fixationCross,7523220.0,7525188.0,1968.0,9,R,7522659,7522789,132,994.2,562.0,3835,NA
49,1,continuous,9,22,fixationCross,7523220.0,7525188.0,1968.0,9,R,7522813,7523017,206,872.1,476.9,3961,NA
49,1,continuous,9,22,trial,7523220.0,7525188.0,1968.0,9,R,7523037,7523417,382,949.3,526.0,4009,NA
49,1,continuous,9,22,trial,7523220.0,7525188.0,1968.0,9,R,7523465,7523897,434,493.9,510.1,3793,left
49,1,continuous,9,22,trial,7523220.0,7525188.0,1968.0,9,R,7523967,7524373,408,1410.4,448.3,3420,right
49,1,continuous,9,22,trial,7523220.0,7525188.0,1968.0,9,R,7524447,7524627,182,597.5,718.1,3441,left
49,1,continuous,9,22,trial,7523220.0,7525188.0,1968.0,9,R,7524669,7525041,374,670.5,997.2,3532,NA
49,1,continuous,9,22,trial,7523220.0,7525188.0,1968.0,9,R,7525055,7525457,404,690.9,968.3,3684,NA
49,1,continuous,10,49,fixationCross,7526254.0,7529070.0,2816.0,10,R,7525665,7525699,36,767.3,87.3,3889,NA
49,1,continuous,10,49,fixationCross,7526254.0,7529070.0,2816.0,10,R,7525711,7525925,216,758.4,120.6,3763,NA
49,1,continuous,10,49,trial,7526254.0,7529070.0,2816.0,10,R,7525979,7526425,448,949.0,535.1,3877,NA
49,1,continuous,10,49,trial,7526254.0,7529070.0,2816.0,10,R,7526475,7527031,558,1449.5,484.3,3563,right
49,1,continuous,10,49,trial,7526254.0,7529070.0,2816.0,10,R,7527053,7527177,126,1459.7,392.8,3391,right
49,1,continuous,10,49,trial,7526254.0,7529070.0,2816.0,10,R,7527253,7527551,300,508.8,522.2,3467,left
49,1,continuous,10,49,trial,7526254.0,7529070.0,2816.0,10,R,7527603,7527733,132,754.8,832.9,3422,likertHorizontal
49,1,continuous,10,49,trial,7526254.0,7529070.0,2816.0,10,R,7527771,7528883,1114,941.4,982.1,3574,likertHorizontal
49,1,continuous,10,49,trial,7526254.0,7529070.0,2816.0,10,R,7528937,7529071,136,1200.2,694.2,3713,right
49,1,continuous,10,49,trial,7526254.0,7529070.0,2816.0,10,R,7529117,7529347,232,965.2,985.4,3743,likertHorizontal
49,1,continuous,11,62,fixationCross,7530204.0,7533671.0,3467.0,11,R,7529569,7529683,116,954.0,185.7,3769,NA
49,1,continuous,11,62,fixationCross,7530204.0,7533671.0,3467.0,11,R,7529749,7529883,136,407.8,177.7,3910,NA
49,1,continuous,11,62,trial,7530204.0,7533671.0,3467.0,11,R,7529943,7530411,470,945.3,527.6,3920,NA
49,1,continuous,11,62,trial,7530204.0,7533671.0,3467.0,11,R,7530461,7530843,384,475.0,554.0,3744,left
49,1,continuous,11,62,trial,7530204.0,7533671.0,3467.0,11,R,7530901,7530995,96,978.9,400.9,3409,NA
49,1,continuous,11,62,trial,7530204.0,7533671.0,3467.0,11,R,7531039,7531331,294,1379.3,442.7,3374,right
49,1,continuous,11,62,trial,7530204.0,7533671.0,3467.0,11,R,7531355,7531563,210,1423.8,532.0,3474,right
49,1,continuous,11,62,trial,7530204.0,7533671.0,3467.0,11,R,7531587,7531827,242,1418.9,433.6,3440,right
49,1,continuous,11,62,trial,7530204.0,7533671.0,3467.0,11,R,7531847,7531945,100,1311.5,415.5,3404,right
49,1,continuous,11,62,trial,7530204.0,7533671.0,3467.0,11,R,7532017,7532657,642,449.0,557.8,3509,left
49,1,continuous,11,62,trial,7530204.0,7533671.0,3467.0,11,R,7532737,7532863,128,1049.6,929.2,3609,likertHorizontal
49,1,continuous,11,62,trial,7530204.0,7533671.0,3467.0,11,R,7532879,7532903,26,999.9,869.2,3639,likertHorizontal
49,1,continuous,11,62,trial,7530204.0,7533671.0,3467.0,11,R,7532957,7533321,366,1022.6,975.4,3582,likertHorizontal
49,1,continuous,11,62,trial,7530204.0,7533671.0,3467.0,11,R,7533399,7533663,266,1352.4,487.4,3702,right
49,1,continuous,11,62,trial,7530204.0,7533671.0,3467.0,11,R,7533689,7533827,140,1410.4,617.2,3620,right
49,1,continuous,11,62,postResponse,7530204.0,7533671.0,3467.0,11,R,7533881,7534015,136,1024.7,993.7,3701,likertHorizontal
49,1,continuous,12,34,fixationCross,7535071.0,7538087.0,3016.0,12,R,7534115,7534201,88,1021.2,996.3,3815,likertHorizontal
49,1,continuous,12,34,fixationCross,7535071.0,7538087.0,3016.0,12,R,7534389,7534421,34,836.4,219.6,4093,NA
49,1,continuous,12,34,fixationCross,7535071.0,7538087.0,3016.0,12,R,7534441,7534535,96,836.0,235.0,4001,NA
49,1,continuous,12,34,fixationCross,7535071.0,7538087.0,3016.0,12,R,7534585,7534807,224,987.1,436.7,4095,NA
49,1,continuous,12,34,trial,7535071.0,7538087.0,3016.0,12,R,7534819,7535257,440,961.7,469.7,4125,NA
49,1,continuous,12,34,trial,7535071.0,7538087.0,3016.0,12,R,7535305,7535589,286,521.9,450.1,3922,left
49,1,continuous,12,34,trial,7535071.0,7538087.0,3016.0,12,R,7535611,7535877,268,387.4,437.5,3733,left
49,1,continuous,12,34,trial,7535071.0,7538087.0,3016.0,12,R,7535903,7536095,194,562.7,407.4,3700,left
49,1,continuous,12,34,trial,7535071.0,7538087.0,3016.0,12,R,7536109,7536273,166,606.6,423.2,3719,left
49,1,continuous,12,34,trial,7535071.0,7538087.0,3016.0,12,R,7536337,7536599,264,1458.5,438.3,3689,right
49,1,continuous,12,34,trial,7535071.0,7538087.0,3016.0,12,R,7536617,7536819,204,1490.0,383.3,3527,right
49,1,continuous,12,34,trial,7535071.0,7538087.0,3016.0,12,R,7536837,7537059,224,1458.2,419.0,3435,right
49,1,continuous,12,34,trial,7535071.0,7538087.0,3016.0,12,R,7537141,7537335,196,451.4,464.1,3548,left
49,1,continuous,12,34,trial,7535071.0,7538087.0,3016.0,12,R,7537395,7537595,202,783.5,903.0,3590,likertHorizontal
49,1,continuous,12,34,trial,7535071.0,7538087.0,3016.0,12,R,7537611,7537903,294,789.5,960.1,3734,likertHorizontal
49,1,continuous,12,34,trial,7535071.0,7538087.0,3016.0,12,R,7537961,7538125,166,493.7,540.6,3814,left
49,1,continuous,12,34,trial,7535071.0,7538087.0,3016.0,12,R,7538153,7538339,188,362.3,453.0,3796,left
49,1,continuous,13,27,fixationCross,7539187.0,7541971.0,2784.0,13,R,7538507,7538817,312,527.2,7.0,3709,NA
49,1,continuous,13,27,fixationCross,7539187.0,7541971.0,2784.0,13,R,7538877,7539003,128,943.6,439.7,3714,NA
49,1,continuous,13,27,trial,7539187.0,7541971.0,2784.0,13,R,7539021,7539393,374,936.4,503.8,3756,NA
49,1,continuous,13,27,trial,7539187.0,7541971.0,2784.0,13,R,7539439,7539947,510,531.1,497.4,3829,left
49,1,continuous,13,27,trial,7539187.0,7541971.0,2784.0,13,R,7539967,7540247,282,609.8,494.5,3715,left
49,1,continuous,13,27,trial,7539187.0,7541971.0,2784.0,13,R,7540313,7540565,254,1453.4,522.6,3592,right
49,1,continuous,13,27,trial,7539187.0,7541971.0,2784.0,13,R,7540581,7540933,354,1467.3,476.5,3441,right
49,1,continuous,13,27,trial,7539187.0,7541971.0,2784.0,13,R,7541005,7541285,282,546.6,515.7,3420,left
49,1,continuous,13,27,trial,7539187.0,7541971.0,2784.0,13,R,7541339,7541565,228,809.3,981.1,3564,likertHorizontal
49,1,continuous,13,27,trial,7539187.0,7541971.0,2784.0,13,R,7541581,7542209,630,743.6,966.1,3628,likertHorizontal
49,1,continuous,14,40,fixationCross,7543071.0,7545970.0,2899.0,14,R,7542393,7542533,142,481.9,56.1,3676,NA
49,1,continuous,14,40,fixationCross,7543071.0,7545970.0,2899.0,14,R,7542583,7542725,144,72.8,112.2,3726,NA
49,1,continuous,14,40,fixationCross,7543071.0,7545970.0,2899.0,14,R,7542795,7543013,220,951.5,451.7,3741,NA
49,1,continuous,14,40,trial,7543071.0,7545970.0,2899.0,14,R,7543027,7543241,216,940.8,491.6,3745,NA
49,1,continuous,14,40,trial,7543071.0,7545970.0,2899.0,14,R,7543289,7543509,222,471.5,493.1,3865,left
49,1,continuous,14,40,trial,7543071.0,7545970.0,2899.0,14,R,7543527,7543899,374,507.5,530.9,3777,left
49,1,continuous,14,40,trial,7543071.0,7545970.0,2899.0,14,R,7543915,7544037,124,445.0,558.7,3712,left
49,1,continuous,14,40,trial,7543071.0,7545970.0,2899.0,14,R,7544107,7544283,178,1403.2,483.4,3563,right
49,1,continuous,14,40,trial,7543071.0,7545970.0,2899.0,14,R,7544299,7544511,214,1455.2,478.3,3554,right
49,1,continuous,14,40,trial,7543071.0,7545970.0,2899.0,14,R,7544533,7544673,142,1391.1,528.8,3561,right
49,1,continuous,14,40,trial,7543071.0,7545970.0,2899.0,14,R,7544747,7545031,286,492.1,549.3,3647,left
49,1,continuous,14,40,trial,7543071.0,7545970.0,2899.0,14,R,7545085,7545347,264,812.7,946.1,3713,likertHorizontal
49,1,continuous,14,40,trial,7543071.0,7545970.0,2899.0,14,R,7545399,7545569,172,496.5,622.2,3720,left
49,1,continuous,14,40,trial,7543071.0,7545970.0,2899.0,14,R,7545587,7545789,204,501.4,542.2,3721,left
49,1,continuous,14,40,trial,7543071.0,7545970.0,2899.0,14,R,7545843,7546213,372,831.2,979.2,3699,likertHorizontal
49,1,continuous,15,12,fixationCross,7547087.0,7548738.0,1651.0,15,R,7546403,7546427,26,754.8,91.7,3798,NA
49,1,continuous,15,12,fixationCross,7547087.0,7548738.0,1651.0,15,R,7546437,7546521,86,744.9,126.8,3634,NA
49,1,continuous,15,12,fixationCross,7547087.0,7548738.0,1651.0,15,R,7546573,7546713,142,219.1,91.0,3736,NA
49,1,continuous,15,12,trial,7547087.0,7548738.0,1651.0,15,R,7546781,7547243,464,935.6,492.9,3797,NA
49,1,continuous,15,12,trial,7547087.0,7548738.0,1651.0,15,R,7547289,7547673,386,515.6,498.2,3778,left
49,1,continuous,15,12,trial,7547087.0,7548738.0,1651.0,15,R,7547751,7548015,266,1480.4,577.1,3317,right
49,1,continuous,15,12,trial,7547087.0,7548738.0,1651.0,15,R,7548039,7548219,182,1322.8,572.6,3300,right
49,1,continuous,15,12,trial,7547087.0,7548738.0,1651.0,15,R,7548279,7548471,194,699.1,907.0,3562,NA
49,1,continuous,15,12,trial,7547087.0,7548738.0,1651.0,15,R,7548491,7548631,142,574.6,953.1,3572,NA
49,1,continuous,15,12,trial,7547087.0,7548738.0,1651.0,15,R,7548681,7548999,320,440.3,558.3,3525,left
49,1,continuous,16,13,fixationCross,7549737.0,7552121.0,2384.0,16,R,7549165,7549379,216,11.1,128.9,3451,NA
49,1,continuous,16,13,fixationCross,7549737.0,7552121.0,2384.0,16,R,7549459,7549609,152,879.9,533.6,3658,NA
49,1,continuous,16,13,trial,7549737.0,7552121.0,2384.0,16,R,7549627,7549889,264,950.8,521.0,3667,NA
49,1,continuous,16,13,trial,7549737.0,7552121.0,2384.0,16,R,7549935,7550177,244,564.8,502.1,3790,left
49,1,continuous,16,13,trial,7549737.0,7552121.0,2384.0,16,R,7550251,7550531,282,1478.9,495.4,3426,right
49,1,continuous,16,13,trial,7549737.0,7552121.0,2384.0,16,R,7550557,7550703,148,1339.1,399.7,3357,right
49,1,continuous,16,13,trial,7549737.0,7552121.0,2384.0,16,R,7550719,7550817,100,1310.5,354.7,3344,right
49,1,continuous,16,13,trial,7549737.0,7552121.0,2384.0,16,R,7550843,7551037,196,1482.5,522.8,3292,right
49,1,continuous,16,13,trial,7549737.0,7552121.0,2384.0,16,R,7551049,7551185,138,1522.5,525.1,3288,right
49,1,continuous,16,13,trial,7549737.0,7552121.0,2384.0,16,R,7551259,7551547,290,546.1,531.7,3376,left
49,1,continuous,16,13,trial,7549737.0,7552121.0,2384.0,16,R,7551603,7551783,182,668.3,980.5,3366,NA
49,1,continuous,16,13,trial,7549737.0,7552121.0,2384.0,16,R,7551799,7551999,202,619.6,979.4,3398,NA
49,1,continuous,16,13,trial,7549737.0,7552121.0,2384.0,16,R,7552009,7552355,348,582.0,977.8,3449,NA
49,1,continuous,17,43,fixationCross,7553270.0,7555971.0,2701.0,17,R,7552551,7552569,20,506.1,80.6,3695,NA
49,1,continuous,17,43,fixationCross,7553270.0,7555971.0,2701.0,17,R,7552577,7552729,154,480.5,114.6,3542,NA
49,1,continuous,17,43,fixationCross,7553270.0,7555971.0,2701.0,17,R,7552789,7552975,188,846.7,511.9,3685,NA
49,1,continuous,17,43,trial,7553270.0,7555971.0,2701.0,17,R,7552997,7553271,276,942.6,519.3,3734,NA
49,1,continuous,17,43,trial,7553270.0,7555971.0,2701.0,17,R,7553309,7553451,144,865.3,403.5,3841,NA
49,1,continuous,17,43,trial,7553270.0,7555971.0,2701.0,17,R,7553497,7553677,182,468.5,517.6,3839,left
49,1,continuous,17,43,trial,7553270.0,7555971.0,2701.0,17,R,7553697,7554043,348,389.5,545.0,3583,left
49,1,continuous,17,43,trial,7553270.0,7555971.0,2701.0,17,R,7554111,7554431,322,1313.1,496.0,3402,right
49,1,continuous,17,43,trial,7553270.0,7555971.0,2701.0,17,R,7554451,7554605,156,1423.8,496.5,3354,right
49,1,continuous,17,43,trial,7553270.0,7555971.0,2701.0,17,R,7554685,7554857,174,570.2,578.2,3454,left
49,1,continuous,17,43,trial,7553270.0,7555971.0,2701.0,17,R,7554883,7555105,224,373.1,576.8,3503,left
49,1,continuous,17,43,trial,7553270.0,7555971.0,2701.0,17,R,7555171,7555291,122,952.5,1013.6,3565,likertHorizontal
49,1,continuous,17,43,trial,7553270.0,7555971.0,2701.0,17,R,7555301,7555681,382,926.3,991.5,3557,likertHorizontal
49,1,continuous,17,43,trial,7553270.0,7555971.0,2701.0,17,R,7555691,7555805,116,873.5,986.5,3592,likertHorizontal
49,1,continuous,17,43,trial,7553270.0,7555971.0,2701.0,17,R,7555847,7555981,136,557.7,1009.1,3656,NA
49,1,continuous,17,43,postResponse,7553270.0,7555971.0,2701.0,17,R,7556021,7556317,298,887.8,997.4,3665,likertHorizontal
49,1,continuous,18,67,fixationCross,7557137.0,7560054.0,2917.0,18,R,7556391,7556557,168,882.9,996.7,3793,likertHorizontal
49,1,continuous,18,67,fixationCross,7557137.0,7560054.0,2917.0,18,R,7556635,7556803,170,720.3,362.4,3871,left
49,1,continuous,18,67,fixationCross,7557137.0,7560054.0,2917.0,18,R,7556841,7557021,182,934.6,489.8,3914,NA
49,1,continuous,18,67,trial,7557137.0,7560054.0,2917.0,18,R,7557031,7557327,298,943.5,515.0,4002,NA
49,1,continuous,18,67,trial,7557137.0,7560054.0,2917.0,18,R,7557373,7557661,290,566.8,499.5,3861,left
49,1,continuous,18,67,trial,7557137.0,7560054.0,2917.0,18,R,7557679,7558659,982,622.5,480.9,3731,left
49,1,continuous,18,67,trial,7557137.0,7560054.0,2917.0,18,R,7558719,7558931,214,1354.6,541.0,3642,right
49,1,continuous,18,67,trial,7557137.0,7560054.0,2917.0,18,R,7558953,7559225,274,1475.3,587.8,3513,right
49,1,continuous,18,67,trial,7557137.0,7560054.0,2917.0,18,R,7559241,7559669,430,1421.4,577.3,3419,right
49,1,continuous,18,67,trial,7557137.0,7560054.0,2917.0,18,R,7559729,7559871,144,1025.6,961.9,3443,likertHorizontal
49,1,continuous,18,67,trial,7557137.0,7560054.0,2917.0,18,R,7559889,7560287,400,1094.5,973.7,3453,likertHorizontal
49,1,continuous,19,37,fixationCross,7561304.0,7565088.0,3784.0,19,R,7560495,7560519,26,345.2,220.9,3808,NA
49,1,continuous,19,37,fixationCross,7561304.0,7565088.0,3784.0,19,R,7560533,7560655,124,326.7,266.3,3616,NA
49,1,continuous,19,37,fixationCross,7561304.0,7565088.0,3784.0,19,R,7560685,7560793,110,160.3,148.3,3667,NA
49,1,continuous,19,37,fixationCross,7561304.0,7565088.0,3784.0,19,R,7560851,7561001,152,848.7,434.4,3717,NA
49,1,continuous,19,37,trial,7561304.0,7565088.0,3784.0,19,R,7561025,7561459,436,952.6,518.0,3796,NA
49,1,continuous,19,37,trial,7561304.0,7565088.0,3784.0,19,R,7561511,7561879,370,489.3,517.1,3742,left
49,1,continuous,19,37,trial,7561304.0,7565088.0,3784.0,19,R,7561897,7562347,452,413.7,559.0,3764,left
49,1,continuous,19,37,trial,7561304.0,7565088.0,3784.0,19,R,7562365,7562489,126,492.3,546.9,3840,left
49,1,continuous,19,37,trial,7561304.0,7565088.0,3784.0,19,R,7562555,7562729,176,1333.1,410.6,3751,right
49,1,continuous,19,37,trial,7561304.0,7565088.0,3784.0,19,R,7562743,7562903,162,1372.1,389.2,3763,right
49,1,continuous,19,37,trial,7561304.0,7565088.0,3784.0,19,R,7562919,7563265,348,1357.1,339.1,3678,NA
49,1,continuous,19,37,trial,7561304.0,7565088.0,3784.0,19,R,7563303,7563391,90,1363.7,578.2,3557,right
49,1,continuous,19,37,trial,7561304.0,7565088.0,3784.0,19,R,7563463,7563705,244,534.3,546.7,3665,left
49,1,continuous,19,37,trial,7561304.0,7565088.0,3784.0,19,R,7563717,7563841,126,487.5,542.0,3654,left
49,1,continuous,19,37,trial,7561304.0,7565088.0,3784.0,19,R,7563863,7564473,612,385.3,556.5,3779,left
49,1,continuous,19,37,trial,7561304.0,7565088.0,3784.0,19,R,7564537,7564675,140,779.7,1007.2,3899,likertHorizontal
49,1,continuous,19,37,trial,7561304.0,7565088.0,3784.0,19,R,7564687,7565329,644,818.6,983.8,3824,likertHorizontal
49,1,continuous,20,62,fixationCross,7566138.0,7569971.0,3833.0,20,R,7565513,7565551,40,895.3,263.4,3907,NA
49,1,continuous,20,62,fixationCross,7566138.0,7569971.0,3833.0,20,R,7565571,7565647,78,892.0,297.2,3802,NA
49,1,continuous,20,62,fixationCross,7566138.0,7569971.0,3833.0,20,R,7565703,7565855,154,879.5,792.9,3925,likertHorizontal
49,1,continuous,20,62,trial,7566138.0,7569971.0,3833.0,20,R,7565903,7566283,382,946.6,521.6,3930,NA
49,1,continuous,20,62,trial,7566138.0,7569971.0,3833.0,20,R,7566335,7566491,158,463.2,456.2,3940,left
49,1,continuous,20,62,trial,7566138.0,7569971.0,3833.0,20,R,7566505,7567143,640,472.8,406.1,3595,left
49,1,continuous,20,62,trial,7566138.0,7569971.0,3833.0,20,R,7567213,7567507,296,1392.0,415.0,3415,right
49,1,continuous,20,62,trial,7566138.0,7569971.0,3833.0,20,R,7567529,7568011,484,1434.4,510.2,3346,right
49,1,continuous,20,62,trial,7566138.0,7569971.0,3833.0,20,R,7568033,7568293,262,1571.5,528.5,3243,right
49,1,continuous,20,62,trial,7566138.0,7569971.0,3833.0,20,R,7568317,7568443,128,1552.9,620.2,3219,right
49,1,continuous,20,62,trial,7566138.0,7569971.0,3833.0,20,R,7568527,7568661,136,474.2,494.0,3344,left
49,1,continuous,20,62,trial,7566138.0,7569971.0,3833.0,20,R,7568685,7569001,318,475.9,398.6,3340,left
49,1,continuous,20,62,trial,7566138.0,7569971.0,3833.0,20,R,7569071,7569471,402,1384.2,432.8,3289,right
49,1,continuous,20,62,trial,7566138.0,7569971.0,3833.0,20,R,7569547,7569729,184,484.2,452.2,3421,left
49,1,continuous,20,62,trial,7566138.0,7569971.0,3833.0,20,R,7569795,7569961,168,1405.8,501.9,3345,right
49,1,continuous,20,62,trial,7566138.0,7569971.0,3833.0,20,R,7570023,7570245,224,1050.4,1003.2,3488,likertHorizontal
49,1,continuous,21,32,fixationCross,7571171.0,7574071.0,2900.0,21,R,7570441,7570473,34,977.1,1019.9,3771,likertHorizontal
49,1,continuous,21,32,fixationCross,7571171.0,7574071.0,2900.0,21,R,7570501,7570579,80,989.8,1077.2,3582,likertHorizontal
49,1,continuous,21,32,fixationCross,7571171.0,7574071.0,2900.0,21,R,7570593,7570755,164,953.7,1095.0,3723,likertHorizontal
49,1,continuous,21,32,fixationCross,7571171.0,7574071.0,2900.0,21,R,7570849,7571055,208,958.5,439.3,3796,NA
49,1,continuous,21,32,trial,7571171.0,7574071.0,2900.0,21,R,7571073,7571331,260,947.8,483.5,3812,NA
49,1,continuous,21,32,trial,7571171.0,7574071.0,2900.0,21,R,7571385,7571541,158,483.3,481.9,3828,left
49,1,continuous,21,32,trial,7571171.0,7574071.0,2900.0,21,R,7571559,7572109,552,529.6,544.9,3579,left
49,1,continuous,21,32,trial,7571171.0,7574071.0,2900.0,21,R,7572177,7572921,746,1442.1,471.4,3400,right
49,1,continuous,21,32,trial,7571171.0,7574071.0,2900.0,21,R,7572933,7573417,486,1468.2,459.0,3460,right
49,1,continuous,21,32,trial,7571171.0,7574071.0,2900.0,21,R,7573489,7573647,160,592.8,557.5,3675,left
49,1,continuous,21,32,trial,7571171.0,7574071.0,2900.0,21,R,7573663,7574033,372,537.2,547.4,3564,left
49,1,continuous,21,32,postResponse,7571171.0,7574071.0,2900.0,21,R,7574083,7574419,338,765.0,979.4,3524,likertHorizontal
49,1,continuous,22,100,fixationCross,7575321.0,7577171.0,1850.0,22,R,7574493,7574761,270,761.3,975.5,3663,likertHorizontal
49,1,continuous,22,100,fixationCross,7575321.0,7577171.0,1850.0,22,R,7574877,7574923,48,908.0,345.0,3734,NA
49,1,continuous,22,100,fixationCross,7575321.0,7577171.0,1850.0,22,R,7575085,7575121,38,957.8,413.5,3873,NA
49,1,continuous,22,100,trial,7575321.0,7577171.0,1850.0,22,R,7575139,7575471,334,960.0,462.6,3813,NA
49,1,continuous,22,100,trial,7575321.0,7577171.0,1850.0,22,R,7575523,7575697,176,496.3,438.1,3817,left
49,1,continuous,22,100,trial,7575321.0,7577171.0,1850.0,22,R,7575717,7575997,282,434.9,383.2,3515,left
49,1,continuous,22,100,trial,7575321.0,7577171.0,1850.0,22,R,7576011,7576167,158,434.2,334.2,3364,NA
49,1,continuous,22,100,trial,7575321.0,7577171.0,1850.0,22,R,7576245,7576627,384,1441.7,536.0,3295,right
49,1,continuous,22,100,trial,7575321.0,7577171.0,1850.0,22,R,7576677,7576877,202,1323.6,968.8,3280,NA
49,1,continuous,22,100,trial,7575321.0,7577171.0,1850.0,22,R,7576899,7577047,150,1448.6,987.0,3277,NA
49,1,continuous,22,100,trial,7575321.0,7577171.0,1850.0,22,R,7577101,7577413,314,1414.4,595.1,3425,right
49,1,continuous,23,29,fixationCross,7578287.0,7582004.0,3717.0,23,R,7577609,7577725,118,669.5,86.1,3482,NA
49,1,continuous,23,29,fixationCross,7578287.0,7582004.0,3717.0,23,R,7577777,7577945,170,181.7,101.0,3585,NA
49,1,continuous,23,29,trial,7578287.0,7582004.0,3717.0,23,R,7578021,7578459,440,969.2,466.2,3663,NA
49,1,continuous,23,29,trial,7578287.0,7582004.0,3717.0,23,R,7578507,7578655,150,526.9,490.4,3811,left
49,1,continuous,23,29,trial,7578287.0,7582004.0,3717.0,23,R,7578679,7578855,178,402.2,564.3,3647,left
49,1,continuous,23,29,trial,7578287.0,7582004.0,3717.0,23,R,7578877,7579199,324,529.6,528.6,3519,left
49,1,continuous,23,29,trial,7578287.0,7582004.0,3717.0,23,R,7579263,7579623,362,1397.7,527.9,3326,right
49,1,continuous,23,29,trial,7578287.0,7582004.0,3717.0,23,R,7579637,7579923,288,1451.4,534.9,3307,right
49,1,continuous,23,29,trial,7578287.0,7582004.0,3717.0,23,R,7579997,7580227,232,552.2,514.5,3374,left
49,1,continuous,23,29,trial,7578287.0,7582004.0,3717.0,23,R,7580253,7580433,182,371.2,583.6,3378,left
49,1,continuous,23,29,trial,7578287.0,7582004.0,3717.0,23,R,7580459,7580741,284,536.9,536.3,3351,left
49,1,continuous,23,29,trial,7578287.0,7582004.0,3717.0,23,R,7580805,7581399,596,1414.4,534.6,3235,right
49,1,continuous,23,29,trial,7578287.0,7582004.0,3717.0,23,R,7581467,7581675,210,574.9,609.0,3458,left
49,1,continuous,23,29,trial,7578287.0,7582004.0,3717.0,23,R,7581691,7581965,276,537.3,569.7,3424,left
49,1,continuous,23,29,postResponse,7578287.0,7582004.0,3717.0,23,R,7582019,7582347,330,713.5,968.6,3486,NA
49,1,continuous,24,25,fixationCross,7583087.0,7586071.0,2984.0,24,R,7582533,7582749,218,1224.2,287.2,3568,NA
49,1,continuous,24,25,fixationCross,7583087.0,7586071.0,2984.0,24,R,7582793,7582939,148,915.7,473.2,3761,NA
49,1,continuous,24,25,trial,7583087.0,7586071.0,2984.0,24,R,7582955,7583223,270,955.0,506.3,3852,NA
49,1,continuous,24,25,trial,7583087.0,7586071.0,2984.0,24,R,7583267,7583507,242,585.9,498.8,3857,left
49,1,continuous,24,25,trial,7583087.0,7586071.0,2984.0,24,R,7583517,7583691,176,558.1,485.4,3617,left
49,1,continuous,24,25,trial,7583087.0,7586071.0,2984.0,24,R,7583701,7584395,696,595.0,473.4,3590,left
49,1,continuous,24,25,trial,7583087.0,7586071.0,2984.0,24,R,7584459,7584773,316,1356.5,494.7,3507,right
49,1,continuous,24,25,trial,7583087.0,7586071.0,2984.0,24,R,7584787,7585051,266,1396.6,487.4,3446,right
49,1,continuous,24,25,trial,7583087.0,7586071.0,2984.0,24,R,7585063,7585163,102,1356.8,477.1,3402,right
49,1,continuous,24,25,trial,7583087.0,7586071.0,2984.0,24,R,7585233,7585829,598,581.8,504.5,3463,left
49,1,continuous,24,25,trial,7583087.0,7586071.0,2984.0,24,R,7585869,7586067,200,362.7,624.9,3572,left
49,1,continuous,24,25,trial,7583087.0,7586071.0,2984.0,24,R,7586137,7586321,186,735.8,994.5,3638,NA
49,1,continuous,25,38,fixationCross,7587854.0,7590837.0,2983.0,25,R,7586523,7586697,176,1151.8,430.3,3646,NA
49,1,continuous,25,38,fixationCross,7587854.0,7590837.0,2983.0,25,R,7586735,7586923,190,987.0,247.4,3727,NA
49,1,continuous,25,38,fixationCross,7587854.0,7590837.0,2983.0,25,R,7586957,7587251,296,966.2,426.8,3824,NA
49,1,continuous,25,38,fixationCross,7587854.0,7590837.0,2983.0,25,R,7587273,7587529,258,1156.1,331.4,3894,NA
49,1,continuous,25,38,trial,7587854.0,7590837.0,2983.0,25,R,7587563,7588051,490,960.3,480.4,3949,NA
49,1,continuous,25,38,trial,7587854.0,7590837.0,2983.0,25,R,7588103,7588691,590,394.9,558.6,3712,left
49,1,continuous,25,38,trial,7587854.0,7590837.0,2983.0,25,R,7588713,7588983,272,501.5,552.2,3614,left
49,1,continuous,25,38,trial,7587854.0,7590837.0,2983.0,25,R,7589053,7589299,248,1364.0,548.1,3534,right
49,1,continuous,25,38,trial,7587854.0,7590837.0,2983.0,25,R,7589315,7589573,260,1399.7,585.4,3447,right
49,1,continuous,25,38,trial,7587854.0,7590837.0,2983.0,25,R,7589649,7589961,314,398.3,561.5,3458,left
49,1,continuous,25,38,trial,7587854.0,7590837.0,2983.0,25,R,7590025,7590195,172,963.2,970.8,3535,likertHorizontal
49,1,continuous,25,38,trial,7587854.0,7590837.0,2983.0,25,R,7590253,7590735,484,1380.9,553.9,3581,right
49,1,continuous,25,38,postResponse,7587854.0,7590837.0,2983.0,25,R,7590791,7591185,396,820.9,969.9,3657,likertHorizontal
49,1,continuous,26,22,fixationCross,7652872.0,7654622.0,1750.0,26,R,7652235,7652275,42,107.2,-27.4,3741,NA
49,1,continuous,26,22,fixationCross,7652872.0,7654622.0,1750.0,26,R,7652463,7652493,32,891.3,511.0,3672,NA
49,1,continuous,26,22,fixationCross,7652872.0,7654622.0,1750.0,26,R,7652723,7652853,132,985.7,519.6,3710,NA
49,1,continuous,26,22,trial,7652872.0,7654622.0,1750.0,26,R,7652863,7653171,310,962.3,546.3,3928,NA
49,1,continuous,26,22,trial,7652872.0,7654622.0,1750.0,26,R,7653217,7653599,384,488.1,557.9,3659,left
49,1,continuous,26,22,trial,7652872.0,7654622.0,1750.0,26,R,7653665,7654067,404,1410.5,539.6,3301,right
49,1,continuous,26,22,trial,7652872.0,7654622.0,1750.0,26,R,7654135,7654385,252,545.0,551.0,3440,left
49,1,continuous,26,22,trial,7652872.0,7654622.0,1750.0,26,R,7654401,7654639,240,479.8,542.9,3465,left
49,1,continuous,26,22,trial,7652872.0,7654622.0,1750.0,26,R,7654693,7654867,176,623.2,962.3,3542,NA
49,1,continuous,27,1,fixationCross,7655689.0,7657838.0,2149.0,27,R,7655091,7655107,18,941.3,451.3,3648,NA
49,1,continuous,27,1,fixationCross,7655689.0,7657838.0,2149.0,27,R,7655289,7655311,24,903.7,391.3,3826,NA
49,1,continuous,27,1,fixationCross,7655689.0,7657838.0,2149.0,27,R,7655329,7655435,108,906.4,431.6,3737,NA
49,1,continuous,27,1,trial,7655689.0,7657838.0,2149.0,27,R,7655457,7655893,438,968.3,538.9,4067,NA
49,1,continuous,27,1,trial,7655689.0,7657838.0,2149.0,27,R,7655937,7656201,266,584.5,556.0,3957,left
49,1,continuous,27,1,trial,7655689.0,7657838.0,2149.0,27,R,7656211,7656441,232,597.6,545.4,3635,left
49,1,continuous,27,1,trial,7655689.0,7657838.0,2149.0,27,R,7656503,7656827,326,1441.9,498.3,3448,right
49,1,continuous,27,1,trial,7655689.0,7657838.0,2149.0,27,R,7656897,7657421,526,605.8,542.3,3563,left
49,1,continuous,27,1,trial,7655689.0,7657838.0,2149.0,27,R,7657469,7657633,166,592.4,977.6,3663,NA
49,1,continuous,27,1,trial,7655689.0,7657838.0,2149.0,27,R,7657653,7658057,406,498.1,991.2,3785,NA
49,1,continuous,28,34,fixationCross,7658955.0,7660589.0,1634.0,28,R,7658249,7658261,14,906.0,264.0,3955,NA
49,1,continuous,28,34,fixationCross,7658955.0,7660589.0,1634.0,28,R,7658281,7658449,170,908.3,287.7,3820,NA
49,1,continuous,28,34,fixationCross,7658955.0,7660589.0,1634.0,28,R,7658495,7658641,148,759.8,562.7,4039,NA
49,1,continuous,28,34,trial,7658955.0,7660589.0,1634.0,28,R,7658671,7659155,486,968.7,556.5,4199,NA
49,1,continuous,28,34,trial,7658955.0,7660589.0,1634.0,28,R,7659199,7659405,208,577.2,537.6,4060,left
49,1,continuous,28,34,trial,7658955.0,7660589.0,1634.0,28,R,7659421,7659557,138,643.6,531.2,3868,left
49,1,continuous,28,34,trial,7658955.0,7660589.0,1634.0,28,R,7659617,7660029,414,1390.0,527.5,3695,right
49,1,continuous,28,34,trial,7658955.0,7660589.0,1634.0,28,R,7660095,7660425,332,555.8,533.4,3619,left
49,1,continuous,28,34,trial,7658955.0,7660589.0,1634.0,28,R,7660443,7660575,134,636.8,539.7,3534,left
49,1,continuous,28,34,trial,7658955.0,7660589.0,1634.0,28,R,7660625,7660811,188,763.8,990.9,3592,likertHorizontal
49,1,continuous,29,100,fixationCross,7661706.0,7663272.0,1566.0,29,R,7661035,7661179,146,1371.5,434.3,3607,right
49,1,continuous,29,100,fixationCross,7661706.0,7663272.0,1566.0,29,R,7661237,7661401,166,779.9,420.1,3895,NA
49,1,continuous,29,100,trial,7661706.0,7663272.0,1566.0,29,R,7661427,7661899,474,966.1,560.7,4091,NA
49,1,continuous,29,100,trial,7661706.0,7663272.0,1566.0,29,R,7661945,7662101,158,559.1,536.0,4026,left
49,1,continuous,29,100,trial,7661706.0,7663272.0,1566.0,29,R,7662125,7662357,234,449.1,447.0,3672,left
49,1,continuous,29,100,trial,7661706.0,7663272.0,1566.0,29,R,7662379,7662497,120,495.5,527.9,3531,left
49,1,continuous,29,100,trial,7661706.0,7663272.0,1566.0,29,R,7662569,7663261,694,1421.2,507.6,3472,right
49,1,continuous,29,100,trial,7661706.0,7663272.0,1566.0,29,R,7663321,7663539,220,1437.7,997.6,3565,NA
49,1,continuous,30,27,fixationCross,7664438.0,7666122.0,1684.0,30,R,7663739,7663769,32,700.4,596.9,4025,left
49,1,continuous,30,27,fixationCross,7664438.0,7666122.0,1684.0,30,R,7663789,7663905,118,692.4,695.3,3815,left
49,1,continuous,30,27,fixationCross,7664438.0,7666122.0,1684.0,30,R,7663977,7664115,140,254.3,425.1,3981,left
49,1,continuous,30,27,fixationCross,7664438.0,7666122.0,1684.0,30,R,7664171,7664321,152,1017.0,550.2,4026,NA
49,1,continuous,30,27,trial,7664438.0,7666122.0,1684.0,30,R,7664335,7664625,292,972.3,557.9,4086,NA
49,1,continuous,30,27,trial,7664438.0,7666122.0,1684.0,30,R,7664671,7664907,238,533.1,542.6,4052,left
49,1,continuous,30,27,trial,7664438.0,7666122.0,1684.0,30,R,7664923,7665177,256,566.0,574.6,3687,left
49,1,continuous,30,27,trial,7664438.0,7666122.0,1684.0,30,R,7665243,7665437,196,1407.0,541.6,3444,right
49,1,continuous,30,27,trial,7664438.0,7666122.0,1684.0,30,R,7665449,7665559,112,1357.9,528.8,3451,right
49,1,continuous,30,27,trial,7664438.0,7666122.0,1684.0,30,R,7665623,7666059,438,596.8,588.8,3550,left
49,1,continuous,30,27,trial,7664438.0,7666122.0,1684.0,30,R,7666109,7666389,282,698.7,1006.8,3529,NA
49,1,continuous,31,20,fixationCross,7667255.0,7669105.0,1850.0,31,R,7666595,7666623,30,920.6,391.1,3683,NA
49,1,continuous,31,20,fixationCross,7667255.0,7669105.0,1850.0,31,R,7666641,7666715,76,923.0,426.7,3615,NA
49,1,continuous,31,20,fixationCross,7667255.0,7669105.0,1850.0,31,R,7666759,7666931,174,628.0,160.8,3764,NA
49,1,continuous,31,20,fixationCross,7667255.0,7669105.0,1850.0,31,R,7666981,7667249,270,928.5,536.2,3942,NA
49,1,continuous,31,20,trial,7667255.0,7669105.0,1850.0,31,R,7667261,7667459,200,965.0,544.0,4001,NA
49,1,continuous,31,20,trial,7667255.0,7669105.0,1850.0,31,R,7667503,7668081,580,543.1,508.1,3687,left
49,1,continuous,31,20,trial,7667255.0,7669105.0,1850.0,31,R,7668101,7668173,74,537.7,598.5,3452,left
49,1,continuous,31,20,trial,7667255.0,7669105.0,1850.0,31,R,7668237,7668529,294,1385.7,568.0,3386,right
49,1,continuous,31,20,trial,7667255.0,7669105.0,1850.0,31,R,7668601,7668845,246,499.9,565.4,3459,left
49,1,continuous,31,20,trial,7667255.0,7669105.0,1850.0,31,R,7668859,7669337,480,534.1,597.2,3511,left
49,1,continuous,32,32,fixationCross,7670256.0,7671939.0,1683.0,32,R,7669543,7669721,180,1518.0,301.9,3623,NA
49,1,continuous,32,32,fixationCross,7670256.0,7671939.0,1683.0,32,R,7669777,7669947,172,1091.9,68.9,3791,NA
49,1,continuous,32,32,trial,7670256.0,7671939.0,1683.0,32,R,7670007,7670489,484,955.2,556.9,4121,NA
49,1,continuous,32,32,trial,7670256.0,7671939.0,1683.0,32,R,7670539,7670931,394,486.9,560.8,3780,left
49,1,continuous,32,32,trial,7670256.0,7671939.0,1683.0,32,R,7671003,7671459,458,1449.1,538.4,3343,right
49,1,continuous,32,32,trial,7670256.0,7671939.0,1683.0,32,R,7671537,7671761,226,422.8,574.3,3591,left
49,1,continuous,32,32,trial,7670256.0,7671939.0,1683.0,32,R,7671817,7672155,340,771.0,999.4,3532,likertHorizontal
49,1,continuous,33,32,fixationCross,7673106.0,7675388.0,2282.0,33,R,7672369,7672401,34,966.0,479.6,3809,NA
49,1,continuous,33,32,fixationCross,7673106.0,7675388.0,2282.0,33,R,7672419,7672519,102,967.9,506.8,3717,NA
49,1,continuous,33,32,fixationCross,7673106.0,7675388.0,2282.0,33,R,7672565,7672789,226,683.2,271.3,3865,NA
49,1,continuous,33,32,trial,7673106.0,7675388.0,2282.0,33,R,7672839,7673277,440,964.6,554.3,4046,NA
49,1,continuous,33,32,trial,7673106.0,7675388.0,2282.0,33,R,7673321,7673651,332,601.1,546.8,3969,left
49,1,continuous,33,32,trial,7673106.0,7675388.0,2282.0,33,R,7673727,7674001,276,1474.6,548.0,3546,right
49,1,continuous,33,32,trial,7673106.0,7675388.0,2282.0,33,R,7674019,7674413,396,1424.5,510.8,3485,right
49,1,continuous,33,32,trial,7673106.0,7675388.0,2282.0,33,R,7674487,7674815,330,553.7,566.4,3594,left
49,1,continuous,33,32,trial,7673106.0,7675388.0,2282.0,33,R,7674833,7675125,294,630.6,585.6,3587,left
49,1,continuous,33,32,trial,7673106.0,7675388.0,2282.0,33,R,7675143,7675353,212,712.7,607.7,3571,left
49,1,continuous,33,32,trial,7673106.0,7675388.0,2282.0,33,R,7675405,7675615,212,808.4,982.0,3675,likertHorizontal
49,1,continuous,34,77,fixationCross,7676556.0,7678106.0,1550.0,34,R,7675835,7675969,136,1043.5,256.5,3730,NA
49,1,continuous,34,77,fixationCross,7676556.0,7678106.0,1550.0,34,R,7675993,7676225,234,1121.4,100.1,3812,NA
49,1,continuous,34,77,fixationCross,7676556.0,7678106.0,1550.0,34,R,7676281,7676427,148,1025.6,512.8,4005,NA
49,1,continuous,34,77,trial,7676556.0,7678106.0,1550.0,34,R,7676447,7676743,298,958.7,545.7,4059,NA
49,1,continuous,34,77,trial,7676556.0,7678106.0,1550.0,34,R,7676787,7677049,264,568.7,519.9,3991,left
49,1,continuous,34,77,trial,7676556.0,7678106.0,1550.0,34,R,7677067,7677169,104,625.8,516.5,3716,left
49,1,continuous,34,77,trial,7676556.0,7678106.0,1550.0,34,R,7677231,7677571,342,1430.4,510.8,3498,right
49,1,continuous,34,77,trial,7676556.0,7678106.0,1550.0,34,R,7677589,7677975,388,1377.5,548.6,3407,right
49,1,continuous,34,77,trial,7676556.0,7678106.0,1550.0,34,R,7678043,7678317,276,574.9,523.2,3473,left
49,1,continuous,35,24,fixationCross,7679272.0,7681256.0,1984.0,35,R,7678533,7678713,182,1424.5,523.1,3547,right
49,1,continuous,35,24,fixationCross,7679272.0,7681256.0,1984.0,35,R,7678779,7678941,164,962.8,264.4,3776,NA
49,1,continuous,35,24,fixationCross,7679272.0,7681256.0,1984.0,35,R,7678975,7679137,164,944.3,526.4,3894,NA
49,1,continuous,35,24,trial,7679272.0,7681256.0,1984.0,35,R,7679147,7679437,292,967.7,553.4,4031,NA
49,1,continuous,35,24,trial,7679272.0,7681256.0,1984.0,35,R,7679487,7679717,232,1537.1,523.4,3853,right
49,1,continuous,35,24,trial,7679272.0,7681256.0,1984.0,35,R,7679735,7680051,318,1612.3,525.7,3428,right
49,1,continuous,35,24,trial,7679272.0,7681256.0,1984.0,35,R,7680125,7680379,256,604.8,518.3,3469,left
49,1,continuous,35,24,trial,7679272.0,7681256.0,1984.0,35,R,7680401,7680751,352,483.5,570.3,3443,left
49,1,continuous,35,24,trial,7679272.0,7681256.0,1984.0,35,R,7680771,7681105,336,577.2,574.5,3328,left
49,1,continuous,35,24,trial,7679272.0,7681256.0,1984.0,35,R,7681157,7681477,322,716.2,995.3,3412,NA
49,1,continuous,36,69,fixationCross,7682439.0,7684172.0,1733.0,36,R,7681695,7681857,164,1387.0,210.5,3477,NA
49,1,continuous,36,69,fixationCross,7682439.0,7684172.0,1733.0,36,R,7681925,7682095,172,938.7,-273.8,3642,NA
49,1,continuous,36,69,trial,7682439.0,7684172.0,1733.0,36,R,7682173,7682489,318,922.9,538.6,3751,NA
49,1,continuous,36,69,trial,7682439.0,7684172.0,1733.0,36,R,7682507,7682649,144,979.0,530.6,3798,NA
49,1,continuous,36,69,trial,7682439.0,7684172.0,1733.0,36,R,7682693,7683065,374,1393.1,534.9,3718,right
49,1,continuous,36,69,trial,7682439.0,7684172.0,1733.0,36,R,7683085,7683123,40,1500.3,531.8,3578,right
49,1,continuous,36,69,trial,7682439.0,7684172.0,1733.0,36,R,7683193,7683421,230,572.0,530.6,3642,left
49,1,continuous,36,69,trial,7682439.0,7684172.0,1733.0,36,R,7683443,7683643,202,435.7,531.0,3603,left
49,1,continuous,36,69,trial,7682439.0,7684172.0,1733.0,36,R,7683713,7684385,674,1331.6,551.8,3546,right
49,1,continuous,37,21,fixationCross,7685272.0,7687122.0,1850.0,37,R,7684797,7684945,150,1240.8,670.8,3887,right
49,1,continuous,37,21,trial,7685272.0,7687122.0,1850.0,37,R,7684987,7685441,456,949.8,567.0,3938,NA
49,1,continuous,37,21,trial,7685272.0,7687122.0,1850.0,37,R,7685487,7685767,282,559.3,506.2,3816,left
49,1,continuous,37,21,trial,7685272.0,7687122.0,1850.0,37,R,7685827,7686327,502,1367.8,497.4,3562,right
49,1,continuous,37,21,trial,7685272.0,7687122.0,1850.0,37,R,7686395,7686571,178,570.0,526.2,3584,left
49,1,continuous,37,21,trial,7685272.0,7687122.0,1850.0,37,R,7686583,7687379,798,532.4,530.2,3691,left
49,1,continuous,38,94,fixationCross,7688323.0,7689822.0,1499.0,38,R,7687571,7687797,228,1367.9,354.6,3812,right
49,1,continuous,38,94,fixationCross,7688323.0,7689822.0,1499.0,38,R,7687851,7688007,158,1089.6,146.6,3899,NA
49,1,continuous,38,94,trial,7688323.0,7689822.0,1499.0,38,R,7688063,7688345,284,915.3,577.9,4005,NA
49,1,continuous,38,94,trial,7688323.0,7689822.0,1499.0,38,R,7688363,7688499,138,965.3,535.6,4066,NA
49,1,continuous,38,94,trial,7688323.0,7689822.0,1499.0,38,R,7688545,7688761,218,559.3,495.5,3969,left
49,1,continuous,38,94,trial,7688323.0,7689822.0,1499.0,38,R,7688773,7688971,200,524.5,479.2,3666,left
49,1,continuous,38,94,trial,7688323.0,7689822.0,1499.0,38,R,7689039,7689451,414,1468.4,553.2,3445,right
49,1,continuous,38,94,trial,7688323.0,7689822.0,1499.0,38,R,7689473,7689653,182,1584.8,532.9,3482,right
49,1,continuous,38,94,trial,7688323.0,7689822.0,1499.0,38,R,7689709,7690089,382,1366.6,966.2,3585,NA
49,1,continuous,39,13,fixationCross,7690956.0,7692939.0,1983.0,39,R,7690309,7690335,28,756.2,331.6,3934,NA
49,1,continuous,39,13,fixationCross,7690956.0,7692939.0,1983.0,39,R,7690353,7690457,106,759.9,357.5,3774,NA
49,1,continuous,39,13,fixationCross,7690956.0,7692939.0,1983.0,39,R,7690503,7690623,122,359.1,218.8,3874,NA
49,1,continuous,39,13,trial,7690956.0,7692939.0,1983.0,39,R,7690683,7691149,468,959.6,555.5,4028,NA
49,1,continuous,39,13,trial,7690956.0,7692939.0,1983.0,39,R,7691197,7691513,318,498.6,521.7,3961,left
49,1,continuous,39,13,trial,7690956.0,7692939.0,1983.0,39,R,7691539,7691789,252,612.0,592.4,3732,left
49,1,continuous,39,13,trial,7690956.0,7692939.0,1983.0,39,R,7691815,7691981,168,478.2,536.9,3740,left
49,1,continuous,39,13,trial,7690956.0,7692939.0,1983.0,39,R,7692047,7692203,158,1390.6,553.5,3596,right
49,1,continuous,39,13,trial,7690956.0,7692939.0,1983.0,39,R,7692227,7692497,272,1545.5,498.7,3440,right
49,1,continuous,39,13,trial,7690956.0,7692939.0,1983.0,39,R,7692527,7692801,276,1345.2,569.5,3394,right
49,1,continuous,39,13,trial,7690956.0,7692939.0,1983.0,39,R,7692871,7693163,294,517.4,566.7,3513,left
49,1,continuous,40,82,fixationCross,7694089.0,7696373.0,2284.0,40,R,7693361,7693385,26,841.6,323.5,3738,NA
49,1,continuous,40,82,fixationCross,7694089.0,7696373.0,2284.0,40,R,7693403,7693519,118,858.7,344.7,3616,NA
49,1,continuous,40,82,fixationCross,7694089.0,7696373.0,2284.0,40,R,7693583,7693741,160,338.9,220.7,3771,NA
49,1,continuous,40,82,fixationCross,7694089.0,7696373.0,2284.0,40,R,7693799,7694059,262,905.4,555.2,3874,NA
49,1,continuous,40,82,trial,7694089.0,7696373.0,2284.0,40,R,7694075,7694271,198,973.4,542.9,3948,NA
49,1,continuous,40,82,trial,7694089.0,7696373.0,2284.0,40,R,7694315,7694567,254,585.2,527.5,3918,left
49,1,continuous,40,82,trial,7694089.0,7696373.0,2284.0,40,R,7694589,7694751,164,455.6,527.1,3669,left
49,1,continuous,40,82,trial,7694089.0,7696373.0,2284.0,40,R,7694769,7694983,216,379.3,507.2,3571,left
49,1,continuous,40,82,trial,7694089.0,7696373.0,2284.0,40,R,7694995,7695163,170,341.7,507.1,3495,left
49,1,continuous,40,82,trial,7694089.0,7696373.0,2284.0,40,R,7695227,7695391,166,1312.2,521.9,3444,right
49,1,continuous,40,82,trial,7694089.0,7696373.0,2284.0,40,R,7695405,7695949,546,1361.8,479.6,3453,right
49,1,continuous,40,82,trial,7694089.0,7696373.0,2284.0,40,R,7696023,7696319,298,1214.2,987.6,3444,NA
49,1,continuous,40,82,trial,7694089.0,7696373.0,2284.0,40,R,7696335,7696625,292,1280.3,1000.4,3553,NA
49,1,continuous,41,16,fixationCross,7697689.0,7700006.0,2317.0,41,R,7696833,7696867,36,826.2,304.5,4006,NA
49,1,continuous,41,16,fixationCross,7697689.0,7700006.0,2317.0,41,R,7696887,7697073,188,828.2,324.3,3867,NA
49,1,continuous,41,16,fixationCross,7697689.0,7700006.0,2317.0,41,R,7697125,7697357,234,1201.1,500.1,3917,right
49,1,continuous,41,16,fixationCross,7697689.0,7700006.0,2317.0,41,R,7697383,7697531,150,1004.5,529.7,3981,NA
49,1,continuous,41,16,trial,7697689.0,7700006.0,2317.0,41,R,7697545,7697719,176,960.6,549.3,4029,NA
49,1,continuous,41,16,trial,7697689.0,7700006.0,2317.0,41,R,7697915,7697959,46,881.8,454.6,4214,NA
49,1,continuous,41,16,trial,7697689.0,7700006.0,2317.0,41,R,7697977,7698003,28,882.6,497.4,3961,NA
49,1,continuous,41,16,trial,7697689.0,7700006.0,2317.0,41,R,7698045,7698201,158,547.2,525.2,3861,left
49,1,continuous,41,16,trial,7697689.0,7700006.0,2317.0,41,R,7698239,7698413,176,335.2,621.4,3675,left
49,1,continuous,41,16,trial,7697689.0,7700006.0,2317.0,41,R,7698427,7698585,160,290.3,639.7,3507,left
49,1,continuous,41,16,trial,7697689.0,7700006.0,2317.0,41,R,7698627,7698831,206,574.6,542.9,3426,left
49,1,continuous,41,16,trial,7697689.0,7700006.0,2317.0,41,R,7698895,7699085,192,1363.8,587.6,3380,right
49,1,continuous,41,16,trial,7697689.0,7700006.0,2317.0,41,R,7699103,7699453,352,1400.2,644.0,3403,right
49,1,continuous,41,16,trial,7697689.0,7700006.0,2317.0,41,R,7699519,7699701,184,725.7,995.9,3399,NA
49,1,continuous,41,16,trial,7697689.0,7700006.0,2317.0,41,R,7699761,7699969,210,353.8,588.6,3365,left
49,1,continuous,41,16,trial,7697689.0,7700006.0,2317.0,41,R,7700045,7700251,208,1392.4,657.9,3402,right
49,1,continuous,42,80,fixationCross,7701123.0,7703189.0,2066.0,42,R,7700429,7700441,14,616.7,9.0,3754,NA
49,1,continuous,42,80,fixationCross,7701123.0,7703189.0,2066.0,42,R,7700461,7700555,96,611.3,86.8,3605,NA
49,1,continuous,42,80,fixationCross,7701123.0,7703189.0,2066.0,42,R,7700607,7700753,148,140.2,-77.5,3789,NA
49,1,continuous,42,80,trial,7701123.0,7703189.0,2066.0,42,R,7700833,7701311,480,956.0,561.2,3908,NA
49,1,continuous,42,80,trial,7701123.0,7703189.0,2066.0,42,R,7701357,7701763,408,545.2,534.1,3846,left
49,1,continuous,42,80,trial,7701123.0,7703189.0,2066.0,42,R,7701825,7701995,172,1318.1,543.1,3680,right
49,1,continuous,42,80,trial,7701123.0,7703189.0,2066.0,42,R,7702017,7702227,212,1436.6,556.2,3624,right
49,1,continuous,42,80,trial,7701123.0,7703189.0,2066.0,42,R,7702243,7702417,176,1498.5,567.8,3514,right
49,1,continuous,42,80,trial,7701123.0,7703189.0,2066.0,42,R,7702493,7703085,594,516.2,561.9,3574,left
49,1,continuous,42,80,trial,7701123.0,7703189.0,2066.0,42,R,7703165,7703441,278,1247.8,1021.9,3611,NA
49,1,continuous,43,2,fixationCross,7704306.0,7706639.0,2333.0,43,R,7703683,7703809,128,1208.3,157.7,3624,NA
49,1,continuous,43,2,fixationCross,7704306.0,7706639.0,2333.0,43,R,7703863,7703995,134,755.6,188.7,3809,NA
49,1,continuous,43,2,trial,7704306.0,7706639.0,2333.0,43,R,7704045,7704493,450,975.0,538.9,3931,NA
49,1,continuous,43,2,trial,7704306.0,7706639.0,2333.0,43,R,7704539,7704661,124,543.3,522.2,3982,left
49,1,continuous,43,2,trial,7704306.0,7706639.0,2333.0,43,R,7704695,7705271,578,376.4,475.3,3460,left
49,1,continuous,43,2,trial,7704306.0,7706639.0,2333.0,43,R,7705347,7705507,162,1428.2,496.6,3244,right
49,1,continuous,43,2,trial,7704306.0,7706639.0,2333.0,43,R,7705533,7705805,274,1632.8,483.9,3240,right
49,1,continuous,43,2,trial,7704306.0,7706639.0,2333.0,43,R,7705845,7706145,302,1269.4,526.4,3380,right
49,1,continuous,43,2,trial,7704306.0,7706639.0,2333.0,43,R,7706217,7706473,258,386.0,476.2,3499,left
49,1,continuous,43,2,trial,7704306.0,7706639.0,2333.0,43,R,7706505,7706865,362,555.6,660.5,3453,left
49,1,continuous,44,90,fixationCross,7707773.0,7709440.0,1667.0,44,R,7707139,7707165,28,977.6,336.1,3699,NA
49,1,continuous,44,90,fixationCross,7707773.0,7709440.0,1667.0,44,R,7707183,7707287,106,979.6,366.4,3640,NA
49,1,continuous,44,90,fixationCross,7707773.0,7709440.0,1667.0,44,R,7707343,7707453,112,464.8,188.7,3815,NA
49,1,continuous,44,90,trial,7707773.0,7709440.0,1667.0,44,R,7707509,7707939,432,959.8,536.5,4029,NA
49,1,continuous,44,90,trial,7707773.0,7709440.0,1667.0,44,R,7707983,7708131,150,594.1,467.4,4070,left
49,1,continuous,44,90,trial,7707773.0,7709440.0,1667.0,44,R,7708147,7708447,302,605.8,413.4,3769,left
49,1,continuous,44,90,trial,7707773.0,7709440.0,1667.0,44,R,7708511,7708791,282,1419.3,510.1,3672,right
49,1,continuous,44,90,trial,7707773.0,7709440.0,1667.0,44,R,7708813,7709039,228,1301.3,470.4,3635,right
49,1,continuous,44,90,trial,7707773.0,7709440.0,1667.0,44,R,7709101,7709267,168,609.2,416.5,3589,left
49,1,continuous,44,90,trial,7707773.0,7709440.0,1667.0,44,R,7709345,7709491,148,1286.1,916.6,3497,NA
49,1,continuous,44,90,trial,7707773.0,7709440.0,1667.0,44,R,7709511,7709705,196,1336.7,990.8,3632,NA
49,1,continuous,45,82,fixationCross,7710606.0,7713490.0,2884.0,45,R,7709915,7710115,202,1183.0,248.2,3881,NA
49,1,continuous,45,82,fixationCross,7710606.0,7713490.0,2884.0,45,R,7710163,7710309,148,860.1,473.9,3965,NA
49,1,continuous,45,82,trial,7710606.0,7713490.0,2884.0,45,R,7710331,7710841,512,961.2,545.5,4074,NA
49,1,continuous,45,82,trial,7710606.0,7713490.0,2884.0,45,R,7710893,7711033,142,451.9,490.0,3975,left
49,1,continuous,45,82,trial,7710606.0,7713490.0,2884.0,45,R,7711049,7711265,218,401.2,461.5,3747,left
49,1,continuous,45,82,trial,7710606.0,7713490.0,2884.0,45,R,7711337,7711539,204,1411.7,393.0,3482,right
49,1,continuous,45,82,trial,7710606.0,7713490.0,2884.0,45,R,7711547,7711703,158,1438.0,404.3,3458,right
49,1,continuous,45,82,trial,7710606.0,7713490.0,2884.0,45,R,7711731,7711893,164,1473.6,587.4,3511,right
49,1,continuous,45,82,trial,7710606.0,7713490.0,2884.0,45,R,7711973,7712337,366,395.8,471.2,3624,left
49,1,continuous,45,82,trial,7710606.0,7713490.0,2884.0,45,R,7712363,7712705,344,439.6,586.3,3510,left
49,1,continuous,45,82,trial,7710606.0,7713490.0,2884.0,45,R,7712781,7713031,252,1426.7,564.8,3422,right
49,1,continuous,45,82,trial,7710606.0,7713490.0,2884.0,45,R,7713057,7713477,422,1438.2,425.2,3457,right
49,1,continuous,45,82,trial,7710606.0,7713490.0,2884.0,45,R,7713547,7713743,198,1242.6,1001.9,3465,NA
49,1,continuous,46,67,fixationCross,7714640.0,7716806.0,2166.0,46,R,7713945,7713981,38,993.9,1042.0,3956,likertHorizontal
49,1,continuous,46,67,fixationCross,7714640.0,7716806.0,2166.0,46,R,7714021,7714177,158,1004.6,1122.0,3762,likertHorizontal
49,1,continuous,46,67,fixationCross,7714640.0,7716806.0,2166.0,46,R,7714235,7714297,64,1163.1,1232.0,3899,likertHorizontal
49,1,continuous,46,67,fixationCross,7714640.0,7716806.0,2166.0,46,R,7714389,7714527,140,954.7,491.6,3969,NA
49,1,continuous,46,67,trial,7714640.0,7716806.0,2166.0,46,R,7714547,7714773,228,962.0,552.6,4041,NA
49,1,continuous,46,67,trial,7714640.0,7716806.0,2166.0,46,R,7714821,7714935,116,500.3,498.8,4127,left
49,1,continuous,46,67,trial,7714640.0,7716806.0,2166.0,46,R,7714957,7715521,566,382.2,444.9,3762,left
49,1,continuous,46,67,trial,7714640.0,7716806.0,2166.0,46,R,7715541,7715785,246,390.7,527.6,3774,left
49,1,continuous,46,67,trial,7714640.0,7716806.0,2166.0,46,R,7715805,7715885,82,396.0,462.5,3807,left
49,1,continuous,46,67,trial,7714640.0,7716806.0,2166.0,46,R,7715961,7716193,234,1450.8,528.4,3707,right
49,1,continuous,46,67,trial,7714640.0,7716806.0,2166.0,46,R,7716203,7716565,364,1475.5,534.8,3600,right
49,1,continuous,46,67,trial,7714640.0,7716806.0,2166.0,46,R,7716627,7716823,198,985.6,920.8,3598,likertHorizontal
49,1,continuous,46,67,trial,7714640.0,7716806.0,2166.0,46,R,7716885,7717041,158,396.8,524.3,3626,left
49,1,continuous,47,75,fixationCross,7717923.0,7719589.0,1666.0,47,R,7717251,7717479,230,1175.3,327.9,3755,NA
49,1,continuous,47,75,fixationCross,7717923.0,7719589.0,1666.0,47,R,7717529,7717631,104,794.0,273.4,3946,NA
49,1,continuous,47,75,fixationCross,7717923.0,7719589.0,1666.0,47,R,7717675,7717841,168,988.3,556.6,3986,NA
49,1,continuous,47,75,trial,7717923.0,7719589.0,1666.0,47,R,7717851,7718099,250,959.7,556.6,4054,NA
49,1,continuous,47,75,trial,7717923.0,7719589.0,1666.0,47,R,7718149,7718607,460,502.0,530.9,3852,left
49,1,continuous,47,75,trial,7717923.0,7719589.0,1666.0,47,R,7718669,7718927,260,1349.1,492.0,3661,right
49,1,continuous,47,75,trial,7717923.0,7719589.0,1666.0,47,R,7718943,7719283,342,1402.0,530.5,3746,right
49,1,continuous,47,75,trial,7717923.0,7719589.0,1666.0,47,R,7719343,7719415,74,738.9,595.8,3864,NA
49,1,continuous,47,75,trial,7717923.0,7719589.0,1666.0,47,R,7719465,7719625,162,1065.4,908.8,3788,likertHorizontal
49,1,continuous,47,75,postResponse,7717923.0,7719589.0,1666.0,47,R,7719649,7719921,274,1207.0,965.9,3829,NA
49,1,continuous,48,17,fixationCross,7720706.0,7722339.0,1633.0,48,R,7720003,7720197,196,999.2,1204.5,4102,likertHorizontal
49,1,continuous,48,17,fixationCross,7720706.0,7722339.0,1633.0,48,R,7720299,7720483,186,985.9,409.1,4123,NA
49,1,continuous,48,17,trial,7720706.0,7722339.0,1633.0,48,R,7720507,7720755,250,969.9,533.8,4198,NA
49,1,continuous,48,17,trial,7720706.0,7722339.0,1633.0,48,R,7720767,7720899,134,946.1,541.4,4255,NA
49,1,continuous,48,17,trial,7720706.0,7722339.0,1633.0,48,R,7720947,7721425,480,538.2,550.9,4051,left
49,1,continuous,48,17,trial,7720706.0,7722339.0,1633.0,48,R,7721443,7721551,110,617.1,557.0,3869,left
49,1,continuous,48,17,trial,7720706.0,7722339.0,1633.0,48,R,7721613,7722031,420,1418.2,548.5,3765,right
49,1,continuous,48,17,trial,7720706.0,7722339.0,1633.0,48,R,7722101,7722309,210,598.5,677.5,3739,left
49,1,continuous,48,17,trial,7720706.0,7722339.0,1633.0,48,R,7722359,7722607,250,618.0,1047.6,3730,NA
49,1,continuous,49,6,fixationCross,7723506.0,7725189.0,1683.0,49,R,7722817,7722855,40,933.1,193.5,3713,NA
49,1,continuous,49,6,fixationCross,7723506.0,7725189.0,1683.0,49,R,7722873,7722971,100,935.2,234.2,3616,NA
49,1,continuous,49,6,fixationCross,7723506.0,7725189.0,1683.0,49,R,7723029,7723181,154,398.4,205.5,3756,NA
49,1,continuous,49,6,fixationCross,7723506.0,7725189.0,1683.0,49,R,7723237,7723409,174,932.6,505.4,3913,NA
49,1,continuous,49,6,trial,7723506.0,7725189.0,1683.0,49,R,7723423,7723665,244,959.9,553.7,4046,NA
49,1,continuous,49,6,trial,7723506.0,7725189.0,1683.0,49,R,7723713,7723857,146,522.9,530.6,4118,left
49,1,continuous,49,6,trial,7723506.0,7725189.0,1683.0,49,R,7723879,7724155,278,443.4,588.4,3727,left
49,1,continuous,49,6,trial,7723506.0,7725189.0,1683.0,49,R,7724229,7724625,398,1450.0,569.6,3345,right
49,1,continuous,49,6,trial,7723506.0,7725189.0,1683.0,49,R,7724697,7725131,436,541.0,531.2,3384,left
49,1,continuous,49,6,trial,7723506.0,7725189.0,1683.0,49,R,7725183,7725465,284,514.5,979.4,3469,NA
49,1,continuous,50,100,fixationCross,7726339.0,7728073.0,1734.0,50,R,7725667,7725695,30,1005.7,236.9,3630,NA
49,1,continuous,50,100,fixationCross,7726339.0,7728073.0,1734.0,50,R,7725715,7725777,64,1004.1,266.2,3580,NA
49,1,continuous,50,100,fixationCross,7726339.0,7728073.0,1734.0,50,R,7725849,7726011,164,413.5,205.9,3759,NA
49,1,continuous,50,100,fixationCross,7726339.0,7728073.0,1734.0,50,R,7726067,7726329,264,915.5,508.8,3917,NA
49,1,continuous,50,100,trial,7726339.0,7728073.0,1734.0,50,R,7726343,7726543,202,969.6,519.6,3987,NA
49,1,continuous,50,100,trial,7726339.0,7728073.0,1734.0,50,R,7726585,7726899,316,602.9,486.4,3848,left
49,1,continuous,50,100,trial,7726339.0,7728073.0,1734.0,50,R,7726925,7727163,240,392.4,503.9,3571,left
49,1,continuous,50,100,trial,7726339.0,7728073.0,1734.0,50,R,7727183,7727265,84,483.5,512.2,3502,left
49,1,continuous,50,100,trial,7726339.0,7728073.0,1734.0,50,R,7727335,7727733,400,1434.8,582.3,3275,right
49,1,continuous,50,100,trial,7726339.0,7728073.0,1734.0,50,R,7727779,7727905,128,1219.9,921.9,3249,NA
49,1,continuous,50,100,trial,7726339.0,7728073.0,1734.0,50,R,7727933,7728361,430,1424.8,994.6,3310,NA
49,2,binary,1,2,fixationCross,7793507.0,7796491.0,2984.0,51,R,7792548,7792582,36,1024.8,635.2,3880,NA
49,2,binary,1,2,fixationCross,7793507.0,7796491.0,2984.0,51,R,7792594,7792674,82,1028.5,674.7,3664,NA
49,2,binary,1,2,fixationCross,7793507.0,7796491.0,2984.0,51,R,7792696,7792884,190,1134.6,673.2,3709,NA
49,2,binary,1,2,trial,7793507.0,7796491.0,2984.0,51,R,7793372,7793848,478,968.8,552.8,3996,NA
49,2,binary,1,2,trial,7793507.0,7796491.0,2984.0,51,R,7793888,7794036,150,653.2,603.8,3802,left
49,2,binary,1,2,trial,7793507.0,7796491.0,2984.0,51,R,7794088,7794254,168,921.8,1038.1,3763,likertHorizontal
49,2,binary,1,2,trial,7793507.0,7796491.0,2984.0,51,R,7794300,7794436,138,475.9,1070.4,3766,NA
49,2,binary,1,2,trial,7793507.0,7796491.0,2984.0,51,R,7794484,7794780,298,1037.0,985.7,3813,likertHorizontal
49,2,binary,1,2,trial,7793507.0,7796491.0,2984.0,51,R,7794830,7795116,288,520.4,927.2,4019,NA
49,2,binary,1,2,trial,7793507.0,7796491.0,2984.0,51,R,7795178,7795358,182,1331.8,991.7,4016,NA
49,2,binary,1,2,trial,7793507.0,7796491.0,2984.0,51,R,7795380,7795456,78,1451.7,1005.4,3971,NA
49,2,binary,1,2,trial,7793507.0,7796491.0,2984.0,51,R,7795514,7795636,124,1478.2,526.8,4025,right
49,2,binary,1,2,trial,7793507.0,7796491.0,2984.0,51,R,7795656,7795820,166,1510.4,457.2,4004,right
49,2,binary,1,2,trial,7793507.0,7796491.0,2984.0,51,R,7795886,7796140,256,534.8,513.4,3890,left
49,2,binary,1,2,trial,7793507.0,7796491.0,2984.0,51,R,7796210,7796522,314,1483.8,513.6,3581,right
49,2,binary,1,2,trial,7793507.0,7796491.0,2984.0,51,R,7796582,7796740,160,1432.2,1057.7,3593,NA
49,2,binary,2,1,fixationCross,7797558.0,7799141.0,1583.0,52,R,7796924,7796944,22,677.6,346.1,4007,NA
49,2,binary,2,1,fixationCross,7797558.0,7799141.0,1583.0,52,R,7796964,7797230,268,673.7,409.1,3857,left
49,2,binary,2,1,trial,7797558.0,7799141.0,1583.0,52,R,7797264,7797734,472,964.3,532.7,4191,NA
49,2,binary,2,1,trial,7797558.0,7799141.0,1583.0,52,R,7797782,7797904,124,487.9,507.0,4257,left
49,2,binary,2,1,trial,7797558.0,7799141.0,1583.0,52,R,7797924,7798176,254,456.0,430.5,3827,left
49,2,binary,2,1,trial,7797558.0,7799141.0,1583.0,52,R,7798246,7798536,292,1457.9,567.6,3402,right
49,2,binary,2,1,trial,7797558.0,7799141.0,1583.0,52,R,7798552,7798702,152,1413.2,603.9,3345,right
49,2,binary,2,1,trial,7797558.0,7799141.0,1583.0,52,R,7798776,7799040,266,437.4,476.0,3421,left
49,2,binary,2,1,trial,7797558.0,7799141.0,1583.0,52,R,7799056,7799378,324,443.5,426.8,3306,left
49,2,binary,3,1,fixationCross,7800340.0,7801907.0,1567.0,53,R,7799596,7799822,228,241.8,-107.6,3434,NA
49,2,binary,3,1,fixationCross,7800340.0,7801907.0,1567.0,53,R,7799918,7800032,116,1226.4,536.0,3665,right
49,2,binary,3,1,fixationCross,7800340.0,7801907.0,1567.0,53,R,7800068,7800276,210,928.0,548.6,3782,NA
49,2,binary,3,1,trial,7800340.0,7801907.0,1567.0,53,R,7800288,7800542,256,964.6,551.4,3999,NA
49,2,binary,3,1,trial,7800340.0,7801907.0,1567.0,53,R,7800592,7800852,262,429.0,523.6,3884,left
49,2,binary,3,1,trial,7800340.0,7801907.0,1567.0,53,R,7800918,7801184,268,1373.4,624.7,3415,right
49,2,binary,3,1,trial,7800340.0,7801907.0,1567.0,53,R,7801212,7801462,252,1531.7,634.1,3387,right
49,2,binary,3,1,trial,7800340.0,7801907.0,1567.0,53,R,7801542,7801884,344,419.6,549.8,3492,left
49,2,binary,3,1,trial,7800340.0,7801907.0,1567.0,53,R,7801900,7802132,234,362.9,518.8,3411,left
49,2,binary,4,2,fixationCross,7802874.0,7804374.0,1500.0,54,R,7802352,7802524,174,355.0,-97.5,3352,NA
49,2,binary,4,2,fixationCross,7802874.0,7804374.0,1500.0,54,R,7802598,7802766,170,1040.1,507.8,3659,NA
49,2,binary,4,2,trial,7802874.0,7804374.0,1500.0,54,R,7802786,7803072,288,962.2,538.0,3839,NA
49,2,binary,4,2,trial,7802874.0,7804374.0,1500.0,54,R,7803118,7803338,222,513.1,523.0,3913,left
49,2,binary,4,2,trial,7802874.0,7804374.0,1500.0,54,R,7803348,7803512,166,491.6,494.4,3666,left
49,2,binary,4,2,trial,7802874.0,7804374.0,1500.0,54,R,7803576,7803936,362,1426.5,540.8,3355,right
49,2,binary,4,2,trial,7802874.0,7804374.0,1500.0,54,R,7803958,7804292,336,1572.8,569.0,3192,right
49,2,binary,4,2,trial,7802874.0,7804374.0,1500.0,54,R,7804316,7804616,302,1388.6,533.8,3127,right
49,2,binary,5,1,fixationCross,7805524.0,7807124.0,1600.0,55,R,7804794,7804808,16,979.0,-81.7,3298,NA
49,2,binary,5,1,fixationCross,7805524.0,7807124.0,1600.0,55,R,7804822,7805024,204,972.7,-152.2,3328,NA
49,2,binary,5,1,fixationCross,7805524.0,7807124.0,1600.0,55,R,7805094,7805226,134,918.7,420.9,3635,NA
49,2,binary,5,1,trial,7805524.0,7807124.0,1600.0,55,R,7805250,7805688,440,959.9,524.0,3749,NA
49,2,binary,5,1,trial,7805524.0,7807124.0,1600.0,55,R,7805738,7805944,208,489.2,565.3,3882,left
49,2,binary,5,1,trial,7805524.0,7807124.0,1600.0,55,R,7806006,7806336,332,1354.1,592.4,3403,right
49,2,binary,5,1,trial,7805524.0,7807124.0,1600.0,55,R,7806362,7806472,112,1458.4,522.3,3323,right
49,2,binary,5,1,trial,7805524.0,7807124.0,1600.0,55,R,7806548,7807096,550,463.8,559.5,3550,left
49,2,binary,5,1,trial,7805524.0,7807124.0,1600.0,55,R,7807152,7807420,270,456.5,1051.6,3529,NA
49,2,binary,6,1,fixationCross,7808274.0,7809907.0,1633.0,56,R,7807656,7807820,166,1289.1,223.6,3557,NA
49,2,binary,6,1,fixationCross,7808274.0,7809907.0,1633.0,56,R,7807886,7808024,140,823.6,597.7,3888,NA
49,2,binary,6,1,trial,7808274.0,7809907.0,1633.0,56,R,7808050,7808438,390,974.0,560.2,4025,NA
49,2,binary,6,1,trial,7808274.0,7809907.0,1633.0,56,R,7808482,7808882,402,553.9,528.1,3840,left
49,2,binary,6,1,trial,7808274.0,7809907.0,1633.0,56,R,7808952,7809370,420,1496.8,503.3,3426,right
49,2,binary,6,1,trial,7808274.0,7809907.0,1633.0,56,R,7809442,7809948,508,543.9,546.5,3530,left
49,2,binary,6,1,trial,7808274.0,7809907.0,1633.0,56,R,7809960,7810128,170,506.4,563.6,3541,left
49,2,binary,7,1,fixationCross,7811040.0,7812557.0,1517.0,57,R,7810418,7810584,168,395.6,-67.7,3658,NA
49,2,binary,7,1,fixationCross,7811040.0,7812557.0,1517.0,57,R,7810666,7810796,132,1066.2,549.3,3890,NA
49,2,binary,7,1,trial,7811040.0,7812557.0,1517.0,57,R,7810820,7811062,244,947.8,546.4,3964,NA
49,2,binary,7,1,trial,7811040.0,7812557.0,1517.0,57,R,7811072,7811250,180,976.4,545.8,4086,NA
49,2,binary,7,1,trial,7811040.0,7812557.0,1517.0,57,R,7811298,7811668,372,551.9,515.1,3864,left
49,2,binary,7,1,trial,7811040.0,7812557.0,1517.0,57,R,7811736,7811940,206,1468.5,516.9,3532,right
49,2,binary,7,1,trial,7811040.0,7812557.0,1517.0,57,R,7811954,7812212,260,1515.2,543.5,3493,right
49,2,binary,7,1,trial,7811040.0,7812557.0,1517.0,57,R,7812290,7812770,482,483.9,548.2,3677,left
49,2,binary,8,2,fixationCross,7813657.0,7815157.0,1500.0,58,R,7812986,7813080,96,1017.0,210.8,3540,NA
49,2,binary,8,2,fixationCross,7813657.0,7815157.0,1500.0,58,R,7813160,7813290,132,316.5,-89.7,3722,NA
49,2,binary,8,2,fixationCross,7813657.0,7815157.0,1500.0,58,R,7813364,7813556,194,980.2,532.2,3930,NA
49,2,binary,8,2,trial,7813657.0,7815157.0,1500.0,58,R,7813566,7813806,242,957.7,537.0,3994,NA
49,2,binary,8,2,trial,7813657.0,7815157.0,1500.0,58,R,7813852,7814206,356,508.4,528.1,3868,left
49,2,binary,8,2,trial,7813657.0,7815157.0,1500.0,58,R,7814272,7814542,272,1405.7,579.9,3313,right
49,2,binary,8,2,trial,7813657.0,7815157.0,1500.0,58,R,7814558,7814772,216,1464.7,589.2,3258,right
49,2,binary,8,2,trial,7813657.0,7815157.0,1500.0,58,R,7814846,7815114,270,510.2,512.5,3275,left
49,2,binary,8,2,trial,7813657.0,7815157.0,1500.0,58,R,7815190,7815446,258,1418.6,969.8,3215,NA
49,2,binary,9,1,fixationCross,7816290.0,7818324.0,2034.0,59,R,7815682,7815786,106,1342.9,227.7,3513,NA
49,2,binary,9,1,fixationCross,7816290.0,7818324.0,2034.0,59,R,7815846,7815978,134,848.1,302.9,3761,NA
49,2,binary,9,1,trial,7816290.0,7818324.0,2034.0,59,R,7816018,7816480,464,957.3,556.9,3938,NA
49,2,binary,9,1,trial,7816290.0,7818324.0,2034.0,59,R,7816526,7816938,414,568.2,513.6,3850,left
49,2,binary,9,1,trial,7816290.0,7818324.0,2034.0,59,R,7817000,7817310,312,1378.9,504.6,3498,right
49,2,binary,9,1,trial,7816290.0,7818324.0,2034.0,59,R,7817328,7817414,88,1445.2,556.5,3480,right
49,2,binary,9,1,trial,7816290.0,7818324.0,2034.0,59,R,7817488,7817830,344,515.2,538.3,3592,left
49,2,binary,9,1,trial,7816290.0,7818324.0,2034.0,59,R,7817850,7818270,422,581.9,604.2,3550,left
49,2,binary,9,1,trial,7816290.0,7818324.0,2034.0,59,R,7818336,7818570,236,1350.3,472.3,3501,right
49,2,binary,10,1,fixationCross,7819424.0,7821091.0,1667.0,60,R,7818762,7818820,60,1168.9,114.7,3499,NA
49,2,binary,10,1,fixationCross,7819424.0,7821091.0,1667.0,60,R,7818886,7819054,170,648.1,-304.6,3609,NA
49,2,binary,10,1,fixationCross,7819424.0,7821091.0,1667.0,60,R,7819126,7819320,196,921.8,526.6,3720,NA
49,2,binary,10,1,trial,7819424.0,7821091.0,1667.0,60,R,7819330,7819506,178,955.2,532.5,3756,NA
49,2,binary,10,1,trial,7819424.0,7821091.0,1667.0,60,R,7819544,7819734,192,640.8,518.7,3889,left
49,2,binary,10,1,trial,7819424.0,7821091.0,1667.0,60,R,7819758,7820046,290,500.0,538.6,3634,left
49,2,binary,10,1,trial,7819424.0,7821091.0,1667.0,60,R,7820112,7820368,258,1390.9,585.7,3280,right
49,2,binary,10,1,trial,7819424.0,7821091.0,1667.0,60,R,7820380,7820644,266,1402.3,552.7,3272,right
49,2,binary,10,1,trial,7819424.0,7821091.0,1667.0,60,R,7820714,7821130,418,512.7,541.8,3421,left
49,2,binary,10,1,trial,7819424.0,7821091.0,1667.0,60,R,7821144,7821304,162,475.5,579.5,3412,left
49,2,binary,11,2,fixationCross,7822274.0,7823874.0,1600.0,61,R,7821526,7821720,196,515.3,163.1,3459,NA
49,2,binary,11,2,fixationCross,7822274.0,7823874.0,1600.0,61,R,7821804,7821932,130,1344.7,301.8,3593,NA
49,2,binary,11,2,fixationCross,7822274.0,7823874.0,1600.0,61,R,7821982,7822128,148,926.3,569.3,3726,NA
49,2,binary,11,2,trial,7822274.0,7823874.0,1600.0,61,R,7822142,7822426,286,965.3,572.9,3879,NA
49,2,binary,11,2,trial,7822274.0,7823874.0,1600.0,61,R,7822474,7822900,428,497.7,539.2,3689,left
49,2,binary,11,2,trial,7822274.0,7823874.0,1600.0,61,R,7822924,7823070,148,616.7,534.3,3417,left
49,2,binary,11,2,trial,7822274.0,7823874.0,1600.0,61,R,7823132,7823772,642,1454.3,580.4,3254,right
49,2,binary,11,2,trial,7822274.0,7823874.0,1600.0,61,R,7823842,7824098,258,516.7,535.3,3245,left
49,2,binary,12,2,fixationCross,7824908.0,7826391.0,1483.0,62,R,7824310,7824608,300,1341.5,250.9,3427,NA
49,2,binary,12,2,fixationCross,7824908.0,7826391.0,1483.0,62,R,7824658,7824868,212,930.9,574.0,3779,NA
49,2,binary,12,2,trial,7824908.0,7826391.0,1483.0,62,R,7824880,7825080,202,958.4,567.7,3896,NA
49,2,binary,12,2,trial,7824908.0,7826391.0,1483.0,62,R,7825132,7825346,216,452.7,579.4,3855,left
49,2,binary,12,2,trial,7824908.0,7826391.0,1483.0,62,R,7825364,7825512,150,456.5,642.9,3562,left
49,2,binary,12,2,trial,7824908.0,7826391.0,1483.0,62,R,7825586,7826080,496,1448.4,560.9,3352,right
49,2,binary,12,2,trial,7824908.0,7826391.0,1483.0,62,R,7826096,7826404,310,1442.4,614.3,3611,right
49,2,binary,12,2,trial,7824908.0,7826391.0,1483.0,62,R,7826482,7826650,170,469.3,636.4,3709,left
49,2,binary,13,1,fixationCross,7827524.0,7828708.0,1184.0,63,R,7826856,7826864,10,1199.2,15.2,3637,NA
49,2,binary,13,1,fixationCross,7827524.0,7828708.0,1184.0,63,R,7826882,7827016,136,1198.2,86.3,3575,NA
49,2,binary,13,1,fixationCross,7827524.0,7828708.0,1184.0,63,R,7827082,7827224,144,1172.6,584.7,3768,NA
49,2,binary,13,1,trial,7827524.0,7828708.0,1184.0,63,R,7827252,7827616,366,946.4,557.0,3963,NA
49,2,binary,13,1,trial,7827524.0,7828708.0,1184.0,63,R,7827632,7827744,114,985.9,553.2,4071,NA
49,2,binary,13,1,trial,7827524.0,7828708.0,1184.0,63,R,7827784,7828050,268,1347.8,508.6,3841,right
49,2,binary,13,1,trial,7827524.0,7828708.0,1184.0,63,R,7828112,7828662,552,555.0,519.1,3669,left
49,2,binary,13,1,trial,7827524.0,7828708.0,1184.0,63,R,7828728,7828966,240,1358.8,510.8,3594,right
49,2,binary,14,1,fixationCross,7829858.0,7831291.0,1433.0,64,R,7829160,7829184,26,877.0,164.3,3809,NA
49,2,binary,14,1,fixationCross,7829858.0,7831291.0,1433.0,64,R,7829202,7829294,94,881.1,206.6,3658,NA
49,2,binary,14,1,fixationCross,7829858.0,7831291.0,1433.0,64,R,7829358,7829508,152,228.4,117.7,3811,NA
49,2,binary,14,1,fixationCross,7829858.0,7831291.0,1433.0,64,R,7829570,7829764,196,941.3,510.4,3886,NA
49,2,binary,14,1,trial,7829858.0,7831291.0,1433.0,64,R,7829778,7829996,220,961.6,541.6,3929,NA
49,2,binary,14,1,trial,7829858.0,7831291.0,1433.0,64,R,7830042,7830420,380,553.5,549.5,3884,left
49,2,binary,14,1,trial,7829858.0,7831291.0,1433.0,64,R,7830442,7830588,148,448.8,544.8,3594,left
49,2,binary,14,1,trial,7829858.0,7831291.0,1433.0,64,R,7830658,7831020,364,1410.1,473.8,3349,right
49,2,binary,14,1,trial,7829858.0,7831291.0,1433.0,64,R,7831096,7831504,410,474.2,601.9,3422,left
49,2,binary,15,1,fixationCross,7832374.0,7834575.0,2201.0,65,R,7831728,7832062,336,955.8,306.4,3491,NA
49,2,binary,15,1,trial,7832374.0,7834575.0,2201.0,65,R,7832104,7832552,450,968.8,532.2,3815,NA
49,2,binary,15,1,trial,7832374.0,7834575.0,2201.0,65,R,7832600,7832764,166,523.7,556.5,3961,left
49,2,binary,15,1,trial,7832374.0,7834575.0,2201.0,65,R,7832784,7833130,348,467.0,624.6,3713,left
49,2,binary,15,1,trial,7832374.0,7834575.0,2201.0,65,R,7833208,7833510,304,1529.4,531.9,3495,right
49,2,binary,15,1,trial,7832374.0,7834575.0,2201.0,65,R,7833524,7833706,184,1588.0,534.7,3535,right
49,2,binary,15,1,trial,7832374.0,7834575.0,2201.0,65,R,7833784,7834242,460,495.1,582.2,3602,left
49,2,binary,15,1,trial,7832374.0,7834575.0,2201.0,65,R,7834302,7834502,202,870.2,1026.6,3759,likertHorizontal
49,2,binary,15,1,trial,7832374.0,7834575.0,2201.0,65,R,7834544,7834818,276,486.8,1001.7,3924,NA
49,2,binary,16,2,fixationCross,7835741.0,7837491.0,1750.0,66,R,7835026,7835050,26,929.3,127.7,4017,NA
49,2,binary,16,2,fixationCross,7835741.0,7837491.0,1750.0,66,R,7835070,7835178,110,926.0,186.8,3883,NA
49,2,binary,16,2,fixationCross,7835741.0,7837491.0,1750.0,66,R,7835246,7835402,158,342.9,30.1,3945,NA
49,2,binary,16,2,fixationCross,7835741.0,7837491.0,1750.0,66,R,7835474,7835622,150,920.6,552.0,4026,NA
49,2,binary,16,2,trial,7835741.0,7837491.0,1750.0,66,R,7835632,7835884,254,952.7,552.9,4058,NA
49,2,binary,16,2,trial,7835741.0,7837491.0,1750.0,66,R,7835930,7836152,224,543.8,522.8,4047,left
49,2,binary,16,2,trial,7835741.0,7837491.0,1750.0,66,R,7836166,7836322,158,495.3,538.6,3679,left
49,2,binary,16,2,trial,7835741.0,7837491.0,1750.0,66,R,7836390,7836646,258,1338.9,568.4,3249,right
49,2,binary,16,2,trial,7835741.0,7837491.0,1750.0,66,R,7836668,7836808,142,1467.2,614.9,3206,right
49,2,binary,16,2,trial,7835741.0,7837491.0,1750.0,66,R,7836830,7837126,298,1359.1,574.8,3318,right
49,2,binary,16,2,trial,7835741.0,7837491.0,1750.0,66,R,7837190,7837478,290,529.8,565.6,3441,left
49,2,binary,16,2,trial,7835741.0,7837491.0,1750.0,66,R,7837550,7837712,164,1435.5,613.7,3131,right
49,2,binary,17,1,fixationCross,7838658.0,7840324.0,1666.0,67,R,7837926,7838132,208,1432.7,258.7,3185,NA
49,2,binary,17,1,fixationCross,7838658.0,7840324.0,1666.0,67,R,7838208,7838356,150,781.7,491.1,3600,NA
49,2,binary,17,1,trial,7838658.0,7840324.0,1666.0,67,R,7838384,7838818,436,972.7,542.8,3737,NA
49,2,binary,17,1,trial,7838658.0,7840324.0,1666.0,67,R,7838872,7839246,376,459.3,528.9,3688,left
49,2,binary,17,1,trial,7838658.0,7840324.0,1666.0,67,R,7839316,7839630,316,1431.3,575.8,3306,right
49,2,binary,17,1,trial,7838658.0,7840324.0,1666.0,67,R,7839642,7839928,288,1451.5,552.6,3331,right
49,2,binary,17,1,trial,7838658.0,7840324.0,1666.0,67,R,7840000,7840266,268,564.9,516.2,3530,left
49,2,binary,17,1,trial,7838658.0,7840324.0,1666.0,67,R,7840282,7840564,284,506.7,532.8,3525,left
49,2,binary,18,1,fixationCross,7841558.0,7843342.0,1784.0,68,R,7840760,7840796,38,664.4,362.2,3773,left
49,2,binary,18,1,fixationCross,7841558.0,7843342.0,1784.0,68,R,7840814,7840894,82,658.5,415.6,3583,left
49,2,binary,18,1,fixationCross,7841558.0,7843342.0,1784.0,68,R,7840948,7841208,262,141.2,156.8,3717,NA
49,2,binary,18,1,fixationCross,7841558.0,7843342.0,1784.0,68,R,7841276,7841436,162,945.6,440.9,3821,NA
49,2,binary,18,1,trial,7841558.0,7843342.0,1784.0,68,R,7841460,7841768,310,964.4,545.3,3904,NA
49,2,binary,18,1,trial,7841558.0,7843342.0,1784.0,68,R,7841814,7842364,552,576.5,512.1,3738,left
49,2,binary,18,1,trial,7841558.0,7843342.0,1784.0,68,R,7842430,7842624,196,1379.4,620.8,3523,right
49,2,binary,18,1,trial,7841558.0,7843342.0,1784.0,68,R,7842650,7842796,148,1571.9,633.5,3507,right
49,2,binary,18,1,trial,7841558.0,7843342.0,1784.0,68,R,7842876,7843568,694,494.4,549.7,3661,left
49,2,binary,19,2,fixationCross,7844358.0,7845808.0,1450.0,69,R,7843748,7844008,262,643.5,289.6,3730,NA
49,2,binary,19,2,fixationCross,7844358.0,7845808.0,1450.0,69,R,7844070,7844214,146,938.3,516.5,3882,NA
49,2,binary,19,2,trial,7844358.0,7845808.0,1450.0,69,R,7844226,7844520,296,963.7,545.6,3969,NA
49,2,binary,19,2,trial,7844358.0,7845808.0,1450.0,69,R,7844570,7844934,366,484.0,542.1,3901,left
49,2,binary,19,2,trial,7844358.0,7845808.0,1450.0,69,R,7845004,7845222,220,1399.7,593.5,3469,right
49,2,binary,19,2,trial,7844358.0,7845808.0,1450.0,69,R,7845232,7846036,806,1435.3,598.9,3409,right
49,2,binary,20,2,fixationCross,7846875.0,7849241.0,2366.0,70,R,7846250,7846356,108,734.5,107.1,3550,NA
49,2,binary,20,2,fixationCross,7846875.0,7849241.0,2366.0,70,R,7846412,7846544,134,239.6,39.6,3713,NA
49,2,binary,20,2,trial,7846875.0,7849241.0,2366.0,70,R,7846610,7847070,462,982.9,540.2,3954,NA
49,2,binary,20,2,trial,7846875.0,7849241.0,2366.0,70,R,7847118,7847448,332,526.7,520.2,3889,left
49,2,binary,20,2,trial,7846875.0,7849241.0,2366.0,70,R,7847512,7847770,260,1416.5,505.9,3566,right
49,2,binary,20,2,trial,7846875.0,7849241.0,2366.0,70,R,7847782,7848198,418,1461.7,515.2,3527,right
49,2,binary,20,2,trial,7846875.0,7849241.0,2366.0,70,R,7848276,7848918,644,524.2,560.3,3703,left
49,2,binary,20,2,trial,7846875.0,7849241.0,2366.0,70,R,7848994,7849212,220,1406.1,730.5,3579,right
49,2,binary,20,2,trial,7846875.0,7849241.0,2366.0,70,R,7849238,7849480,244,1441.6,578.7,3524,right
49,2,binary,21,1,fixationCross,7850241.0,7852008.0,1767.0,71,R,7849720,7849924,206,929.2,162.9,3641,NA
49,2,binary,21,1,fixationCross,7850241.0,7852008.0,1767.0,71,R,7849970,7850118,150,914.2,503.6,3891,NA
49,2,binary,21,1,trial,7850241.0,7852008.0,1767.0,71,R,7850134,7850434,302,955.6,543.8,4029,NA
49,2,binary,21,1,trial,7850241.0,7852008.0,1767.0,71,R,7850478,7850642,166,609.5,548.3,4015,left
49,2,binary,21,1,trial,7850241.0,7852008.0,1767.0,71,R,7850674,7851030,358,369.8,493.3,3711,left
49,2,binary,21,1,trial,7850241.0,7852008.0,1767.0,71,R,7851054,7851196,144,562.5,532.5,3644,left
49,2,binary,21,1,trial,7850241.0,7852008.0,1767.0,71,R,7851260,7851536,278,1390.6,555.5,3596,right
49,2,binary,21,1,trial,7850241.0,7852008.0,1767.0,71,R,7851550,7851722,174,1435.4,535.6,3583,right
49,2,binary,21,1,trial,7850241.0,7852008.0,1767.0,71,R,7851796,7851968,174,505.9,544.4,3686,left
49,2,binary,21,1,trial,7850241.0,7852008.0,1767.0,71,R,7851996,7852232,238,336.6,500.6,3591,left
49,2,binary,22,2,fixationCross,7853241.0,7855392.0,2151.0,72,R,7852444,7852560,118,484.8,210.9,3528,NA
49,2,binary,22,2,fixationCross,7853241.0,7855392.0,2151.0,72,R,7852604,7852758,156,167.1,118.5,3657,NA
49,2,binary,22,2,fixationCross,7853241.0,7855392.0,2151.0,72,R,7852822,7852972,152,840.4,498.8,3764,NA
49,2,binary,22,2,trial,7853241.0,7855392.0,2151.0,72,R,7852994,7853398,406,959.9,539.5,3918,NA
49,2,binary,22,2,trial,7853241.0,7855392.0,2151.0,72,R,7853448,7853716,270,474.0,534.4,3951,left
49,2,binary,22,2,trial,7853241.0,7855392.0,2151.0,72,R,7853784,7854222,440,1418.7,567.5,3375,right
49,2,binary,22,2,trial,7853241.0,7855392.0,2151.0,72,R,7854238,7854428,192,1487.5,550.6,3203,right
49,2,binary,22,2,trial,7853241.0,7855392.0,2151.0,72,R,7854506,7854748,244,473.3,573.5,3239,left
49,2,binary,22,2,trial,7853241.0,7855392.0,2151.0,72,R,7854766,7855042,278,456.6,531.8,3205,left
49,2,binary,22,2,trial,7853241.0,7855392.0,2151.0,72,R,7855122,7855600,480,1460.8,583.3,3162,right
49,2,binary,23,2,fixationCross,7856408.0,7857892.0,1484.0,73,R,7855822,7856084,264,1040.2,140.2,3317,NA
49,2,binary,23,2,fixationCross,7856408.0,7857892.0,1484.0,73,R,7856136,7856278,144,893.4,580.3,3572,NA
49,2,binary,23,2,trial,7856408.0,7857892.0,1484.0,73,R,7856294,7856580,288,956.4,565.9,3733,NA
49,2,binary,23,2,trial,7856408.0,7857892.0,1484.0,73,R,7856626,7856852,228,560.6,490.2,3776,left
49,2,binary,23,2,trial,7856408.0,7857892.0,1484.0,73,R,7856914,7857066,154,1361.0,475.5,3423,right
49,2,binary,23,2,trial,7856408.0,7857892.0,1484.0,73,R,7857078,7857466,390,1382.4,454.6,3309,right
49,2,binary,23,2,trial,7856408.0,7857892.0,1484.0,73,R,7857532,7857848,318,576.6,501.8,3394,left
49,2,binary,23,2,trial,7856408.0,7857892.0,1484.0,73,R,7857934,7858124,192,1386.0,996.0,3339,NA
49,2,binary,24,2,fixationCross,7859058.0,7860524.0,1466.0,74,R,7858348,7858510,164,1258.1,423.4,3475,right
49,2,binary,24,2,fixationCross,7859058.0,7860524.0,1466.0,74,R,7858562,7858744,184,880.1,294.3,3677,NA
49,2,binary,24,2,trial,7859058.0,7860524.0,1466.0,74,R,7858786,7859242,458,964.5,544.7,3811,NA
49,2,binary,24,2,trial,7859058.0,7860524.0,1466.0,74,R,7859288,7859598,312,1419.6,548.1,3649,right
49,2,binary,24,2,trial,7859058.0,7860524.0,1466.0,74,R,7859670,7859854,186,482.8,537.8,3476,left
49,2,binary,24,2,trial,7859058.0,7860524.0,1466.0,74,R,7859866,7860172,308,456.5,515.9,3379,left
49,2,binary,24,2,trial,7859058.0,7860524.0,1466.0,74,R,7860244,7860740,498,1427.8,537.2,3355,right
49,2,binary,25,1,fixationCross,7861775.0,7863691.0,1916.0,75,R,7860938,7861026,90,1410.8,265.2,3457,NA
49,2,binary,25,1,fixationCross,7861775.0,7863691.0,1916.0,75,R,7861344,7861368,26,516.8,392.9,3981,left
49,2,binary,25,1,fixationCross,7861775.0,7863691.0,1916.0,75,R,7861386,7861472,88,510.0,458.1,3754,left
49,2,binary,25,1,trial,7861775.0,7863691.0,1916.0,75,R,7861516,7861976,462,950.9,516.9,3866,NA
49,2,binary,25,1,trial,7861775.0,7863691.0,1916.0,75,R,7862024,7862340,318,490.8,573.5,3756,left
49,2,binary,25,1,trial,7861775.0,7863691.0,1916.0,75,R,7862362,7862830,470,612.7,575.2,3630,left
49,2,binary,25,1,trial,7861775.0,7863691.0,1916.0,75,R,7862848,7863116,270,548.8,572.9,3765,left
49,2,binary,25,1,trial,7861775.0,7863691.0,1916.0,75,R,7863188,7863474,288,1495.9,579.2,3670,right
49,2,binary,25,1,trial,7861775.0,7863691.0,1916.0,75,R,7863552,7863964,414,509.8,630.4,3700,left
49,2,binary,26,2,fixationCross,7887141.0,7888808.0,1667.0,76,R,7886647,7886887,242,941.3,536.0,4089,NA
49,2,binary,26,2,fixationCross,7887141.0,7888808.0,1667.0,76,R,7886905,7887041,138,994.1,582.7,4220,NA
49,2,binary,26,2,trial,7887141.0,7888808.0,1667.0,76,R,7887057,7887491,436,975.1,545.0,4177,NA
49,2,binary,26,2,trial,7887141.0,7888808.0,1667.0,76,R,7887533,7887805,274,576.6,504.9,3669,left
49,2,binary,26,2,trial,7887141.0,7888808.0,1667.0,76,R,7887867,7888255,390,1423.3,521.4,3442,right
49,2,binary,26,2,trial,7887141.0,7888808.0,1667.0,76,R,7888321,7888749,430,570.1,488.4,3391,left
49,2,binary,26,2,trial,7887141.0,7888808.0,1667.0,76,R,7888835,7888943,110,1346.2,965.7,3326,NA
49,2,binary,26,2,trial,7887141.0,7888808.0,1667.0,76,R,7888963,7889061,100,1419.5,1008.7,3360,NA
49,2,binary,27,1,fixationCross,7889925.0,7891292.0,1367.0,77,R,7889261,7889263,4,847.0,43.1,3762,NA
49,2,binary,27,1,fixationCross,7889925.0,7891292.0,1367.0,77,R,7889283,7889359,78,827.0,110.4,3619,NA
49,2,binary,27,1,fixationCross,7889925.0,7891292.0,1367.0,77,R,7889417,7889581,166,319.9,25.0,3789,NA
49,2,binary,27,1,fixationCross,7889925.0,7891292.0,1367.0,77,R,7889643,7889779,138,903.2,525.5,3877,NA
49,2,binary,27,1,trial,7889925.0,7891292.0,1367.0,77,R,7889795,7889991,198,952.9,538.7,3960,NA
49,2,binary,27,1,trial,7889925.0,7891292.0,1367.0,77,R,7890115,7890147,34,797.7,432.4,4350,NA
49,2,binary,27,1,trial,7889925.0,7891292.0,1367.0,77,R,7890167,7890203,38,796.0,468.2,4132,NA
49,2,binary,27,1,trial,7889925.0,7891292.0,1367.0,77,R,7890241,7890525,286,559.3,490.3,3912,left
49,2,binary,27,1,trial,7889925.0,7891292.0,1367.0,77,R,7890549,7890721,174,447.6,435.7,3599,left
49,2,binary,27,1,trial,7889925.0,7891292.0,1367.0,77,R,7890731,7890869,140,424.1,416.8,3480,left
49,2,binary,27,1,trial,7889925.0,7891292.0,1367.0,77,R,7890939,7891487,550,1442.0,491.7,3294,right
49,2,binary,28,1,fixationCross,7892409.0,7893459.0,1050.0,78,R,7891739,7891815,78,409.0,251.7,3420,NA
49,2,binary,28,1,fixationCross,7892409.0,7893459.0,1050.0,78,R,7891859,7892053,196,138.4,61.2,3539,NA
49,2,binary,28,1,trial,7892409.0,7893459.0,1050.0,78,R,7892127,7892443,318,940.7,485.0,3767,NA
49,2,binary,28,1,trial,7892409.0,7893459.0,1050.0,78,R,7892477,7892599,124,703.6,442.7,3953,left
49,2,binary,28,1,trial,7892409.0,7893459.0,1050.0,78,R,7892627,7893015,390,441.7,512.8,3866,left
49,2,binary,28,1,trial,7892409.0,7893459.0,1050.0,78,R,7893081,7893661,582,1349.3,616.8,3418,right
49,2,binary,29,2,fixationCross,7894525.0,7895858.0,1333.0,79,R,7893881,7893963,84,364.8,259.7,3375,NA
49,2,binary,29,2,fixationCross,7894525.0,7895858.0,1333.0,79,R,7894013,7894181,170,121.0,-87.9,3494,NA
49,2,binary,29,2,trial,7894525.0,7895858.0,1333.0,79,R,7894255,7894727,474,974.5,497.0,3880,NA
49,2,binary,29,2,trial,7894525.0,7895858.0,1333.0,79,R,7894771,7894919,150,1400.1,514.4,3967,right
49,2,binary,29,2,trial,7894525.0,7895858.0,1333.0,79,R,7894937,7895271,336,1413.8,463.1,3742,right
49,2,binary,29,2,trial,7894525.0,7895858.0,1333.0,79,R,7895337,7895627,292,544.0,560.1,3679,left
49,2,binary,29,2,trial,7894525.0,7895858.0,1333.0,79,R,7895697,7895853,158,1476.2,516.3,3704,right
49,2,binary,29,2,trial,7894525.0,7895858.0,1333.0,79,R,7895871,7896091,222,1409.7,480.9,3715,right
49,2,binary,30,2,fixationCross,7896941.0,7898275.0,1334.0,80,R,7896293,7896421,130,1186.8,109.1,3520,NA
49,2,binary,30,2,fixationCross,7896941.0,7898275.0,1334.0,80,R,7896491,7896607,118,598.7,156.5,3731,NA
49,2,binary,30,2,trial,7896941.0,7898275.0,1334.0,80,R,7896661,7897125,466,905.5,477.0,3943,NA
49,2,binary,30,2,trial,7896941.0,7898275.0,1334.0,80,R,7897167,7897319,154,571.8,506.8,4054,left
49,2,binary,30,2,trial,7896941.0,7898275.0,1334.0,80,R,7897379,7897795,418,1410.5,484.7,3464,right
49,2,binary,30,2,trial,7896941.0,7898275.0,1334.0,80,R,7897863,7898467,606,549.7,516.8,3360,left
49,2,binary,31,1,fixationCross,7899342.0,7900842.0,1500.0,81,R,7898733,7898787,56,1106.8,124.6,3326,NA
49,2,binary,31,1,fixationCross,7899342.0,7900842.0,1500.0,81,R,7898843,7899023,182,712.4,24.1,3520,NA
49,2,binary,31,1,fixationCross,7899342.0,7900842.0,1500.0,81,R,7899083,7899279,198,989.3,506.4,3719,NA
49,2,binary,31,1,trial,7899342.0,7900842.0,1500.0,81,R,7899293,7899495,204,946.5,521.9,3837,NA
49,2,binary,31,1,trial,7899342.0,7900842.0,1500.0,81,R,7899539,7899827,290,575.6,485.2,3853,left
49,2,binary,31,1,trial,7899342.0,7900842.0,1500.0,81,R,7899843,7899911,70,506.1,453.4,3574,left
49,2,binary,31,1,trial,7899342.0,7900842.0,1500.0,81,R,7899975,7900135,162,1431.5,489.6,3321,right
49,2,binary,31,1,trial,7899342.0,7900842.0,1500.0,81,R,7900153,7900475,324,1509.4,467.3,3216,right
49,2,binary,31,1,trial,7899342.0,7900842.0,1500.0,81,R,7900551,7901057,508,510.4,506.3,3426,left
49,2,binary,32,2,fixationCross,7902059.0,7903542.0,1483.0,82,R,7901291,7901407,118,990.6,181.1,3387,NA
49,2,binary,32,2,fixationCross,7902059.0,7903542.0,1483.0,82,R,7901451,7901689,240,802.4,34.4,3596,NA
49,2,binary,32,2,fixationCross,7902059.0,7903542.0,1483.0,82,R,7901755,7901959,206,978.2,450.1,3752,NA
49,2,binary,32,2,trial,7902059.0,7903542.0,1483.0,82,R,7901979,7902249,272,945.9,506.6,3834,NA
49,2,binary,32,2,trial,7902059.0,7903542.0,1483.0,82,R,7902299,7902519,222,518.8,529.0,3862,left
49,2,binary,32,2,trial,7902059.0,7903542.0,1483.0,82,R,7902579,7902753,176,1389.0,568.9,3416,right
49,2,binary,32,2,trial,7902059.0,7903542.0,1483.0,82,R,7902769,7903061,294,1445.3,549.3,3281,right
49,2,binary,32,2,trial,7902059.0,7903542.0,1483.0,82,R,7903135,7903469,336,473.9,572.7,3431,left
49,2,binary,32,2,trial,7902059.0,7903542.0,1483.0,82,R,7903549,7903769,222,1401.3,874.0,3336,NA
49,2,binary,33,2,fixationCross,7904692.0,7905976.0,1284.0,83,R,7903983,7904131,150,1385.0,541.5,3565,right
49,2,binary,33,2,fixationCross,7904692.0,7905976.0,1284.0,83,R,7904201,7904375,176,837.7,173.8,3817,NA
49,2,binary,33,2,fixationCross,7904692.0,7905976.0,1284.0,83,R,7904425,7904643,220,971.1,524.6,3934,NA
49,2,binary,33,2,trial,7904692.0,7905976.0,1284.0,83,R,7904653,7904857,206,965.6,544.8,4028,NA
49,2,binary,33,2,trial,7904692.0,7905976.0,1284.0,83,R,7904905,7905271,368,532.4,483.1,3906,left
49,2,binary,33,2,trial,7904692.0,7905976.0,1284.0,83,R,7905335,7905661,328,1322.5,514.7,3469,right
49,2,binary,33,2,trial,7904692.0,7905976.0,1284.0,83,R,7905725,7906175,452,586.2,480.4,3462,left
49,2,binary,34,1,fixationCross,7906925.0,7908576.0,1651.0,84,R,7906399,7906587,190,1278.2,145.7,3399,NA
49,2,binary,34,1,fixationCross,7906925.0,7908576.0,1651.0,84,R,7906635,7906845,212,963.5,476.7,3759,NA
49,2,binary,34,1,trial,7906925.0,7908576.0,1651.0,84,R,7906861,7907153,294,965.8,515.3,3964,NA
49,2,binary,34,1,trial,7906925.0,7908576.0,1651.0,84,R,7907203,7907431,230,512.0,555.0,3912,left
49,2,binary,34,1,trial,7906925.0,7908576.0,1651.0,84,R,7907449,7907593,146,503.3,493.0,3644,left
49,2,binary,34,1,trial,7906925.0,7908576.0,1651.0,84,R,7907663,7907863,202,1444.3,536.4,3395,right
49,2,binary,34,1,trial,7906925.0,7908576.0,1651.0,84,R,7907879,7908043,166,1448.2,599.1,3433,right
49,2,binary,34,1,trial,7906925.0,7908576.0,1651.0,84,R,7908061,7908243,184,1499.8,660.3,3576,right
49,2,binary,34,1,trial,7906925.0,7908576.0,1651.0,84,R,7908323,7908807,486,439.6,558.8,3567,left
49,2,binary,35,1,fixationCross,7909626.0,7910926.0,1300.0,85,R,7909003,7909011,10,532.7,326.0,3735,NA
49,2,binary,35,1,fixationCross,7909626.0,7910926.0,1300.0,85,R,7909023,7909329,308,522.9,379.0,3632,left
49,2,binary,35,1,trial,7909626.0,7910926.0,1300.0,85,R,7909375,7909783,410,942.5,549.0,3783,NA
49,2,binary,35,1,trial,7909626.0,7910926.0,1300.0,85,R,7909831,7910157,328,515.3,514.5,3788,left
49,2,binary,35,1,trial,7909626.0,7910926.0,1300.0,85,R,7910171,7910439,270,520.1,485.2,3443,left
49,2,binary,35,1,trial,7909626.0,7910926.0,1300.0,85,R,7910511,7910773,264,1456.2,531.7,3423,right
49,2,binary,35,1,trial,7909626.0,7910926.0,1300.0,85,R,7910849,7911135,288,474.5,650.2,3398,left
49,2,binary,36,2,fixationCross,7911942.0,7913492.0,1550.0,86,R,7911365,7911627,264,1028.9,116.8,3422,NA
49,2,binary,36,2,fixationCross,7911942.0,7913492.0,1550.0,86,R,7911681,7911817,138,985.6,561.5,3708,NA
49,2,binary,36,2,trial,7911942.0,7913492.0,1550.0,86,R,7911829,7912089,262,957.7,554.8,3819,NA
49,2,binary,36,2,trial,7911942.0,7913492.0,1550.0,86,R,7912137,7912393,258,1416.6,477.5,3733,right
49,2,binary,36,2,trial,7911942.0,7913492.0,1550.0,86,R,7912409,7912557,150,1452.2,445.6,3465,right
49,2,binary,36,2,trial,7911942.0,7913492.0,1550.0,86,R,7912629,7913071,444,491.9,512.6,3503,left
49,2,binary,36,2,trial,7911942.0,7913492.0,1550.0,86,R,7913089,7913189,102,443.9,557.7,3497,left
49,2,binary,36,2,trial,7911942.0,7913492.0,1550.0,86,R,7913267,7913703,438,1456.7,492.5,3390,right
49,2,binary,37,2,fixationCross,7914776.0,7916559.0,1783.0,87,R,7913941,7914015,76,622.3,162.4,3641,NA
49,2,binary,37,2,fixationCross,7914776.0,7916559.0,1783.0,87,R,7914067,7914263,198,178.4,-166.8,3725,NA
49,2,binary,37,2,fixationCross,7914776.0,7916559.0,1783.0,87,R,7914335,7914469,136,933.5,417.2,3758,NA
49,2,binary,37,2,trial,7914776.0,7916559.0,1783.0,87,R,7914491,7914933,444,961.2,499.3,3819,NA
49,2,binary,37,2,trial,7914776.0,7916559.0,1783.0,87,R,7914985,7915197,214,451.6,507.5,3970,left
49,2,binary,37,2,trial,7914776.0,7916559.0,1783.0,87,R,7915211,7915359,150,491.9,530.9,3704,left
49,2,binary,37,2,trial,7914776.0,7916559.0,1783.0,87,R,7915429,7915685,258,1450.9,513.9,3448,right
49,2,binary,37,2,trial,7914776.0,7916559.0,1783.0,87,R,7915709,7915927,220,1591.4,532.6,3410,right
49,2,binary,37,2,trial,7914776.0,7916559.0,1783.0,87,R,7916009,7916205,198,434.8,497.4,3484,left
49,2,binary,37,2,trial,7914776.0,7916559.0,1783.0,87,R,7916223,7916393,172,496.6,527.4,3397,left
49,2,binary,37,2,trial,7914776.0,7916559.0,1783.0,87,R,7916465,7916599,136,1369.2,946.3,3275,NA
49,2,binary,37,2,trial,7914776.0,7916559.0,1783.0,87,R,7916621,7916785,166,1458.3,1004.0,3307,NA
49,2,binary,38,2,fixationCross,7917809.0,7919342.0,1533.0,88,R,7917013,7917201,190,1143.2,86.4,3529,NA
49,2,binary,38,2,fixationCross,7917809.0,7919342.0,1533.0,88,R,7917269,7917325,58,841.6,258.7,3738,NA
49,2,binary,38,2,fixationCross,7917809.0,7919342.0,1533.0,88,R,7917531,7917557,28,1000.7,490.6,3910,NA
49,2,binary,38,2,fixationCross,7917809.0,7919342.0,1533.0,88,R,7917569,7917651,84,1000.4,522.8,3758,NA
49,2,binary,38,2,trial,7917809.0,7919342.0,1533.0,88,R,7917665,7917991,328,961.3,528.5,3906,NA
49,2,binary,38,2,trial,7917809.0,7919342.0,1533.0,88,R,7918039,7918219,182,502.6,495.1,3896,left
49,2,binary,38,2,trial,7917809.0,7919342.0,1533.0,88,R,7918235,7918425,192,464.0,456.6,3567,left
49,2,binary,38,2,trial,7917809.0,7919342.0,1533.0,88,R,7918497,7918815,320,1498.9,524.7,3240,right
49,2,binary,38,2,trial,7917809.0,7919342.0,1533.0,88,R,7918835,7919075,242,1536.1,455.1,3273,right
49,2,binary,38,2,trial,7917809.0,7919342.0,1533.0,88,R,7919137,7919309,174,1301.3,861.5,3301,NA
49,2,binary,38,2,trial,7917809.0,7919342.0,1533.0,88,R,7919333,7919613,282,1429.6,1007.4,3347,NA
49,2,binary,39,2,fixationCross,7920508.0,7922126.0,1618.0,89,R,7919811,7919829,20,845.5,138.0,3805,NA
49,2,binary,39,2,fixationCross,7920508.0,7922126.0,1618.0,89,R,7919849,7920049,202,847.7,167.0,3696,NA
49,2,binary,39,2,fixationCross,7920508.0,7922126.0,1618.0,89,R,7920095,7920217,124,796.2,454.6,3870,NA
49,2,binary,39,2,trial,7920508.0,7922126.0,1618.0,89,R,7920243,7920669,428,957.9,520.3,3975,NA
49,2,binary,39,2,trial,7920508.0,7922126.0,1618.0,89,R,7920715,7920915,202,541.2,478.9,3994,left
49,2,binary,39,2,trial,7920508.0,7922126.0,1618.0,89,R,7920981,7921175,196,1427.0,566.2,3704,right
49,2,binary,39,2,trial,7920508.0,7922126.0,1618.0,89,R,7921189,7921497,310,1446.6,606.6,3588,right
49,2,binary,39,2,trial,7920508.0,7922126.0,1618.0,89,R,7921573,7921875,304,493.6,491.9,3541,left
49,2,binary,39,2,trial,7920508.0,7922126.0,1618.0,89,R,7921961,7922131,172,1432.6,891.6,3395,NA
49,2,binary,39,2,trial,7920508.0,7922126.0,1618.0,89,R,7922153,7922369,218,1453.4,997.5,3381,NA
49,2,binary,40,1,fixationCross,7923242.0,7924659.0,1417.0,90,R,7922575,7922595,22,926.5,56.5,3833,NA
49,2,binary,40,1,fixationCross,7923242.0,7924659.0,1417.0,90,R,7922613,7922703,92,919.4,129.9,3711,NA
49,2,binary,40,1,fixationCross,7923242.0,7924659.0,1417.0,90,R,7922767,7922903,138,354.1,102.3,3828,NA
49,2,binary,40,1,trial,7923242.0,7924659.0,1417.0,90,R,7922967,7923407,442,960.5,549.9,3975,NA
49,2,binary,40,1,trial,7923242.0,7924659.0,1417.0,90,R,7923449,7923631,184,615.4,498.2,3993,left
49,2,binary,40,1,trial,7923242.0,7924659.0,1417.0,90,R,7923653,7923925,274,535.1,568.1,3708,left
49,2,binary,40,1,trial,7923242.0,7924659.0,1417.0,90,R,7923965,7924019,56,803.8,544.9,3521,NA
49,2,binary,40,1,trial,7923242.0,7924659.0,1417.0,90,R,7924075,7924435,362,1516.4,565.6,3288,right
49,2,binary,40,1,trial,7923242.0,7924659.0,1417.0,90,R,7924509,7924871,364,577.8,624.5,3462,left
49,2,binary,41,2,fixationCross,7925809.0,7926959.0,1150.0,91,R,7925107,7925215,110,444.3,264.6,3326,NA
49,2,binary,41,2,fixationCross,7925809.0,7926959.0,1150.0,91,R,7925257,7925455,200,146.9,66.7,3496,NA
49,2,binary,41,2,fixationCross,7925809.0,7926959.0,1150.0,91,R,7925523,7925685,164,899.8,473.4,3656,NA
49,2,binary,41,2,trial,7925809.0,7926959.0,1150.0,91,R,7925703,7925961,260,960.5,532.7,3685,NA
49,2,binary,41,2,trial,7925809.0,7926959.0,1150.0,91,R,7926007,7926227,222,1438.1,560.5,3711,right
49,2,binary,41,2,trial,7925809.0,7926959.0,1150.0,91,R,7926247,7926351,106,1445.6,622.1,3494,right
49,2,binary,41,2,trial,7925809.0,7926959.0,1150.0,91,R,7926417,7926747,332,593.8,539.8,3401,left
49,2,binary,41,2,trial,7925809.0,7926959.0,1150.0,91,R,7926819,7927013,196,1384.3,790.6,3352,NA
49,2,binary,41,2,trial,7925809.0,7926959.0,1150.0,91,R,7927039,7927193,156,1409.5,649.3,3405,right
49,2,binary,42,1,fixationCross,7928026.0,7929909.0,1883.0,92,R,7927413,7927663,252,643.4,-54.8,3573,NA
49,2,binary,42,1,trial,7928026.0,7929909.0,1883.0,92,R,7927737,7928215,480,952.5,554.4,3709,NA
49,2,binary,42,1,trial,7928026.0,7929909.0,1883.0,92,R,7928265,7928559,296,459.2,533.0,3709,left
49,2,binary,42,1,trial,7928026.0,7929909.0,1883.0,92,R,7928579,7928699,122,562.7,544.4,3375,left
49,2,binary,42,1,trial,7928026.0,7929909.0,1883.0,92,R,7928767,7929253,488,1430.6,600.9,3173,right
49,2,binary,42,1,trial,7928026.0,7929909.0,1883.0,92,R,7929269,7929443,176,1458.9,643.5,3256,right
49,2,binary,42,1,trial,7928026.0,7929909.0,1883.0,92,R,7929513,7929951,440,512.8,574.8,3382,left
49,2,binary,42,1,trial,7928026.0,7929909.0,1883.0,92,R,7929961,7930123,164,550.2,580.5,3297,left
49,2,binary,43,1,fixationCross,7930992.0,7932759.0,1767.0,93,R,7930331,7930663,334,900.1,222.8,3422,NA
49,2,binary,43,1,trial,7930992.0,7932759.0,1767.0,93,R,7930715,7931137,424,964.3,494.1,3668,NA
49,2,binary,43,1,trial,7930992.0,7932759.0,1767.0,93,R,7931187,7931395,210,489.8,508.5,3754,left
49,2,binary,43,1,trial,7930992.0,7932759.0,1767.0,93,R,7931417,7931581,166,367.7,459.8,3466,left
49,2,binary,43,1,trial,7930992.0,7932759.0,1767.0,93,R,7931651,7931863,214,1404.0,515.9,3207,right
49,2,binary,43,1,trial,7930992.0,7932759.0,1767.0,93,R,7931885,7932047,164,1430.9,599.2,3254,right
49,2,binary,43,1,trial,7930992.0,7932759.0,1767.0,93,R,7932123,7932303,182,418.8,513.5,3499,left
49,2,binary,43,1,trial,7930992.0,7932759.0,1767.0,93,R,7932321,7932971,652,353.0,466.6,3307,left
49,2,binary,44,1,fixationCross,7933776.0,7935092.0,1316.0,94,R,7933179,7933393,216,141.7,-143.2,3447,NA
49,2,binary,44,1,fixationCross,7933776.0,7935092.0,1316.0,94,R,7933489,7933723,236,992.8,457.0,3511,NA
49,2,binary,44,1,trial,7933776.0,7935092.0,1316.0,94,R,7933737,7933953,218,953.6,490.0,3589,NA
49,2,binary,44,1,trial,7933776.0,7935092.0,1316.0,94,R,7933997,7934185,190,559.3,494.9,3763,left
49,2,binary,44,1,trial,7933776.0,7935092.0,1316.0,94,R,7934247,7934499,254,1389.0,498.9,3541,right
49,2,binary,44,1,trial,7933776.0,7935092.0,1316.0,94,R,7934519,7934771,254,1478.2,520.0,3462,right
49,2,binary,44,1,trial,7933776.0,7935092.0,1316.0,94,R,7934847,7935307,462,543.8,515.0,3560,left
49,2,binary,45,2,fixationCross,7936242.0,7937725.0,1483.0,95,R,7935525,7935685,162,750.5,247.3,3605,NA
49,2,binary,45,2,fixationCross,7936242.0,7937725.0,1483.0,95,R,7935753,7935927,176,896.4,752.8,3790,likertHorizontal
49,2,binary,45,2,trial,7936242.0,7937725.0,1483.0,95,R,7935975,7936269,296,975.4,461.4,3900,NA
49,2,binary,45,2,trial,7936242.0,7937725.0,1483.0,95,R,7936283,7936541,260,969.1,504.6,4047,NA
