participantNo,block,task,blockTrial,response,trialStage,trialStartTime,trialFinishTime,rt,trial,eye,fixStart,fixEnd,fixLength,fixPosX,fixPosY,dilation,aoi
11,1,continuous,1,15,fixationCross,6143207.0,6144891.0,1684.0,1,L,6132888,6133338,452,975.4,496.9,4419,NA
11,1,continuous,1,15,fixationCross,6143207.0,6144891.0,1684.0,1,L,6133358,6133560,204,945.6,535.0,4507,NA
11,1,continuous,1,15,fixationCross,6143207.0,6144891.0,1684.0,1,L,6133742,6133910,170,956.8,550.6,4601,NA
11,1,continuous,1,15,fixationCross,6143207.0,6144891.0,1684.0,1,L,6134064,6134400,338,960.0,476.6,4582,NA
11,1,continuous,1,15,fixationCross,6143207.0,6144891.0,1684.0,1,L,6134416,6139406,4992,950.9,534.0,4184,NA
11,1,continuous,1,15,fixationCross,6143207.0,6144891.0,1684.0,1,L,6139434,6139602,170,1143.9,456.7,4124,NA
11,1,continuous,1,15,fixationCross,6143207.0,6144891.0,1684.0,1,L,6139628,6140008,382,976.3,502.8,4177,NA
11,1,continuous,1,15,trial,6143207.0,6144891.0,1684.0,1,L,6140020,6143492,3474,954.9,525.7,3925,NA
11,1,continuous,1,15,trial,6143207.0,6144891.0,1684.0,1,L,6143538,6143794,258,958.1,924.2,3646,likertHorizontal
11,1,continuous,1,15,trial,6143207.0,6144891.0,1684.0,1,L,6143816,6144076,262,821.6,940.2,3694,likertHorizontal
11,1,continuous,1,15,trial,6143207.0,6144891.0,1684.0,1,L,6144114,6144842,730,543.7,955.0,4002,NA
11,1,continuous,1,15,trial,6143207.0,6144891.0,1684.0,1,L,6144886,6145206,322,574.4,608.8,4047,left
11,1,continuous,2,85,fixationCross,6155641.0,6158008.0,2367.0,2,L,6145408,6145576,170,1011.1,400.8,4088,NA
11,1,continuous,2,85,fixationCross,6155641.0,6158008.0,2367.0,2,L,6145608,6145780,174,782.5,408.8,4379,NA
11,1,continuous,2,85,fixationCross,6155641.0,6158008.0,2367.0,2,L,6145812,6145924,114,903.9,501.4,4539,NA
11,1,continuous,2,85,fixationCross,6155641.0,6158008.0,2367.0,2,L,6145942,6146720,780,948.0,531.6,4303,NA
11,1,continuous,2,85,fixationCross,6155641.0,6158008.0,2367.0,2,L,6146970,6147570,602,954.7,536.5,4430,NA
11,1,continuous,2,85,fixationCross,6155641.0,6158008.0,2367.0,2,L,6147584,6147772,190,951.8,495.1,4103,NA
11,1,continuous,2,85,fixationCross,6155641.0,6158008.0,2367.0,2,L,6147786,6147874,90,968.1,525.5,4023,NA
11,1,continuous,2,85,fixationCross,6155641.0,6158008.0,2367.0,2,L,6148150,6149098,950,957.7,524.6,4288,NA
11,1,continuous,2,85,fixationCross,6155641.0,6158008.0,2367.0,2,L,6149292,6150046,756,954.1,523.6,4307,NA
11,1,continuous,2,85,fixationCross,6155641.0,6158008.0,2367.0,2,L,6150058,6150248,192,961.9,501.4,4046,NA
11,1,continuous,2,85,fixationCross,6155641.0,6158008.0,2367.0,2,L,6150256,6151598,1344,958.7,528.4,4176,NA
11,1,continuous,2,85,fixationCross,6155641.0,6158008.0,2367.0,2,L,6151810,6152224,416,960.0,532.9,4212,NA
11,1,continuous,2,85,fixationCross,6155641.0,6158008.0,2367.0,2,L,6152240,6152606,368,952.9,521.3,4004,NA
11,1,continuous,2,85,fixationCross,6155641.0,6158008.0,2367.0,2,L,6152788,6152968,182,966.6,528.8,4043,NA
11,1,continuous,2,85,fixationCross,6155641.0,6158008.0,2367.0,2,L,6152982,6153170,190,945.2,556.7,4194,NA
11,1,continuous,2,85,fixationCross,6155641.0,6158008.0,2367.0,2,L,6153388,6153500,114,1018.4,494.6,3996,NA
11,1,continuous,2,85,fixationCross,6155641.0,6158008.0,2367.0,2,L,6153518,6153722,206,959.9,507.9,4089,NA
11,1,continuous,2,85,fixationCross,6155641.0,6158008.0,2367.0,2,L,6153730,6155234,1506,960.1,531.8,3982,NA
11,1,continuous,2,85,trial,6155641.0,6158008.0,2367.0,2,L,6155246,6155890,646,961.3,518.5,4049,NA
11,1,continuous,2,85,trial,6155641.0,6158008.0,2367.0,2,L,6155936,6156122,188,1377.3,513.6,3724,right
11,1,continuous,2,85,trial,6155641.0,6158008.0,2367.0,2,L,6156148,6156348,202,1517.7,521.8,3452,right
11,1,continuous,2,85,trial,6155641.0,6158008.0,2367.0,2,L,6156420,6156670,252,583.0,481.2,3452,left
11,1,continuous,2,85,trial,6155641.0,6158008.0,2367.0,2,L,6156684,6156806,124,627.0,473.6,3419,left
11,1,continuous,2,85,trial,6155641.0,6158008.0,2367.0,2,L,6156876,6157214,340,1553.4,517.6,3315,right
11,1,continuous,2,85,trial,6155641.0,6158008.0,2367.0,2,L,6157234,6157372,140,1579.9,486.3,3358,right
11,1,continuous,2,85,trial,6155641.0,6158008.0,2367.0,2,L,6157476,6157672,198,1313.5,872.1,3595,NA
11,1,continuous,2,85,postResponse,6155641.0,6158008.0,2367.0,2,L,6157694,6158364,672,1293.8,935.6,4031,NA
11,1,continuous,3,22,fixationCross,6168741.0,6171275.0,2534.0,3,L,6158530,6158976,448,1040.1,414.4,4199,NA
11,1,continuous,3,22,fixationCross,6168741.0,6171275.0,2534.0,3,L,6159002,6160646,1646,957.3,527.8,4225,NA
11,1,continuous,3,22,fixationCross,6168741.0,6171275.0,2534.0,3,L,6160804,6161098,296,945.7,528.4,4242,NA
11,1,continuous,3,22,fixationCross,6168741.0,6171275.0,2534.0,3,L,6161280,6161952,674,952.9,511.9,4062,NA
11,1,continuous,3,22,fixationCross,6168741.0,6171275.0,2534.0,3,L,6162130,6162442,314,957.5,529.9,3920,NA
11,1,continuous,3,22,fixationCross,6168741.0,6171275.0,2534.0,3,L,6162602,6162768,168,955.8,504.0,4033,NA
11,1,continuous,3,22,fixationCross,6168741.0,6171275.0,2534.0,3,L,6162778,6162936,160,948.6,523.7,4047,NA
11,1,continuous,3,22,fixationCross,6168741.0,6171275.0,2534.0,3,L,6163112,6163886,776,949.9,528.7,4016,NA
11,1,continuous,3,22,fixationCross,6168741.0,6171275.0,2534.0,3,L,6164050,6168212,4164,952.1,530.0,4089,NA
11,1,continuous,3,22,trial,6168741.0,6171275.0,2534.0,3,L,6168332,6168990,660,954.9,521.9,3973,NA
11,1,continuous,3,22,trial,6168741.0,6171275.0,2534.0,3,L,6169038,6169314,278,539.3,515.2,3371,left
11,1,continuous,3,22,trial,6168741.0,6171275.0,2534.0,3,L,6169390,6169634,246,1442.9,481.3,3156,right
11,1,continuous,3,22,trial,6168741.0,6171275.0,2534.0,3,L,6169660,6169884,226,1567.4,564.3,3190,right
11,1,continuous,3,22,trial,6168741.0,6171275.0,2534.0,3,L,6169898,6170082,186,1525.1,561.1,3411,right
11,1,continuous,3,22,trial,6168741.0,6171275.0,2534.0,3,L,6170162,6170436,276,491.3,499.6,3673,left
11,1,continuous,3,22,trial,6168741.0,6171275.0,2534.0,3,L,6170488,6170652,166,591.5,994.9,3766,NA
11,1,continuous,3,22,trial,6168741.0,6171275.0,2534.0,3,L,6170674,6170894,222,567.3,971.0,3867,NA
11,1,continuous,3,22,postResponse,6168741.0,6171275.0,2534.0,3,L,6170916,6171618,704,675.2,967.2,4061,NA
11,1,continuous,4,36,fixationCross,6181991.0,6184925.0,2934.0,4,L,6171724,6172172,450,1058.5,457.0,4113,NA
11,1,continuous,4,36,fixationCross,6181991.0,6184925.0,2934.0,4,L,6172196,6172562,368,965.5,497.7,4189,NA
11,1,continuous,4,36,fixationCross,6181991.0,6184925.0,2934.0,4,L,6172574,6172780,208,943.7,541.0,4218,NA
11,1,continuous,4,36,fixationCross,6181991.0,6184925.0,2934.0,4,L,6172982,6173252,272,931.0,556.3,4162,NA
11,1,continuous,4,36,fixationCross,6181991.0,6184925.0,2934.0,4,L,6173264,6173982,720,939.7,540.7,4177,NA
11,1,continuous,4,36,fixationCross,6181991.0,6184925.0,2934.0,4,L,6174226,6174450,226,930.3,562.3,4202,NA
11,1,continuous,4,36,fixationCross,6181991.0,6184925.0,2934.0,4,L,6174462,6174620,160,939.6,539.6,4349,NA
11,1,continuous,4,36,fixationCross,6181991.0,6184925.0,2934.0,4,L,6174980,6175068,90,965.1,572.2,4009,NA
11,1,continuous,4,36,fixationCross,6181991.0,6184925.0,2934.0,4,L,6175082,6175532,452,930.5,549.3,4208,NA
11,1,continuous,4,36,fixationCross,6181991.0,6184925.0,2934.0,4,L,6175548,6175690,144,951.2,516.0,3960,NA
11,1,continuous,4,36,fixationCross,6181991.0,6184925.0,2934.0,4,L,6175926,6176548,624,944.9,527.7,4076,NA
11,1,continuous,4,36,fixationCross,6181991.0,6184925.0,2934.0,4,L,6176740,6177686,948,954.2,527.3,3950,NA
11,1,continuous,4,36,fixationCross,6181991.0,6184925.0,2934.0,4,L,6177912,6180272,2362,961.4,531.5,4026,NA
11,1,continuous,4,36,trial,6181991.0,6184925.0,2934.0,4,L,6180282,6182194,1914,960.8,534.1,4116,NA
11,1,continuous,4,36,trial,6181991.0,6184925.0,2934.0,4,L,6182236,6182410,176,1295.3,534.3,3928,right
11,1,continuous,4,36,trial,6181991.0,6184925.0,2934.0,4,L,6182422,6182784,364,1345.3,525.9,3526,right
11,1,continuous,4,36,trial,6181991.0,6184925.0,2934.0,4,L,6182802,6183006,206,1414.8,536.2,3655,right
11,1,continuous,4,36,trial,6181991.0,6184925.0,2934.0,4,L,6183108,6183488,382,459.6,487.7,3864,left
11,1,continuous,4,36,trial,6181991.0,6184925.0,2934.0,4,L,6183564,6183750,188,1452.6,573.2,3558,right
11,1,continuous,4,36,trial,6181991.0,6184925.0,2934.0,4,L,6183776,6184124,350,1325.7,553.3,3630,right
11,1,continuous,4,36,trial,6181991.0,6184925.0,2934.0,4,L,6184190,6184362,174,572.7,538.7,4010,left
11,1,continuous,4,36,trial,6181991.0,6184925.0,2934.0,4,L,6184412,6184686,276,868.8,937.1,4046,likertHorizontal
11,1,continuous,4,36,trial,6181991.0,6184925.0,2934.0,4,L,6184740,6185228,490,469.1,521.7,3990,left
11,1,continuous,5,73,fixationCross,6195642.0,6198708.0,3066.0,5,L,6185372,6185566,196,919.5,496.5,3927,NA
11,1,continuous,5,73,fixationCross,6195642.0,6198708.0,3066.0,5,L,6185598,6185838,242,1104.6,495.3,4141,NA
11,1,continuous,5,73,fixationCross,6195642.0,6198708.0,3066.0,5,L,6185868,6186348,482,968.5,541.7,4280,NA
11,1,continuous,5,73,fixationCross,6195642.0,6198708.0,3066.0,5,L,6186770,6187048,280,957.1,561.9,4222,NA
11,1,continuous,5,73,fixationCross,6195642.0,6198708.0,3066.0,5,L,6187058,6187202,146,951.1,542.8,4411,NA
11,1,continuous,5,73,fixationCross,6195642.0,6198708.0,3066.0,5,L,6187442,6188012,572,953.8,528.7,3990,NA
11,1,continuous,5,73,fixationCross,6195642.0,6198708.0,3066.0,5,L,6188214,6188392,180,952.0,538.3,4006,NA
11,1,continuous,5,73,fixationCross,6195642.0,6198708.0,3066.0,5,L,6188554,6189204,652,952.8,538.6,4247,NA
11,1,continuous,5,73,fixationCross,6195642.0,6198708.0,3066.0,5,L,6189368,6189596,230,957.8,534.1,4137,NA
11,1,continuous,5,73,fixationCross,6195642.0,6198708.0,3066.0,5,L,6189986,6190108,124,931.7,551.9,4288,NA
11,1,continuous,5,73,fixationCross,6195642.0,6198708.0,3066.0,5,L,6190124,6191006,884,956.9,525.0,4105,NA
11,1,continuous,5,73,fixationCross,6195642.0,6198708.0,3066.0,5,L,6191014,6191170,158,947.7,520.5,3839,NA
11,1,continuous,5,73,fixationCross,6195642.0,6198708.0,3066.0,5,L,6191178,6191272,96,971.9,522.7,3871,NA
11,1,continuous,5,73,trial,6195642.0,6198708.0,3066.0,5,L,6191454,6195850,4398,957.7,521.7,3727,NA
11,1,continuous,5,73,trial,6195642.0,6198708.0,3066.0,5,L,6195900,6196358,460,1452.9,504.9,3279,right
11,1,continuous,5,73,trial,6195642.0,6198708.0,3066.0,5,L,6196436,6196656,222,490.0,538.8,3249,left
11,1,continuous,5,73,trial,6195642.0,6198708.0,3066.0,5,L,6196672,6196912,242,472.2,588.2,3209,left
11,1,continuous,5,73,trial,6195642.0,6198708.0,3066.0,5,L,6196932,6197126,196,532.2,518.4,3262,left
11,1,continuous,5,73,trial,6195642.0,6198708.0,3066.0,5,L,6197146,6197296,152,492.4,593.1,3359,left
11,1,continuous,5,73,trial,6195642.0,6198708.0,3066.0,5,L,6197372,6197556,186,1520.2,572.5,3405,right
11,1,continuous,5,73,trial,6195642.0,6198708.0,3066.0,5,L,6197578,6198162,586,1477.4,545.3,3457,right
11,1,continuous,5,73,trial,6195642.0,6198708.0,3066.0,5,L,6198174,6198924,752,1482.6,527.8,3787,right
11,1,continuous,6,24,trial,6199408.0,6201691.0,2283.0,6,L,6199162,6199458,298,1173.0,404.3,4077,NA
11,1,continuous,6,24,trial,6199408.0,6201691.0,2283.0,6,L,6199492,6199682,192,972.3,516.4,4354,NA
11,1,continuous,6,24,trial,6199408.0,6201691.0,2283.0,6,L,6199726,6199970,246,635.7,523.7,3869,left
11,1,continuous,6,24,trial,6199408.0,6201691.0,2283.0,6,L,6199992,6200190,200,513.6,483.2,3524,left
11,1,continuous,6,24,trial,6199408.0,6201691.0,2283.0,6,L,6200260,6200558,300,1464.7,542.7,3380,right
11,1,continuous,6,24,trial,6199408.0,6201691.0,2283.0,6,L,6200570,6200800,232,1459.6,504.7,3347,right
11,1,continuous,6,24,trial,6199408.0,6201691.0,2283.0,6,L,6200880,6201176,298,471.7,450.6,3381,left
11,1,continuous,6,24,trial,6199408.0,6201691.0,2283.0,6,L,6201198,6201356,160,563.1,501.5,3533,left
11,1,continuous,6,24,trial,6199408.0,6201691.0,2283.0,6,L,6201396,6201564,170,340.1,395.3,3651,left
11,1,continuous,6,24,trial,6199408.0,6201691.0,2283.0,6,L,6201648,6201956,310,1470.3,566.5,3655,right
11,1,continuous,7,17,fixationCross,6202425.0,6204291.0,1866.0,7,L,6202138,6202250,114,865.2,386.3,3584,NA
11,1,continuous,7,17,trial,6202425.0,6204291.0,1866.0,7,L,6202270,6202470,202,753.2,425.5,3786,NA
11,1,continuous,7,17,trial,6202425.0,6204291.0,1866.0,7,L,6202504,6202622,120,972.1,524.3,3967,NA
11,1,continuous,7,17,trial,6202425.0,6204291.0,1866.0,7,L,6202668,6202812,146,570.4,530.0,3851,left
11,1,continuous,7,17,trial,6202425.0,6204291.0,1866.0,7,L,6202834,6202974,142,526.1,475.1,3536,left
11,1,continuous,7,17,trial,6202425.0,6204291.0,1866.0,7,L,6203042,6203252,212,1432.3,577.4,3325,right
11,1,continuous,7,17,trial,6202425.0,6204291.0,1866.0,7,L,6203272,6203506,236,1351.1,584.1,3324,right
11,1,continuous,7,17,trial,6202425.0,6204291.0,1866.0,7,L,6203538,6203706,170,1576.7,585.6,3227,right
11,1,continuous,7,17,trial,6202425.0,6204291.0,1866.0,7,L,6203788,6204110,324,499.4,453.6,3450,left
11,1,continuous,7,17,postResponse,6202425.0,6204291.0,1866.0,7,L,6204138,6204636,500,569.2,528.9,3765,left
11,1,continuous,8,100,fixationCross,6204974.0,6207025.0,2051.0,8,L,6204712,6204734,24,583.3,539.7,3815,left
11,1,continuous,8,100,trial,6204974.0,6207025.0,2051.0,8,L,6205012,6205152,142,894.6,442.1,3999,NA
11,1,continuous,8,100,trial,6204974.0,6207025.0,2051.0,8,L,6205200,6205348,150,1328.7,516.8,4161,right
11,1,continuous,8,100,trial,6204974.0,6207025.0,2051.0,8,L,6205372,6205506,136,1455.6,527.1,4005,right
11,1,continuous,8,100,trial,6204974.0,6207025.0,2051.0,8,L,6205518,6205676,160,1491.2,547.9,3767,right
11,1,continuous,8,100,trial,6204974.0,6207025.0,2051.0,8,L,6205754,6206032,280,454.7,527.0,3675,left
11,1,continuous,8,100,trial,6204974.0,6207025.0,2051.0,8,L,6206048,6206312,266,397.3,535.3,3634,left
11,1,continuous,8,100,trial,6204974.0,6207025.0,2051.0,8,L,6206388,6206570,184,1463.2,565.4,3738,right
11,1,continuous,8,100,trial,6204974.0,6207025.0,2051.0,8,L,6206596,6206996,402,1513.3,555.9,3733,right
11,1,continuous,8,100,postResponse,6204974.0,6207025.0,2051.0,8,L,6207074,6207382,310,565.6,517.3,4064,left
11,1,continuous,9,90,fixationCross,6207725.0,6210341.0,2616.0,9,L,6207456,6207514,60,573.0,520.9,4182,left
11,1,continuous,9,90,trial,6207725.0,6210341.0,2616.0,9,L,6207560,6207886,328,871.8,449.8,4258,NA
11,1,continuous,9,90,trial,6207725.0,6210341.0,2616.0,9,L,6207930,6208166,238,468.2,546.0,4196,left
11,1,continuous,9,90,trial,6207725.0,6210341.0,2616.0,9,L,6208234,6208428,196,1398.6,561.0,3665,right
11,1,continuous,9,90,trial,6207725.0,6210341.0,2616.0,9,L,6208450,6208630,182,1334.5,531.2,3500,right
11,1,continuous,9,90,trial,6207725.0,6210341.0,2616.0,9,L,6208780,6208934,156,508.2,558.3,3522,left
11,1,continuous,9,90,trial,6207725.0,6210341.0,2616.0,9,L,6209004,6209398,396,1372.9,609.5,3770,right
11,1,continuous,9,90,trial,6207725.0,6210341.0,2616.0,9,L,6209470,6209778,310,491.5,550.3,3821,left
11,1,continuous,9,90,postResponse,6207725.0,6210341.0,2616.0,9,L,6209796,6210688,894,443.2,539.5,3774,left
11,1,continuous,10,14,fixationCross,6211058.0,6212841.0,1783.0,10,L,6210790,6210834,46,452.0,546.6,3840,left
11,1,continuous,10,14,trial,6211058.0,6212841.0,1783.0,10,L,6210916,6211218,304,1121.6,426.7,3954,NA
11,1,continuous,10,14,trial,6211058.0,6212841.0,1783.0,10,L,6211254,6211372,120,1341.8,496.5,3989,right
11,1,continuous,10,14,trial,6211058.0,6212841.0,1783.0,10,L,6211392,6211534,144,1451.7,476.7,3827,right
11,1,continuous,10,14,trial,6211058.0,6212841.0,1783.0,10,L,6211550,6211684,136,1432.1,453.3,3690,right
11,1,continuous,10,14,trial,6211058.0,6212841.0,1783.0,10,L,6211758,6212086,330,501.5,417.2,3570,left
11,1,continuous,10,14,trial,6211058.0,6212841.0,1783.0,10,L,6212114,6213156,1044,539.4,574.6,3792,left
11,1,continuous,11,83,trial,6213525.0,6215791.0,2266.0,11,L,6213264,6213688,426,856.6,461.7,4069,NA
11,1,continuous,11,83,trial,6213525.0,6215791.0,2266.0,11,L,6213730,6213926,198,493.3,470.4,4093,left
11,1,continuous,11,83,trial,6213525.0,6215791.0,2266.0,11,L,6213942,6214124,184,486.1,414.4,3772,left
11,1,continuous,11,83,trial,6213525.0,6215791.0,2266.0,11,L,6214308,6214358,52,1204.1,486.5,3621,right
11,1,continuous,11,83,trial,6213525.0,6215791.0,2266.0,11,L,6214392,6214628,238,1394.2,547.9,3696,right
11,1,continuous,11,83,trial,6213525.0,6215791.0,2266.0,11,L,6214638,6214902,266,1422.7,565.6,3809,right
11,1,continuous,11,83,trial,6213525.0,6215791.0,2266.0,11,L,6214928,6215700,774,1436.4,477.0,3757,right
11,1,continuous,11,83,postResponse,6213525.0,6215791.0,2266.0,11,L,6215780,6216148,370,451.0,458.0,4123,left
11,1,continuous,12,17,fixationCross,6216491.0,6218158.0,1667.0,12,L,6216252,6216484,234,923.2,439.1,3962,NA
11,1,continuous,12,17,trial,6216491.0,6218158.0,1667.0,12,L,6216508,6216670,164,937.9,412.3,4016,NA
11,1,continuous,12,17,trial,6216491.0,6218158.0,1667.0,12,L,6216716,6216846,132,527.7,502.6,4134,left
11,1,continuous,12,17,trial,6216491.0,6218158.0,1667.0,12,L,6216914,6217220,308,1426.6,531.7,3724,right
11,1,continuous,12,17,trial,6216491.0,6218158.0,1667.0,12,L,6217242,6217388,148,1370.7,495.8,3511,right
11,1,continuous,12,17,trial,6216491.0,6218158.0,1667.0,12,L,6217458,6217778,322,547.6,529.8,3525,left
11,1,continuous,12,17,trial,6216491.0,6218158.0,1667.0,12,L,6217802,6218366,566,484.5,673.2,3747,left
11,1,continuous,12,17,postResponse,6216491.0,6218158.0,1667.0,12,L,6218424,6218504,82,904.2,440.6,3749,NA
11,1,continuous,13,16,fixationCross,6218875.0,6220558.0,1683.0,13,L,6218604,6218782,180,914.9,444.4,3752,NA
11,1,continuous,13,16,trial,6218875.0,6220558.0,1683.0,13,L,6218802,6219026,226,803.9,457.6,3923,NA
11,1,continuous,13,16,trial,6218875.0,6220558.0,1683.0,13,L,6219064,6219240,178,536.5,509.1,3965,left
11,1,continuous,13,16,trial,6218875.0,6220558.0,1683.0,13,L,6219254,6219350,98,526.7,557.1,3688,left
11,1,continuous,13,16,trial,6218875.0,6220558.0,1683.0,13,L,6219422,6219658,238,1484.8,499.5,3399,right
11,1,continuous,13,16,trial,6218875.0,6220558.0,1683.0,13,L,6219880,6220062,184,511.1,568.4,3478,left
11,1,continuous,13,16,trial,6218875.0,6220558.0,1683.0,13,L,6220136,6220316,182,1456.1,496.8,3689,right
11,1,continuous,13,16,postResponse,6218875.0,6220558.0,1683.0,13,L,6220388,6220892,506,496.4,527.1,3494,left
11,1,continuous,14,24,fixationCross,6221225.0,6222792.0,1567.0,14,L,6220968,6221026,60,498.1,527.7,3532,left
11,1,continuous,14,24,trial,6221225.0,6222792.0,1567.0,14,L,6221070,6221298,230,783.5,480.1,3741,NA
11,1,continuous,14,24,trial,6221225.0,6222792.0,1567.0,14,L,6221326,6221412,88,943.9,491.0,3902,NA
11,1,continuous,14,24,trial,6221225.0,6222792.0,1567.0,14,L,6221456,6221616,162,614.1,455.1,3908,left
11,1,continuous,14,24,trial,6221225.0,6222792.0,1567.0,14,L,6221634,6221844,212,645.0,408.5,3661,left
11,1,continuous,14,24,trial,6221225.0,6222792.0,1567.0,14,L,6221908,6222200,294,1435.1,470.3,3457,right
11,1,continuous,14,24,trial,6221225.0,6222792.0,1567.0,14,L,6222266,6222566,302,662.5,421.7,3677,left
11,1,continuous,14,24,trial,6221225.0,6222792.0,1567.0,14,L,6222606,6222852,248,319.1,486.8,3647,left
11,1,continuous,14,24,trial,6221225.0,6222792.0,1567.0,14,L,6222886,6223080,196,619.1,453.7,3805,left
11,1,continuous,15,26,fixationCross,6223509.0,6225692.0,2183.0,15,L,6223242,6223488,248,1030.8,436.8,3959,NA
11,1,continuous,15,26,trial,6223509.0,6225692.0,2183.0,15,L,6223512,6223718,208,922.5,485.4,4209,NA
11,1,continuous,15,26,trial,6223509.0,6225692.0,2183.0,15,L,6223762,6223900,140,603.6,503.5,4164,left
11,1,continuous,15,26,trial,6223509.0,6225692.0,2183.0,15,L,6223966,6224198,234,1389.6,492.3,3686,right
11,1,continuous,15,26,trial,6223509.0,6225692.0,2183.0,15,L,6224222,6224474,254,1457.1,536.3,3515,right
11,1,continuous,15,26,trial,6223509.0,6225692.0,2183.0,15,L,6224552,6224850,300,534.6,528.5,3591,left
11,1,continuous,15,26,trial,6223509.0,6225692.0,2183.0,15,L,6224868,6225232,366,585.0,595.7,3739,left
11,1,continuous,15,26,trial,6223509.0,6225692.0,2183.0,15,L,6225270,6225586,318,449.9,449.6,3708,left
11,1,continuous,15,26,trial,6223509.0,6225692.0,2183.0,15,L,6225608,6225886,280,374.0,511.8,3636,left
11,1,continuous,16,85,fixationCross,6226392.0,6228075.0,1683.0,16,L,6226114,6226226,114,963.6,486.3,3756,NA
11,1,continuous,16,85,trial,6226392.0,6228075.0,1683.0,16,L,6226248,6226550,304,892.7,434.9,3872,NA
11,1,continuous,16,85,trial,6226392.0,6228075.0,1683.0,16,L,6226592,6226762,172,550.4,491.5,3787,left
11,1,continuous,16,85,trial,6226392.0,6228075.0,1683.0,16,L,6226830,6227082,254,1421.8,545.3,3506,right
11,1,continuous,16,85,trial,6226392.0,6228075.0,1683.0,16,L,6227104,6227428,326,1528.7,551.8,3428,right
11,1,continuous,16,85,trial,6226392.0,6228075.0,1683.0,16,L,6227508,6227744,238,551.0,501.0,3579,left
11,1,continuous,16,85,trial,6226392.0,6228075.0,1683.0,16,L,6227772,6228252,482,513.3,602.0,3609,left
11,1,continuous,16,85,postResponse,6226392.0,6228075.0,1683.0,16,L,6228320,6228418,100,1240.5,419.3,3743,right
11,1,continuous,17,66,trial,6228775.0,6230542.0,1767.0,17,L,6228492,6228984,494,1238.7,432.8,3877,right
11,1,continuous,17,66,trial,6228775.0,6230542.0,1767.0,17,L,6229020,6229164,146,1447.1,546.7,3862,right
11,1,continuous,17,66,trial,6228775.0,6230542.0,1767.0,17,L,6229190,6229368,180,1547.1,579.6,3569,right
11,1,continuous,17,66,trial,6228775.0,6230542.0,1767.0,17,L,6229510,6229736,228,437.2,550.5,3654,left
11,1,continuous,17,66,trial,6228775.0,6230542.0,1767.0,17,L,6229750,6230000,252,395.8,546.2,3690,left
11,1,continuous,17,66,trial,6228775.0,6230542.0,1767.0,17,L,6230090,6230298,210,1564.9,606.2,3431,right
11,1,continuous,17,66,trial,6228775.0,6230542.0,1767.0,17,L,6230320,6230810,492,1555.3,584.2,3377,right
11,1,continuous,18,77,trial,6231242.0,6233108.0,1866.0,18,L,6230990,6231414,426,745.2,483.9,3830,NA
11,1,continuous,18,77,trial,6231242.0,6233108.0,1866.0,18,L,6231438,6231678,242,603.3,499.7,3742,left
11,1,continuous,18,77,trial,6231242.0,6233108.0,1866.0,18,L,6231742,6231964,224,1420.4,497.7,3206,right
11,1,continuous,18,77,trial,6231242.0,6233108.0,1866.0,18,L,6231986,6232504,520,1423.4,434.3,3160,right
11,1,continuous,18,77,trial,6231242.0,6233108.0,1866.0,18,L,6232526,6232758,234,1336.5,465.1,3459,right
11,1,continuous,18,77,trial,6231242.0,6233108.0,1866.0,18,L,6232826,6233120,296,568.9,518.8,3710,left
11,1,continuous,18,77,trial,6231242.0,6233108.0,1866.0,18,L,6233142,6233348,208,485.9,523.1,3509,left
11,1,continuous,19,78,fixationCross,6233791.0,6235392.0,1601.0,19,L,6233528,6233712,186,1000.6,480.4,3515,NA
11,1,continuous,19,78,trial,6233791.0,6235392.0,1601.0,19,L,6233736,6233940,206,972.5,427.0,3844,NA
11,1,continuous,19,78,trial,6233791.0,6235392.0,1601.0,19,L,6233986,6234202,218,595.2,517.1,3903,left
11,1,continuous,19,78,trial,6233791.0,6235392.0,1601.0,19,L,6234266,6234500,236,1392.1,574.7,3588,right
11,1,continuous,19,78,trial,6233791.0,6235392.0,1601.0,19,L,6234520,6235090,572,1445.4,604.5,3647,right
11,1,continuous,19,78,trial,6233791.0,6235392.0,1601.0,19,L,6235162,6235354,194,533.2,538.2,3957,left
11,1,continuous,19,78,trial,6233791.0,6235392.0,1601.0,19,L,6235370,6235704,336,549.6,496.2,3877,left
11,1,continuous,20,53,fixationCross,6236059.0,6237592.0,1533.0,20,L,6235816,6235984,170,946.0,465.4,3720,NA
11,1,continuous,20,53,trial,6236059.0,6237592.0,1533.0,20,L,6236018,6236196,180,823.3,453.8,3825,NA
11,1,continuous,20,53,trial,6236059.0,6237592.0,1533.0,20,L,6236236,6236376,142,528.7,489.9,3940,left
11,1,continuous,20,53,trial,6236059.0,6237592.0,1533.0,20,L,6236400,6236496,98,548.4,549.9,3743,left
11,1,continuous,20,53,trial,6236059.0,6237592.0,1533.0,20,L,6236562,6236868,308,1409.9,531.3,3495,right
11,1,continuous,20,53,trial,6236059.0,6237592.0,1533.0,20,L,6236880,6237246,368,1400.4,508.5,3493,right
11,1,continuous,20,53,trial,6236059.0,6237592.0,1533.0,20,L,6237270,6237832,564,1396.7,634.6,3815,right
11,1,continuous,20,53,postResponse,6236059.0,6237592.0,1533.0,20,L,6237894,6237942,50,892.7,479.6,4012,NA
11,1,continuous,21,6,fixationCross,6238275.0,6240009.0,1734.0,21,L,6238016,6238110,96,883.8,479.5,4040,NA
11,1,continuous,21,6,trial,6238275.0,6240009.0,1734.0,21,L,6238134,6238436,304,693.3,447.9,4112,left
11,1,continuous,21,6,trial,6238275.0,6240009.0,1734.0,21,L,6238464,6238686,224,525.3,487.6,3904,left
11,1,continuous,21,6,trial,6238275.0,6240009.0,1734.0,21,L,6238760,6238926,168,1533.2,444.4,3426,right
11,1,continuous,21,6,trial,6238275.0,6240009.0,1734.0,21,L,6239030,6239310,282,1498.4,548.5,3382,right
11,1,continuous,21,6,trial,6238275.0,6240009.0,1734.0,21,L,6239316,6239384,70,1506.3,530.9,3492,right
11,1,continuous,21,6,trial,6238275.0,6240009.0,1734.0,21,L,6239458,6239974,518,552.1,553.5,3704,left
11,1,continuous,21,6,trial,6238275.0,6240009.0,1734.0,21,L,6240044,6240310,268,1449.8,494.3,3666,right
11,1,continuous,22,95,fixationCross,6240726.0,6242408.0,1682.0,22,L,6240454,6240644,192,744.7,447.0,3857,NA
11,1,continuous,22,95,trial,6240726.0,6242408.0,1682.0,22,L,6240670,6240868,200,919.1,451.7,3951,NA
11,1,continuous,22,95,trial,6240726.0,6242408.0,1682.0,22,L,6240908,6241110,204,622.5,558.2,3878,left
11,1,continuous,22,95,trial,6240726.0,6242408.0,1682.0,22,L,6241180,6241452,274,1503.0,610.5,3593,right
11,1,continuous,22,95,trial,6240726.0,6242408.0,1682.0,22,L,6241474,6241530,58,1506.4,609.6,3563,right
11,1,continuous,22,95,trial,6240726.0,6242408.0,1682.0,22,L,6241554,6241848,296,1417.5,578.2,3666,right
11,1,continuous,22,95,trial,6240726.0,6242408.0,1682.0,22,L,6242078,6242366,290,1412.2,661.9,4021,right
11,1,continuous,22,95,trial,6240726.0,6242408.0,1682.0,22,L,6242388,6242638,252,1483.9,600.5,4171,right
11,1,continuous,22,95,postResponse,6240726.0,6242408.0,1682.0,22,L,6242714,6242754,42,750.5,473.2,4154,NA
11,1,continuous,23,7,fixationCross,6243126.0,6244958.0,1832.0,23,L,6242854,6242932,80,737.9,478.6,4046,NA
11,1,continuous,23,7,trial,6243126.0,6244958.0,1832.0,23,L,6242956,6243288,334,882.4,501.5,3953,NA
11,1,continuous,23,7,trial,6243126.0,6244958.0,1832.0,23,L,6243318,6243492,176,629.9,508.6,3887,left
11,1,continuous,23,7,trial,6243126.0,6244958.0,1832.0,23,L,6243566,6243760,196,1410.2,497.1,3559,right
11,1,continuous,23,7,trial,6243126.0,6244958.0,1832.0,23,L,6243780,6243986,208,1388.7,441.9,3478,right
11,1,continuous,23,7,trial,6243126.0,6244958.0,1832.0,23,L,6244056,6244650,596,520.3,487.0,3555,left
11,1,continuous,23,7,trial,6243126.0,6244958.0,1832.0,23,L,6244670,6244906,238,536.0,438.5,3581,left
11,1,continuous,23,7,trial,6243126.0,6244958.0,1832.0,23,L,6244918,6245254,338,520.2,422.6,3561,left
11,1,continuous,24,19,trial,6245642.0,6247642.0,2000.0,24,L,6245380,6245798,420,995.2,474.2,3636,NA
11,1,continuous,24,19,trial,6245642.0,6247642.0,2000.0,24,L,6245842,6246052,212,584.6,498.1,3712,left
11,1,continuous,24,19,trial,6245642.0,6247642.0,2000.0,24,L,6246078,6246332,256,424.9,487.7,3383,left
11,1,continuous,24,19,trial,6245642.0,6247642.0,2000.0,24,L,6246518,6246780,264,1493.1,506.8,3287,right
11,1,continuous,24,19,trial,6245642.0,6247642.0,2000.0,24,L,6246798,6247038,242,1564.2,534.6,3402,right
11,1,continuous,24,19,trial,6245642.0,6247642.0,2000.0,24,L,6247120,6247444,326,441.2,489.6,3319,left
11,1,continuous,24,19,trial,6245642.0,6247642.0,2000.0,24,L,6247454,6247636,184,419.5,481.4,3382,left
11,1,continuous,24,19,trial,6245642.0,6247642.0,2000.0,24,L,6247660,6247954,296,393.0,382.4,3555,left
11,1,continuous,25,22,fixationCross,6248325.0,6249942.0,1617.0,25,L,6248066,6248190,126,1014.8,492.6,3689,NA
11,1,continuous,25,22,trial,6248325.0,6249942.0,1617.0,25,L,6248216,6248476,262,842.6,474.3,3737,NA
11,1,continuous,25,22,trial,6248325.0,6249942.0,1617.0,25,L,6248510,6248756,248,589.5,507.5,3738,left
11,1,continuous,25,22,trial,6248325.0,6249942.0,1617.0,25,L,6248828,6249056,230,1508.9,532.6,3417,right
11,1,continuous,25,22,trial,6248325.0,6249942.0,1617.0,25,L,6249078,6249210,134,1551.3,491.0,3297,right
11,1,continuous,25,22,trial,6248325.0,6249942.0,1617.0,25,L,6249240,6249548,310,1361.0,542.3,3408,right
11,1,continuous,25,22,postResponse,6248325.0,6249942.0,1617.0,25,L,6249672,6250278,608,559.3,502.8,3649,left
11,1,continuous,26,18,fixationCross,6275259.0,6277426.0,2167.0,26,L,6274970,6275128,160,2020.2,65.1,3127,NA
11,1,continuous,26,18,trial,6275259.0,6277426.0,2167.0,26,L,6275220,6275390,172,522.8,79.7,3526,NA
11,1,continuous,26,18,trial,6275259.0,6277426.0,2167.0,26,L,6275434,6275548,116,778.4,445.3,3512,NA
11,1,continuous,26,18,trial,6275259.0,6277426.0,2167.0,26,L,6275584,6275842,260,511.1,495.4,3353,left
11,1,continuous,26,18,trial,6275259.0,6277426.0,2167.0,26,L,6275914,6276406,494,1457.4,601.8,3231,right
11,1,continuous,26,18,trial,6275259.0,6277426.0,2167.0,26,L,6276496,6276852,358,454.1,564.4,3326,left
11,1,continuous,26,18,trial,6275259.0,6277426.0,2167.0,26,L,6276866,6277358,494,486.5,526.5,3500,left
11,1,continuous,26,18,trial,6275259.0,6277426.0,2167.0,26,L,6277370,6277654,286,470.7,504.8,3516,left
11,1,continuous,26,18,postResponse,6275259.0,6277426.0,2167.0,26,L,6277710,6277770,62,998.2,414.4,3555,NA
11,1,continuous,27,15,fixationCross,6278143.0,6279493.0,1350.0,27,L,6277870,6277936,68,1003.7,417.2,3568,NA
11,1,continuous,27,15,trial,6278143.0,6279493.0,1350.0,27,L,6277996,6278200,206,696.8,448.9,3697,left
11,1,continuous,27,15,trial,6278143.0,6279493.0,1350.0,27,L,6278232,6278338,108,942.7,521.8,3820,NA
11,1,continuous,27,15,trial,6278143.0,6279493.0,1350.0,27,L,6278380,6278498,120,1339.6,503.4,3706,right
11,1,continuous,27,15,trial,6278143.0,6279493.0,1350.0,27,L,6278522,6278686,166,1352.1,439.1,3510,right
11,1,continuous,27,15,trial,6278143.0,6279493.0,1350.0,27,L,6278756,6279056,302,482.6,511.5,3504,left
11,1,continuous,27,15,trial,6278143.0,6279493.0,1350.0,27,L,6279070,6279348,280,530.7,501.7,3466,left
11,1,continuous,27,15,postResponse,6278143.0,6279493.0,1350.0,27,L,6279468,6279836,370,577.3,452.9,3455,left
11,1,continuous,28,90,trial,6280193.0,6281642.0,1449.0,28,L,6279910,6280254,346,590.4,466.4,3767,left
11,1,continuous,28,90,trial,6280193.0,6281642.0,1449.0,28,L,6280298,6280418,122,934.3,484.6,3766,NA
11,1,continuous,28,90,trial,6280193.0,6281642.0,1449.0,28,L,6280464,6280600,138,535.3,518.2,3675,left
11,1,continuous,28,90,trial,6280193.0,6281642.0,1449.0,28,L,6280680,6280940,262,1451.8,517.4,3494,right
11,1,continuous,28,90,trial,6280193.0,6281642.0,1449.0,28,L,6280960,6281498,540,1457.6,577.3,3506,right
11,1,continuous,28,90,postResponse,6280193.0,6281642.0,1449.0,28,L,6281576,6281966,392,424.9,515.6,3710,left
11,1,continuous,29,20,fixationCross,6282343.0,6283825.0,1482.0,29,L,6282064,6282226,164,1140.9,471.6,3831,NA
11,1,continuous,29,20,trial,6282343.0,6283825.0,1482.0,29,L,6282274,6282498,226,828.4,453.1,3855,NA
11,1,continuous,29,20,trial,6282343.0,6283825.0,1482.0,29,L,6282532,6282644,114,537.2,493.8,3839,left
11,1,continuous,29,20,trial,6282343.0,6283825.0,1482.0,29,L,6282788,6282954,168,1448.5,499.4,3494,right
11,1,continuous,29,20,trial,6282343.0,6283825.0,1482.0,29,L,6282972,6283120,150,1399.1,492.8,3521,right
11,1,continuous,29,20,trial,6282343.0,6283825.0,1482.0,29,L,6283130,6283220,92,1405.1,491.9,3450,right
11,1,continuous,29,20,trial,6282343.0,6283825.0,1482.0,29,L,6283286,6283566,282,576.9,563.5,3341,left
11,1,continuous,29,20,trial,6282343.0,6283825.0,1482.0,29,L,6283584,6283826,244,533.0,528.8,3351,left
11,1,continuous,29,20,postResponse,6282343.0,6283825.0,1482.0,29,L,6283838,6284172,336,558.6,547.7,3503,left
11,1,continuous,30,79,trial,6284542.0,6286376.0,1834.0,30,L,6284272,6284696,426,861.4,473.1,3648,NA
11,1,continuous,30,79,trial,6284542.0,6286376.0,1834.0,30,L,6284730,6284912,184,617.2,501.1,3674,left
11,1,continuous,30,79,trial,6284542.0,6286376.0,1834.0,30,L,6284924,6285064,142,651.8,513.5,3500,left
11,1,continuous,30,79,trial,6284542.0,6286376.0,1834.0,30,L,6285132,6285396,266,1473.7,491.8,3360,right
11,1,continuous,30,79,trial,6284542.0,6286376.0,1834.0,30,L,6285420,6285720,302,1340.1,515.3,3365,right
11,1,continuous,30,79,trial,6284542.0,6286376.0,1834.0,30,L,6285754,6285894,142,1463.4,413.9,3279,right
11,1,continuous,30,79,trial,6284542.0,6286376.0,1834.0,30,L,6285916,6286168,254,1483.0,394.0,3256,right
11,1,continuous,30,79,trial,6284542.0,6286376.0,1834.0,30,L,6286242,6286320,80,599.6,515.0,3355,left
11,1,continuous,30,79,postResponse,6284542.0,6286376.0,1834.0,30,L,6286374,6286726,354,650.9,549.6,3630,left
11,1,continuous,31,17,fixationCross,6287076.0,6288692.0,1616.0,31,L,6286800,6287000,202,659.5,549.8,3777,left
11,1,continuous,31,17,trial,6287076.0,6288692.0,1616.0,31,L,6287038,6287258,222,887.1,495.0,3758,NA
11,1,continuous,31,17,trial,6287076.0,6288692.0,1616.0,31,L,6287292,6287538,248,567.8,497.3,3680,left
11,1,continuous,31,17,trial,6287076.0,6288692.0,1616.0,31,L,6287564,6287754,192,367.6,536.4,3311,left
11,1,continuous,31,17,trial,6287076.0,6288692.0,1616.0,31,L,6287944,6288198,256,1440.0,589.4,3158,right
11,1,continuous,31,17,trial,6287076.0,6288692.0,1616.0,31,L,6288276,6288680,406,516.5,576.7,3332,left
11,1,continuous,31,17,postResponse,6287076.0,6288692.0,1616.0,31,L,6288862,6289036,176,526.9,526.2,3524,left
11,1,continuous,32,100,fixationCross,6289409.0,6291059.0,1650.0,32,L,6289136,6289368,234,534.9,540.5,3787,left
11,1,continuous,32,100,trial,6289409.0,6291059.0,1650.0,32,L,6289410,6289592,184,830.8,437.4,3729,NA
11,1,continuous,32,100,trial,6289409.0,6291059.0,1650.0,32,L,6289632,6289776,146,550.8,468.4,3649,left
11,1,continuous,32,100,trial,6289409.0,6291059.0,1650.0,32,L,6289842,6290146,306,1422.9,507.2,3419,right
11,1,continuous,32,100,trial,6289409.0,6291059.0,1650.0,32,L,6290158,6290308,152,1387.4,529.2,3475,right
11,1,continuous,32,100,trial,6289409.0,6291059.0,1650.0,32,L,6290382,6290538,158,462.0,398.2,3712,left
11,1,continuous,32,100,trial,6289409.0,6291059.0,1650.0,32,L,6290560,6290864,306,509.0,358.5,3578,left
11,1,continuous,32,100,trial,6289409.0,6291059.0,1650.0,32,L,6290940,6291358,420,1419.7,511.7,3343,right
11,1,continuous,33,49,fixationCross,6291775.0,6292542.0,767.0,33,L,6291508,6291660,154,647.7,441.1,3790,left
11,1,continuous,33,49,trial,6291775.0,6292542.0,767.0,33,L,6291706,6291912,208,888.9,482.7,3872,NA
11,1,continuous,33,49,trial,6291775.0,6292542.0,767.0,33,L,6291954,6292088,136,558.9,494.0,3788,left
11,1,continuous,33,49,trial,6291775.0,6292542.0,767.0,33,L,6292150,6292410,262,1385.8,546.5,3623,right
11,1,continuous,33,49,trial,6291775.0,6292542.0,767.0,33,L,6292432,6292714,284,1477.3,604.2,3725,right
11,1,continuous,33,49,postResponse,6291775.0,6292542.0,767.0,33,L,6292772,6292886,116,943.4,480.3,3904,NA
11,1,continuous,34,85,trial,6293243.0,6294526.0,1283.0,34,L,6293006,6293396,392,701.3,479.5,4007,left
11,1,continuous,34,85,trial,6293243.0,6294526.0,1283.0,34,L,6293418,6293554,138,589.5,485.7,3996,left
11,1,continuous,34,85,trial,6293243.0,6294526.0,1283.0,34,L,6293630,6294250,622,1420.7,544.0,3579,right
11,1,continuous,34,85,trial,6293243.0,6294526.0,1283.0,34,L,6294282,6294512,232,1576.9,534.3,3722,right
11,1,continuous,34,85,trial,6293243.0,6294526.0,1283.0,34,L,6294532,6294780,250,1584.8,588.2,3773,right
11,1,continuous,35,24,trial,6295243.0,6296759.0,1516.0,35,L,6294950,6295404,456,773.6,451.1,3802,NA
11,1,continuous,35,24,trial,6295243.0,6296759.0,1516.0,35,L,6295430,6295562,134,626.0,482.3,3831,left
11,1,continuous,35,24,trial,6295243.0,6296759.0,1516.0,35,L,6295628,6295922,296,1434.8,549.8,3513,right
11,1,continuous,35,24,trial,6295243.0,6296759.0,1516.0,35,L,6295992,6296304,314,632.1,543.5,3564,left
11,1,continuous,35,24,trial,6295243.0,6296759.0,1516.0,35,L,6296328,6296592,266,534.5,523.1,3550,left
11,1,continuous,35,24,trial,6295243.0,6296759.0,1516.0,35,L,6296616,6296994,380,447.8,601.2,3527,left
11,1,continuous,36,28,trial,6297426.0,6298793.0,1367.0,36,L,6297248,6297598,352,670.0,491.1,3576,left
11,1,continuous,36,28,trial,6297426.0,6298793.0,1367.0,36,L,6297628,6297812,186,474.6,486.9,3731,left
11,1,continuous,36,28,trial,6297426.0,6298793.0,1367.0,36,L,6297828,6297974,148,404.1,465.2,3381,left
11,1,continuous,36,28,trial,6297426.0,6298793.0,1367.0,36,L,6298046,6298362,318,1457.8,499.7,3164,right
11,1,continuous,36,28,trial,6297426.0,6298793.0,1367.0,36,L,6298388,6298550,164,1377.4,478.3,3224,right
11,1,continuous,36,28,postResponse,6297426.0,6298793.0,1367.0,36,L,6298626,6299126,502,398.9,488.7,3378,left
11,1,continuous,37,64,fixationCross,6299493.0,6301660.0,2167.0,37,L,6299226,6299456,232,878.8,457.3,3589,NA
11,1,continuous,37,64,trial,6299493.0,6301660.0,2167.0,37,L,6299510,6299660,152,1171.4,448.5,3730,NA
11,1,continuous,37,64,trial,6299493.0,6301660.0,2167.0,37,L,6299690,6299892,204,1317.4,540.7,3807,right
11,1,continuous,37,64,trial,6299493.0,6301660.0,2167.0,37,L,6299916,6300054,140,1391.8,594.0,3655,right
11,1,continuous,37,64,trial,6299493.0,6301660.0,2167.0,37,L,6300122,6300364,244,585.5,505.9,3688,left
11,1,continuous,37,64,trial,6299493.0,6301660.0,2167.0,37,L,6300388,6300636,250,417.1,532.2,3484,left
11,1,continuous,37,64,trial,6299493.0,6301660.0,2167.0,37,L,6300716,6300874,160,1412.2,444.9,3173,right
11,1,continuous,37,64,trial,6299493.0,6301660.0,2167.0,37,L,6300894,6301252,360,1403.5,408.9,3167,right
11,1,continuous,37,64,trial,6299493.0,6301660.0,2167.0,37,L,6301292,6301494,204,1458.0,511.1,3519,right
11,1,continuous,37,64,trial,6299493.0,6301660.0,2167.0,37,L,6301524,6301838,316,1429.9,594.4,3782,right
11,1,continuous,38,13,fixationCross,6302376.0,6303560.0,1184.0,38,L,6302106,6302228,124,732.1,417.4,3765,left
11,1,continuous,38,13,trial,6302376.0,6303560.0,1184.0,38,L,6302248,6302626,380,647.2,449.3,3901,left
11,1,continuous,38,13,trial,6302376.0,6303560.0,1184.0,38,L,6302690,6302972,284,1443.0,500.7,3391,right
11,1,continuous,38,13,trial,6302376.0,6303560.0,1184.0,38,L,6303046,6303846,802,601.1,542.0,3425,left
11,1,continuous,38,13,postResponse,6302376.0,6303560.0,1184.0,38,L,6303870,6303900,32,741.4,457.0,3504,NA
11,1,continuous,39,81,trial,6304276.0,6306143.0,1867.0,39,L,6304000,6304438,440,758.2,464.3,3746,NA
11,1,continuous,39,81,trial,6304276.0,6306143.0,1867.0,39,L,6304472,6304922,452,527.2,452.8,3698,left
11,1,continuous,39,81,trial,6304276.0,6306143.0,1867.0,39,L,6305078,6305336,260,1442.9,562.1,3513,right
11,1,continuous,39,81,trial,6304276.0,6306143.0,1867.0,39,L,6305360,6305664,306,1349.4,519.5,3623,right
11,1,continuous,39,81,trial,6304276.0,6306143.0,1867.0,39,L,6305684,6305966,284,1404.4,552.4,3511,right
11,1,continuous,39,81,trial,6304276.0,6306143.0,1867.0,39,L,6306042,6306406,366,490.2,457.1,3643,left
11,1,continuous,40,79,trial,6306826.0,6308343.0,1517.0,40,L,6306690,6307012,324,1246.2,512.9,3671,right
11,1,continuous,40,79,trial,6306826.0,6308343.0,1517.0,40,L,6307038,6307404,368,1355.7,534.1,3771,right
11,1,continuous,40,79,trial,6306826.0,6308343.0,1517.0,40,L,6307426,6307698,274,1476.2,470.4,3483,right
11,1,continuous,40,79,trial,6306826.0,6308343.0,1517.0,40,L,6307770,6308006,238,610.9,547.5,3697,left
11,1,continuous,40,79,trial,6306826.0,6308343.0,1517.0,40,L,6308028,6308272,246,507.3,561.8,3715,left
11,1,continuous,40,79,trial,6306826.0,6308343.0,1517.0,40,L,6308306,6308464,160,475.3,436.0,3640,left
11,1,continuous,41,50,fixationCross,6309026.0,6310059.0,1033.0,41,L,6308762,6308996,236,939.0,490.3,3862,NA
11,1,continuous,41,50,trial,6309026.0,6310059.0,1033.0,41,L,6309020,6309194,176,798.7,476.0,4080,NA
11,1,continuous,41,50,trial,6309026.0,6310059.0,1033.0,41,L,6309222,6309428,208,638.2,447.2,3869,left
11,1,continuous,41,50,trial,6309026.0,6310059.0,1033.0,41,L,6309456,6309600,146,459.3,524.0,3426,left
11,1,continuous,41,50,trial,6309026.0,6310059.0,1033.0,41,L,6309672,6310030,360,1467.7,548.8,3168,right
11,1,continuous,41,50,trial,6309026.0,6310059.0,1033.0,41,L,6310048,6310236,190,1464.2,500.1,3283,right
11,1,continuous,41,50,postResponse,6309026.0,6310059.0,1033.0,41,L,6310312,6310406,96,770.1,457.0,3620,NA
11,1,continuous,42,91,fixationCross,6310792.0,6312192.0,1400.0,42,L,6310508,6310582,76,770.8,468.5,3785,NA
11,1,continuous,42,91,trial,6310792.0,6312192.0,1400.0,42,L,6310598,6310944,348,829.3,472.6,3954,NA
11,1,continuous,42,91,trial,6310792.0,6312192.0,1400.0,42,L,6310974,6311208,236,572.1,491.0,3948,left
11,1,continuous,42,91,trial,6310792.0,6312192.0,1400.0,42,L,6311276,6311622,348,1375.8,473.1,3588,right
11,1,continuous,42,91,trial,6310792.0,6312192.0,1400.0,42,L,6311646,6311928,284,1416.3,565.0,3625,right
11,1,continuous,42,91,trial,6310792.0,6312192.0,1400.0,42,L,6311952,6312384,434,1503.8,601.0,3809,right
11,1,continuous,43,30,trial,6312926.0,6314176.0,1250.0,43,L,6312674,6313074,402,890.0,439.6,3958,NA
11,1,continuous,43,30,trial,6312926.0,6314176.0,1250.0,43,L,6313110,6313276,168,596.8,505.1,3956,left
11,1,continuous,43,30,trial,6312926.0,6314176.0,1250.0,43,L,6313304,6313476,174,553.9,615.6,3597,left
11,1,continuous,43,30,trial,6312926.0,6314176.0,1250.0,43,L,6313542,6313752,212,1416.8,553.4,3359,right
11,1,continuous,43,30,trial,6312926.0,6314176.0,1250.0,43,L,6313770,6314022,254,1398.7,505.3,3326,right
11,1,continuous,43,30,postResponse,6312926.0,6314176.0,1250.0,43,L,6314092,6314536,446,594.5,549.5,3522,left
11,1,continuous,44,10,fixationCross,6314893.0,6316526.0,1633.0,44,L,6314610,6314864,256,1056.5,479.1,3588,NA
11,1,continuous,44,10,trial,6314893.0,6316526.0,1633.0,44,L,6314888,6315066,180,878.0,472.2,3781,NA
11,1,continuous,44,10,trial,6314893.0,6316526.0,1633.0,44,L,6315098,6315318,222,653.8,502.9,3824,left
11,1,continuous,44,10,trial,6314893.0,6316526.0,1633.0,44,L,6315340,6315448,110,543.5,474.2,3616,left
11,1,continuous,44,10,trial,6314893.0,6316526.0,1633.0,44,L,6315516,6315816,302,1395.2,517.2,3448,right
11,1,continuous,44,10,trial,6314893.0,6316526.0,1633.0,44,L,6315840,6315896,58,1482.0,513.0,3389,right
11,1,continuous,44,10,trial,6314893.0,6316526.0,1633.0,44,L,6315914,6315984,72,1483.7,512.7,3411,right
11,1,continuous,44,10,trial,6314893.0,6316526.0,1633.0,44,L,6316064,6316428,366,511.0,508.2,3514,left
11,1,continuous,44,10,postResponse,6314893.0,6316526.0,1633.0,44,L,6316448,6316876,430,584.2,460.6,3514,left
11,1,continuous,45,84,trial,6317243.0,6318677.0,1434.0,45,L,6316950,6317392,444,757.5,432.0,3634,NA
11,1,continuous,45,84,trial,6317243.0,6318677.0,1434.0,45,L,6317416,6317560,146,610.7,497.8,3726,left
11,1,continuous,45,84,trial,6317243.0,6318677.0,1434.0,45,L,6317638,6317944,308,1469.4,530.2,3226,right
11,1,continuous,45,84,trial,6317243.0,6318677.0,1434.0,45,L,6317964,6318222,260,1383.6,539.1,3181,right
11,1,continuous,45,84,trial,6317243.0,6318677.0,1434.0,45,L,6318280,6318460,182,807.4,544.3,3427,NA
11,1,continuous,45,84,trial,6317243.0,6318677.0,1434.0,45,L,6318494,6318872,380,597.5,513.8,3419,left
11,1,continuous,45,84,postResponse,6317243.0,6318677.0,1434.0,45,L,6318978,6319020,44,1273.1,434.7,3109,right
11,1,continuous,46,24,fixationCross,6319376.0,6320909.0,1533.0,46,L,6319094,6319186,94,1273.1,443.3,3191,right
11,1,continuous,46,24,trial,6319376.0,6320909.0,1533.0,46,L,6319234,6319542,310,972.2,452.0,3537,NA
11,1,continuous,46,24,trial,6319376.0,6320909.0,1533.0,46,L,6319584,6319812,230,630.3,490.9,3595,left
11,1,continuous,46,24,trial,6319376.0,6320909.0,1533.0,46,L,6319848,6319964,118,503.2,587.4,3329,left
11,1,continuous,46,24,trial,6319376.0,6320909.0,1533.0,46,L,6319982,6320144,164,500.3,651.2,3255,left
11,1,continuous,46,24,trial,6319376.0,6320909.0,1533.0,46,L,6320214,6320636,424,1384.7,560.5,3358,right
11,1,continuous,46,24,trial,6319376.0,6320909.0,1533.0,46,L,6320792,6321094,304,1441.4,547.8,3648,right
11,1,continuous,46,24,postResponse,6319376.0,6320909.0,1533.0,46,L,6321152,6321256,106,883.0,482.8,3938,NA
11,1,continuous,47,22,trial,6321626.0,6323476.0,1850.0,47,L,6321356,6321776,422,887.8,483.7,3785,NA
11,1,continuous,47,22,trial,6321626.0,6323476.0,1850.0,47,L,6321822,6322158,338,475.1,509.6,3645,left
11,1,continuous,47,22,trial,6321626.0,6323476.0,1850.0,47,L,6322188,6322302,116,624.8,531.6,3437,left
11,1,continuous,47,22,trial,6321626.0,6323476.0,1850.0,47,L,6322374,6322630,258,1520.3,507.1,3300,right
11,1,continuous,47,22,trial,6321626.0,6323476.0,1850.0,47,L,6322648,6322844,198,1492.4,547.1,3469,right
11,1,continuous,47,22,trial,6321626.0,6323476.0,1850.0,47,L,6322920,6323072,154,590.0,589.5,3841,left
11,1,continuous,47,22,trial,6321626.0,6323476.0,1850.0,47,L,6323092,6323270,180,501.3,610.0,3794,left
11,1,continuous,47,22,trial,6321626.0,6323476.0,1850.0,47,L,6323290,6323478,190,481.8,523.9,3419,left
11,1,continuous,47,22,postResponse,6321626.0,6323476.0,1850.0,47,L,6323550,6323820,272,1385.9,498.5,3224,right
11,1,continuous,48,7,fixationCross,6324159.0,6325859.0,1700.0,48,L,6323924,6323928,6,896.6,430.3,3531,NA
11,1,continuous,48,7,trial,6324159.0,6325859.0,1700.0,48,L,6323932,6324320,390,890.7,436.8,3777,NA
11,1,continuous,48,7,trial,6324159.0,6325859.0,1700.0,48,L,6324358,6324630,274,581.8,487.6,3794,left
11,1,continuous,48,7,trial,6324159.0,6325859.0,1700.0,48,L,6324696,6325162,468,1388.4,532.2,3382,right
11,1,continuous,48,7,trial,6324159.0,6325859.0,1700.0,48,L,6325236,6325462,228,518.8,483.0,3520,left
11,1,continuous,48,7,trial,6324159.0,6325859.0,1700.0,48,L,6325482,6325896,416,526.7,430.3,3467,left
11,1,continuous,48,7,trial,6324159.0,6325859.0,1700.0,48,L,6325952,6326086,136,1067.9,472.0,3451,NA
11,1,continuous,49,51,trial,6326543.0,6327910.0,1367.0,49,L,6326356,6326744,390,1064.6,477.0,3775,NA
11,1,continuous,49,51,trial,6326543.0,6327910.0,1367.0,49,L,6326802,6327066,266,533.2,488.7,3728,left
11,1,continuous,49,51,trial,6326543.0,6327910.0,1367.0,49,L,6327134,6327332,200,1402.6,522.9,3411,right
11,1,continuous,49,51,trial,6326543.0,6327910.0,1367.0,49,L,6327408,6327750,344,486.6,481.1,3564,left
11,1,continuous,49,51,trial,6326543.0,6327910.0,1367.0,49,L,6327770,6328168,400,542.9,429.2,3727,left
11,1,continuous,50,15,fixationCross,6328593.0,6330243.0,1650.0,50,L,6328330,6328420,92,1130.7,439.8,3726,NA
11,1,continuous,50,15,trial,6328593.0,6330243.0,1650.0,50,L,6328460,6328740,282,846.5,455.4,3814,NA
11,1,continuous,50,15,trial,6328593.0,6330243.0,1650.0,50,L,6328788,6328942,156,471.6,491.0,3864,left
11,1,continuous,50,15,trial,6328593.0,6330243.0,1650.0,50,L,6328960,6329136,178,402.1,473.6,3524,left
11,1,continuous,50,15,trial,6328593.0,6330243.0,1650.0,50,L,6329216,6329498,284,1421.1,513.1,3282,right
11,1,continuous,50,15,trial,6328593.0,6330243.0,1650.0,50,L,6329570,6329966,398,518.5,533.7,3136,left
11,1,continuous,50,15,trial,6328593.0,6330243.0,1650.0,50,L,6330040,6330420,382,1419.1,523.0,3323,right
11,1,continuous,50,15,postResponse,6328593.0,6330243.0,1650.0,50,L,6330486,6330590,106,807.6,443.5,3238,NA
11,2,binary,1,2,fixationCross,6390227.0,6391943.0,1716.0,51,L,6389952,6389990,40,617.8,624.0,3921,left
11,2,binary,1,2,trial,6390227.0,6391943.0,1716.0,51,L,6390036,6390378,344,969.8,461.0,4001,NA
11,2,binary,1,2,trial,6390227.0,6391943.0,1716.0,51,L,6390402,6390444,44,919.1,489.6,4037,NA
11,2,binary,1,2,trial,6390227.0,6391943.0,1716.0,51,L,6390482,6390632,152,627.6,517.1,3993,left
11,2,binary,1,2,trial,6390227.0,6391943.0,1716.0,51,L,6390694,6390946,254,1400.0,523.5,3746,right
11,2,binary,1,2,trial,6390227.0,6391943.0,1716.0,51,L,6391006,6391826,822,1472.8,1005.6,4069,NA
11,2,binary,1,2,trial,6390227.0,6391943.0,1716.0,51,L,6391838,6392234,398,1435.0,1003.3,4432,NA
11,2,binary,2,2,fixationCross,6392660.0,6394877.0,2217.0,52,L,6392390,6392512,124,1076.2,680.9,4503,NA
11,2,binary,2,2,trial,6392660.0,6394877.0,2217.0,52,L,6392532,6392684,154,1053.6,735.7,4586,likertHorizontal
11,2,binary,2,2,trial,6392660.0,6394877.0,2217.0,52,L,6392706,6392730,26,1094.1,717.4,4633,NA
11,2,binary,2,2,trial,6392660.0,6394877.0,2217.0,52,L,6392756,6392876,122,988.3,660.9,4705,NA
11,2,binary,2,2,trial,6392660.0,6394877.0,2217.0,52,L,6392928,6393158,232,965.8,943.9,4491,likertHorizontal
11,2,binary,2,2,trial,6392660.0,6394877.0,2217.0,52,L,6393202,6393328,128,480.8,1065.6,4165,NA
11,2,binary,2,2,trial,6392660.0,6394877.0,2217.0,52,L,6393378,6393558,182,538.5,555.4,4279,left
11,2,binary,2,2,trial,6392660.0,6394877.0,2217.0,52,L,6393628,6393900,274,1484.9,611.2,3800,right
11,2,binary,2,2,trial,6392660.0,6394877.0,2217.0,52,L,6393926,6394078,154,1384.7,603.0,3507,right
11,2,binary,2,2,trial,6392660.0,6394877.0,2217.0,52,L,6394148,6394698,552,638.1,585.0,3473,left
11,2,binary,2,2,trial,6392660.0,6394877.0,2217.0,52,L,6394758,6395062,306,1414.4,851.7,3813,NA
11,2,binary,2,2,postResponse,6392660.0,6394877.0,2217.0,52,L,6395118,6395224,108,1031.7,465.4,4039,NA
11,2,binary,3,2,trial,6395610.0,6397327.0,1717.0,53,L,6395324,6395780,458,1032.0,468.1,3988,NA
11,2,binary,3,2,trial,6395610.0,6397327.0,1717.0,53,L,6395830,6395964,136,551.4,559.3,4021,left
11,2,binary,3,2,trial,6395610.0,6397327.0,1717.0,53,L,6396032,6396216,186,1481.8,591.2,3790,right
11,2,binary,3,2,trial,6395610.0,6397327.0,1717.0,53,L,6396240,6396810,572,1393.7,624.0,3670,right
11,2,binary,3,2,trial,6395610.0,6397327.0,1717.0,53,L,6396828,6397366,540,1445.6,540.8,3741,right
11,2,binary,3,2,trial,6395610.0,6397327.0,1717.0,53,L,6397440,6397592,154,531.1,531.6,3724,left
11,2,binary,4,2,fixationCross,6398043.0,6399511.0,1468.0,54,L,6397772,6397930,160,1253.7,510.1,3673,right
11,2,binary,4,2,trial,6398043.0,6399511.0,1468.0,54,L,6397974,6398182,210,854.7,485.4,3747,NA
11,2,binary,4,2,trial,6398043.0,6399511.0,1468.0,54,L,6398212,6398370,160,598.4,502.9,3767,left
11,2,binary,4,2,trial,6398043.0,6399511.0,1468.0,54,L,6398434,6398694,262,1405.3,577.8,3356,right
11,2,binary,4,2,trial,6398043.0,6399511.0,1468.0,54,L,6398716,6398970,256,1512.3,612.3,3218,right
11,2,binary,4,2,trial,6398043.0,6399511.0,1468.0,54,L,6399050,6399428,380,540.2,503.8,3320,left
11,2,binary,4,2,trial,6398043.0,6399511.0,1468.0,54,L,6399442,6399696,256,523.2,541.3,3280,left
11,2,binary,4,2,postResponse,6398043.0,6399511.0,1468.0,54,L,6399764,6399860,98,1244.9,429.3,3286,right
11,2,binary,5,2,trial,6400260.0,6401977.0,1717.0,55,L,6399958,6400444,488,1246.3,470.6,3536,right
11,2,binary,5,2,trial,6400260.0,6401977.0,1717.0,55,L,6400468,6400564,98,1280.5,558.5,3767,right
11,2,binary,5,2,trial,6400260.0,6401977.0,1717.0,55,L,6400626,6400842,218,525.9,522.8,3405,left
11,2,binary,5,2,trial,6400260.0,6401977.0,1717.0,55,L,6400916,6401288,374,1479.3,618.3,3206,right
11,2,binary,5,2,trial,6400260.0,6401977.0,1717.0,55,L,6401302,6401480,180,1522.0,633.0,3272,right
11,2,binary,5,2,trial,6400260.0,6401977.0,1717.0,55,L,6401514,6401948,436,1292.0,645.3,3583,right
11,2,binary,5,2,postResponse,6400260.0,6401977.0,1717.0,55,L,6401970,6402322,354,1360.5,594.3,3807,right
11,2,binary,6,1,trial,6402660.0,6404094.0,1434.0,56,L,6402400,6402862,464,1362.0,591.1,3781,right
11,2,binary,6,1,trial,6402660.0,6404094.0,1434.0,56,L,6402928,6403076,150,744.6,550.7,3907,NA
11,2,binary,6,1,trial,6402660.0,6404094.0,1434.0,56,L,6403098,6403294,198,578.8,537.4,3726,left
11,2,binary,6,1,trial,6402660.0,6404094.0,1434.0,56,L,6403360,6403662,304,1427.5,610.0,3474,right
11,2,binary,6,1,trial,6402660.0,6404094.0,1434.0,56,L,6403944,6404410,468,531.3,565.6,3702,left
11,2,binary,7,1,trial,6404794.0,6406010.0,1216.0,57,L,6404530,6404934,406,933.3,507.7,3644,NA
11,2,binary,7,1,trial,6404794.0,6406010.0,1216.0,57,L,6404976,6405170,196,597.2,528.6,3711,left
11,2,binary,7,1,trial,6404794.0,6406010.0,1216.0,57,L,6405190,6405462,274,482.3,508.8,3458,left
11,2,binary,7,1,trial,6404794.0,6406010.0,1216.0,57,L,6405552,6405954,404,1458.6,564.3,3231,right
11,2,binary,7,1,trial,6404794.0,6406010.0,1216.0,57,L,6405970,6406180,212,1409.1,519.0,3378,right
11,2,binary,7,1,postResponse,6404794.0,6406010.0,1216.0,57,L,6406230,6406358,130,1026.6,475.5,3486,NA
11,2,binary,8,1,fixationCross,6406744.0,6408260.0,1516.0,58,L,6406456,6406518,64,1023.2,480.5,3545,NA
11,2,binary,8,1,trial,6406744.0,6408260.0,1516.0,58,L,6406554,6406898,346,794.5,524.6,3715,NA
11,2,binary,8,1,trial,6406744.0,6408260.0,1516.0,58,L,6406936,6407126,192,486.3,523.4,3693,left
11,2,binary,8,1,trial,6406744.0,6408260.0,1516.0,58,L,6407210,6407402,194,1385.5,613.0,3326,right
11,2,binary,8,1,trial,6406744.0,6408260.0,1516.0,58,L,6407418,6407724,308,1413.1,647.4,3275,right
11,2,binary,8,1,trial,6406744.0,6408260.0,1516.0,58,L,6407802,6408118,318,492.5,496.6,3342,left
11,2,binary,8,1,trial,6406744.0,6408260.0,1516.0,58,L,6408128,6408374,248,501.9,519.5,3360,left
11,2,binary,9,1,trial,6408994.0,6410444.0,1450.0,59,L,6408758,6409194,438,1045.5,527.8,3739,NA
11,2,binary,9,1,trial,6408994.0,6410444.0,1450.0,59,L,6409250,6409482,234,461.0,540.7,3633,left
11,2,binary,9,1,trial,6408994.0,6410444.0,1450.0,59,L,6409554,6409852,300,1424.7,604.9,3188,right
11,2,binary,9,1,trial,6408994.0,6410444.0,1450.0,59,L,6409874,6410336,464,1365.4,567.9,3246,right
11,2,binary,9,1,postResponse,6408994.0,6410444.0,1450.0,59,L,6410408,6410786,380,504.7,520.9,3416,left
11,2,binary,10,1,fixationCross,6411127.0,6412561.0,1434.0,60,L,6410922,6411100,180,1022.2,467.3,3327,NA
11,2,binary,10,1,trial,6411127.0,6412561.0,1434.0,60,L,6411128,6411340,214,1205.1,492.6,3432,right
11,2,binary,10,1,trial,6411127.0,6412561.0,1434.0,60,L,6411364,6411592,230,1293.2,553.3,3569,right
11,2,binary,10,1,trial,6411127.0,6412561.0,1434.0,60,L,6411662,6411958,298,527.4,570.3,3488,left
11,2,binary,10,1,trial,6411127.0,6412561.0,1434.0,60,L,6411978,6412318,342,571.4,611.1,3346,left
11,2,binary,10,1,trial,6411127.0,6412561.0,1434.0,60,L,6412342,6412560,220,442.0,587.9,3361,left
11,2,binary,10,1,postResponse,6411127.0,6412561.0,1434.0,60,L,6412638,6412906,270,1329.0,558.7,3354,right
11,2,binary,11,1,fixationCross,6413227.0,6414811.0,1584.0,61,L,6413014,6413212,200,1018.4,511.7,3461,NA
11,2,binary,11,1,trial,6413227.0,6414811.0,1584.0,61,L,6413294,6413414,122,943.4,529.9,3654,NA
11,2,binary,11,1,trial,6413227.0,6414811.0,1584.0,61,L,6413458,6413644,188,552.1,522.0,3750,left
11,2,binary,11,1,trial,6413227.0,6414811.0,1584.0,61,L,6413732,6414190,460,1426.2,582.0,3385,right
11,2,binary,11,1,trial,6413227.0,6414811.0,1584.0,61,L,6414212,6414352,142,1356.5,527.0,3424,right
11,2,binary,11,1,trial,6413227.0,6414811.0,1584.0,61,L,6414424,6414804,382,523.1,493.3,3483,left
11,2,binary,11,1,postResponse,6413227.0,6414811.0,1584.0,61,L,6414816,6415144,330,519.9,522.9,3393,left
11,2,binary,12,2,trial,6415477.0,6417060.0,1583.0,62,L,6415428,6415636,210,1018.7,534.5,3721,NA
11,2,binary,12,2,trial,6415477.0,6417060.0,1583.0,62,L,6415688,6415902,216,561.1,571.9,3853,left
11,2,binary,12,2,trial,6415477.0,6417060.0,1583.0,62,L,6415972,6416218,248,1440.7,624.5,3408,right
11,2,binary,12,2,trial,6415477.0,6417060.0,1583.0,62,L,6416232,6416462,232,1507.1,586.1,3235,right
11,2,binary,12,2,trial,6415477.0,6417060.0,1583.0,62,L,6416484,6416602,120,1432.7,601.7,3310,right
11,2,binary,12,2,trial,6415477.0,6417060.0,1583.0,62,L,6416612,6416868,258,1441.9,625.8,3405,right
11,2,binary,12,2,trial,6415477.0,6417060.0,1583.0,62,L,6416936,6417236,302,573.5,550.7,3517,left
11,2,binary,13,2,trial,6417744.0,6419094.0,1350.0,63,L,6417502,6417820,320,1204.6,515.2,3461,right
11,2,binary,13,2,trial,6417744.0,6419094.0,1350.0,63,L,6417856,6417978,124,951.8,544.4,3811,NA
11,2,binary,13,2,trial,6417744.0,6419094.0,1350.0,63,L,6418022,6418298,278,564.1,585.6,3610,left
11,2,binary,13,2,trial,6417744.0,6419094.0,1350.0,63,L,6418368,6418540,174,1445.1,576.6,3428,right
11,2,binary,13,2,trial,6417744.0,6419094.0,1350.0,63,L,6418548,6418886,340,1440.9,570.2,3470,right
11,2,binary,13,2,trial,6417744.0,6419094.0,1350.0,63,L,6418912,6419048,138,1352.1,643.4,3708,right
11,2,binary,13,2,trial,6417744.0,6419094.0,1350.0,63,L,6419070,6419296,228,1255.5,634.4,3890,right
11,2,binary,14,2,fixationCross,6419777.0,6421094.0,1317.0,64,L,6419528,6419758,232,1308.4,553.9,3901,right
11,2,binary,14,2,trial,6419777.0,6421094.0,1317.0,64,L,6419822,6419972,152,775.1,590.8,4205,NA
11,2,binary,14,2,trial,6419777.0,6421094.0,1317.0,64,L,6419998,6420130,134,584.1,565.3,4090,left
11,2,binary,14,2,trial,6419777.0,6421094.0,1317.0,64,L,6420196,6420418,224,1445.4,571.9,3394,right
11,2,binary,14,2,trial,6419777.0,6421094.0,1317.0,64,L,6420432,6420878,448,1469.9,542.6,3184,right
11,2,binary,14,2,postResponse,6419777.0,6421094.0,1317.0,64,L,6420956,6421428,474,582.1,468.3,3392,left
11,2,binary,15,1,trial,6421811.0,6423394.0,1583.0,65,L,6421550,6421830,282,993.8,462.6,3434,NA
11,2,binary,15,1,trial,6421811.0,6423394.0,1583.0,65,L,6421846,6422002,158,1022.8,515.5,3646,NA
11,2,binary,15,1,trial,6421811.0,6423394.0,1583.0,65,L,6422050,6422282,234,1467.1,525.3,3566,right
11,2,binary,15,1,trial,6421811.0,6423394.0,1583.0,65,L,6422360,6422688,330,490.5,450.7,3229,left
11,2,binary,15,1,trial,6421811.0,6423394.0,1583.0,65,L,6422702,6423086,386,552.9,456.5,3215,left
11,2,binary,15,1,trial,6421811.0,6423394.0,1583.0,65,L,6423102,6423284,184,481.2,462.3,3283,left
11,2,binary,15,1,postResponse,6421811.0,6423394.0,1583.0,65,L,6423326,6423744,420,741.8,464.2,3270,NA
11,2,binary,16,2,fixationCross,6424094.0,6425244.0,1150.0,66,L,6423840,6423862,24,937.1,484.1,3330,NA
11,2,binary,16,2,fixationCross,6424094.0,6425244.0,1150.0,66,L,6423880,6424068,190,1086.6,504.5,3451,NA
11,2,binary,16,2,trial,6424094.0,6425244.0,1150.0,66,L,6424088,6424246,160,960.9,518.4,3606,NA
11,2,binary,16,2,trial,6424094.0,6425244.0,1150.0,66,L,6424292,6424426,136,557.0,490.7,3654,left
11,2,binary,16,2,trial,6424094.0,6425244.0,1150.0,66,L,6424448,6424652,206,457.0,475.0,3386,left
11,2,binary,16,2,trial,6424094.0,6425244.0,1150.0,66,L,6424724,6425028,306,1459.4,576.8,3007,right
11,2,binary,16,2,trial,6424094.0,6425244.0,1150.0,66,L,6425044,6425356,314,1521.8,552.7,3049,right
11,2,binary,16,2,trial,6424094.0,6425244.0,1150.0,66,L,6425372,6425416,46,1524.4,548.1,3099,right
11,2,binary,16,2,postResponse,6424094.0,6425244.0,1150.0,66,L,6425464,6425568,106,1525.7,545.3,3114,right
11,2,binary,17,2,fixationCross,6425944.0,6427295.0,1351.0,67,L,6425668,6425930,264,879.6,456.8,3385,NA
11,2,binary,17,2,trial,6425944.0,6427295.0,1351.0,67,L,6425952,6426132,182,751.7,495.7,3570,NA
11,2,binary,17,2,trial,6425944.0,6427295.0,1351.0,67,L,6426158,6426354,198,607.4,487.0,3498,left
11,2,binary,17,2,trial,6425944.0,6427295.0,1351.0,67,L,6426418,6426546,130,1361.4,524.2,3228,right
11,2,binary,17,2,trial,6425944.0,6427295.0,1351.0,67,L,6426674,6426866,194,1404.0,557.2,3182,right
11,2,binary,17,2,trial,6425944.0,6427295.0,1351.0,67,L,6426888,6427030,144,1484.8,589.0,3271,right
11,2,binary,17,2,trial,6425944.0,6427295.0,1351.0,67,L,6427052,6427118,68,1483.5,587.9,3333,right
11,2,binary,17,2,trial,6425944.0,6427295.0,1351.0,67,L,6427130,6427184,56,1479.8,601.5,3335,right
11,2,binary,17,2,trial,6425944.0,6427295.0,1351.0,67,L,6427208,6427264,58,1481.4,594.7,3304,right
11,2,binary,17,2,trial,6425944.0,6427295.0,1351.0,67,L,6427340,6427580,242,568.0,505.0,3370,left
11,2,binary,18,2,fixationCross,6428010.0,6429827.0,1817.0,68,L,6427826,6428002,178,1170.0,483.0,3479,NA
11,2,binary,18,2,trial,6428010.0,6429827.0,1817.0,68,L,6428048,6428216,170,919.7,499.2,3732,NA
11,2,binary,18,2,trial,6428010.0,6429827.0,1817.0,68,L,6428266,6428446,182,551.4,470.3,3735,left
11,2,binary,18,2,trial,6428010.0,6429827.0,1817.0,68,L,6428524,6428660,138,1406.1,593.0,3403,right
11,2,binary,18,2,trial,6428010.0,6429827.0,1817.0,68,L,6428674,6428940,268,1415.4,553.8,3287,right
11,2,binary,18,2,trial,6428010.0,6429827.0,1817.0,68,L,6428952,6429634,684,1410.6,534.7,3437,right
11,2,binary,18,2,trial,6428010.0,6429827.0,1817.0,68,L,6429648,6429812,166,1479.4,543.3,3693,right
11,2,binary,18,2,postResponse,6428010.0,6429827.0,1817.0,68,L,6429826,6430176,352,1519.9,557.1,3730,right
11,2,binary,19,2,fixationCross,6430528.0,6431877.0,1349.0,69,L,6430252,6430384,134,1090.5,493.8,3747,NA
11,2,binary,19,2,trial,6430528.0,6431877.0,1349.0,69,L,6430438,6430684,248,725.6,502.8,3778,left
11,2,binary,19,2,trial,6430528.0,6431877.0,1349.0,69,L,6430720,6431018,300,517.2,517.0,3538,left
11,2,binary,19,2,trial,6430528.0,6431877.0,1349.0,69,L,6431092,6431254,164,1457.9,555.7,3104,right
11,2,binary,19,2,postResponse,6430528.0,6431877.0,1349.0,69,L,6431298,6432226,930,1577.5,523.2,3176,right
11,2,binary,20,2,trial,6432561.0,6433944.0,1383.0,70,L,6432304,6432620,318,1434.6,473.5,3326,right
11,2,binary,20,2,trial,6432561.0,6433944.0,1383.0,70,L,6432656,6432792,138,1227.1,494.6,3547,right
11,2,binary,20,2,trial,6432561.0,6433944.0,1383.0,70,L,6432812,6432992,182,1302.4,539.4,3463,right
11,2,binary,20,2,trial,6432561.0,6433944.0,1383.0,70,L,6433050,6433256,208,691.9,492.4,3250,left
11,2,binary,20,2,trial,6432561.0,6433944.0,1383.0,70,L,6433282,6433650,370,531.0,516.2,3090,left
11,2,binary,20,2,trial,6432561.0,6433944.0,1383.0,70,L,6433672,6433848,178,424.6,570.8,3017,left
11,2,binary,20,2,trial,6432561.0,6433944.0,1383.0,70,L,6433920,6434168,250,1387.5,540.5,3057,right
11,2,binary,21,1,fixationCross,6434628.0,6435661.0,1033.0,71,L,6434366,6434450,86,1088.4,494.0,3331,NA
11,2,binary,21,1,trial,6434628.0,6435661.0,1033.0,71,L,6434488,6434774,288,838.1,505.4,3626,NA
11,2,binary,21,1,trial,6434628.0,6435661.0,1033.0,71,L,6434804,6435048,246,596.8,495.3,3552,left
11,2,binary,21,1,trial,6434628.0,6435661.0,1033.0,71,L,6435118,6435318,202,1463.7,538.0,3083,right
11,2,binary,21,1,trial,6434628.0,6435661.0,1033.0,71,L,6435342,6435604,264,1354.5,509.9,3097,right
11,2,binary,21,1,trial,6434628.0,6435661.0,1033.0,71,L,6435668,6435932,266,667.3,453.8,3263,left
11,2,binary,22,2,trial,6436311.0,6437928.0,1617.0,72,L,6436068,6436324,258,1057.8,506.9,3433,NA
11,2,binary,22,2,trial,6436311.0,6437928.0,1617.0,72,L,6436346,6436496,152,980.9,491.6,3682,NA
11,2,binary,22,2,trial,6436311.0,6437928.0,1617.0,72,L,6436546,6436714,170,1426.9,512.3,3541,right
11,2,binary,22,2,trial,6436311.0,6437928.0,1617.0,72,L,6436742,6436828,88,1435.0,533.3,3242,right
11,2,binary,22,2,trial,6436311.0,6437928.0,1617.0,72,L,6436900,6437326,428,570.2,562.2,3130,left
11,2,binary,22,2,trial,6436311.0,6437928.0,1617.0,72,L,6437392,6437788,398,1395.2,525.6,3050,right
11,2,binary,22,2,trial,6436311.0,6437928.0,1617.0,72,L,6437808,6438140,334,1442.5,494.1,3275,right
11,2,binary,23,2,trial,6438611.0,6439944.0,1333.0,73,L,6438438,6438772,336,739.7,512.8,3702,NA
11,2,binary,23,2,trial,6438611.0,6439944.0,1333.0,73,L,6438800,6438914,116,578.4,536.1,3872,left
11,2,binary,23,2,trial,6438611.0,6439944.0,1333.0,73,L,6438976,6439212,238,1408.1,588.0,3303,right
11,2,binary,23,2,trial,6438611.0,6439944.0,1333.0,73,L,6439228,6440260,1034,1355.9,572.4,3364,right
11,2,binary,24,1,trial,6440644.0,6441861.0,1217.0,74,L,6440390,6440644,256,702.0,507.2,3830,left
11,2,binary,24,1,trial,6440644.0,6441861.0,1217.0,74,L,6440668,6440818,152,874.5,500.5,3806,NA
11,2,binary,24,1,trial,6440644.0,6441861.0,1217.0,74,L,6440858,6441132,276,550.3,503.6,3538,left
11,2,binary,24,1,trial,6440644.0,6441861.0,1217.0,74,L,6441204,6441448,246,1392.8,496.4,3150,right
11,2,binary,24,1,trial,6440644.0,6441861.0,1217.0,74,L,6441466,6441820,356,1437.2,471.6,3038,right
11,2,binary,24,1,trial,6440644.0,6441861.0,1217.0,74,L,6441906,6442106,202,472.6,447.5,3188,left
11,2,binary,25,1,fixationCross,6442561.0,6444277.0,1716.0,75,L,6442338,6442494,158,1293.0,478.0,3073,right
11,2,binary,25,1,trial,6442561.0,6444277.0,1716.0,75,L,6442552,6442700,150,836.5,489.1,3432,NA
11,2,binary,25,1,trial,6442561.0,6444277.0,1716.0,75,L,6442742,6442942,202,541.2,502.7,3547,left
11,2,binary,25,1,trial,6442561.0,6444277.0,1716.0,75,L,6442962,6443184,224,604.0,508.3,3290,left
11,2,binary,25,1,trial,6442561.0,6444277.0,1716.0,75,L,6443208,6443558,352,494.4,451.6,3337,left
11,2,binary,25,1,trial,6442561.0,6444277.0,1716.0,75,L,6443572,6443680,110,481.4,426.3,3392,left
11,2,binary,25,1,trial,6442561.0,6444277.0,1716.0,75,L,6443810,6443924,116,1501.5,606.0,3326,right
11,2,binary,25,1,trial,6442561.0,6444277.0,1716.0,75,L,6443946,6444450,506,1570.6,571.4,3218,right
11,2,binary,26,2,fixationCross,6467894.0,6469928.0,2034.0,76,L,6467618,6467784,168,901.1,53.1,3326,NA
11,2,binary,26,2,trial,6467894.0,6469928.0,2034.0,76,L,6467842,6468058,218,962.1,569.6,3702,NA
11,2,binary,26,2,trial,6467894.0,6469928.0,2034.0,76,L,6468100,6468378,280,645.1,556.5,3579,left
11,2,binary,26,2,trial,6467894.0,6469928.0,2034.0,76,L,6468476,6468640,166,1443.0,585.0,3369,right
11,2,binary,26,2,trial,6467894.0,6469928.0,2034.0,76,L,6468738,6468806,70,1484.9,569.9,3433,right
11,2,binary,26,2,trial,6467894.0,6469928.0,2034.0,76,L,6468884,6469202,320,479.0,523.1,3675,left
11,2,binary,26,2,trial,6467894.0,6469928.0,2034.0,76,L,6469220,6469406,188,399.3,518.1,3583,left
11,2,binary,26,2,trial,6467894.0,6469928.0,2034.0,76,L,6469478,6469852,376,1396.8,573.4,3486,right
11,2,binary,26,2,trial,6467894.0,6469928.0,2034.0,76,L,6469868,6470174,308,1447.0,564.9,3705,right
11,2,binary,27,1,trial,6470611.0,6471528.0,917.0,77,L,6470402,6470772,372,747.8,507.1,3864,NA
11,2,binary,27,1,trial,6470611.0,6471528.0,917.0,77,L,6470806,6470986,182,576.7,533.2,3877,left
11,2,binary,27,1,trial,6470611.0,6471528.0,917.0,77,L,6471064,6471618,556,1418.1,575.3,3216,right
11,2,binary,28,2,fixationCross,6472211.0,6473461.0,1250.0,78,L,6471952,6472062,112,790.4,541.2,3501,NA
11,2,binary,28,2,trial,6472211.0,6473461.0,1250.0,78,L,6472088,6472474,388,677.8,521.2,3808,left
11,2,binary,28,2,trial,6472211.0,6473461.0,1250.0,78,L,6472492,6472652,162,607.4,501.1,3544,left
11,2,binary,28,2,trial,6472211.0,6473461.0,1250.0,78,L,6472722,6472982,262,1402.4,543.3,3186,right
11,2,binary,28,2,trial,6472211.0,6473461.0,1250.0,78,L,6473002,6473728,728,1469.0,539.4,3092,right
11,2,binary,29,1,fixationCross,6474195.0,6475394.0,1199.0,79,L,6473882,6473998,118,962.1,526.0,3313,NA
11,2,binary,29,1,trial,6474195.0,6475394.0,1199.0,79,L,6474030,6474442,414,701.9,542.0,3612,left
11,2,binary,29,1,trial,6474195.0,6475394.0,1199.0,79,L,6474460,6474602,144,599.3,587.9,3342,left
11,2,binary,29,1,trial,6474195.0,6475394.0,1199.0,79,L,6474666,6475002,338,1462.2,564.8,3081,right
11,2,binary,29,1,postResponse,6474195.0,6475394.0,1199.0,79,L,6475244,6475750,508,548.3,573.2,3422,left
11,2,binary,30,1,fixationCross,6476111.0,6477112.0,1001.0,80,L,6475850,6475974,126,725.8,498.2,3402,left
11,2,binary,30,1,trial,6476111.0,6477112.0,1001.0,80,L,6476002,6476276,276,939.3,523.7,3529,NA
11,2,binary,30,1,trial,6476111.0,6477112.0,1001.0,80,L,6476320,6476468,150,563.7,536.0,3667,left
11,2,binary,30,1,trial,6476111.0,6477112.0,1001.0,80,L,6476490,6476642,154,454.8,572.7,3462,left
11,2,binary,30,1,trial,6476111.0,6477112.0,1001.0,80,L,6476718,6477072,356,1473.3,608.8,3248,right
11,2,binary,30,1,postResponse,6476111.0,6477112.0,1001.0,80,L,6477430,6477458,30,591.2,574.3,3432,left
11,2,binary,31,2,fixationCross,6477795.0,6478795.0,1000.0,81,L,6477532,6477634,104,593.3,580.9,3504,left
11,2,binary,31,2,trial,6477795.0,6478795.0,1000.0,81,L,6477652,6477986,336,614.7,513.6,3703,left
11,2,binary,31,2,trial,6477795.0,6478795.0,1000.0,81,L,6478002,6478158,158,546.6,536.7,3586,left
11,2,binary,31,2,trial,6477795.0,6478795.0,1000.0,81,L,6478222,6478574,354,1368.1,571.9,3339,right
11,2,binary,31,2,postResponse,6477795.0,6478795.0,1000.0,81,L,6478596,6479130,536,1435.7,515.2,3324,right
11,2,binary,32,2,trial,6479479.0,6480445.0,966.0,82,L,6479206,6479680,476,1431.3,520.1,3557,right
11,2,binary,32,2,trial,6479479.0,6480445.0,966.0,82,L,6479702,6479866,166,1470.5,570.4,3631,right
11,2,binary,32,2,trial,6479479.0,6480445.0,966.0,82,L,6479936,6480360,426,1489.3,613.9,3308,right
11,2,binary,32,2,trial,6479479.0,6480445.0,966.0,82,L,6480436,6480554,120,630.8,543.5,3428,left
11,2,binary,33,1,fixationCross,6481145.0,6482795.0,1650.0,83,L,6480872,6481100,230,639.2,528.5,3749,left
11,2,binary,33,1,trial,6481145.0,6482795.0,1650.0,83,L,6481120,6481316,198,774.6,551.9,3989,NA
11,2,binary,33,1,trial,6481145.0,6482795.0,1650.0,83,L,6481350,6481482,134,524.8,534.6,3760,left
11,2,binary,33,1,trial,6481145.0,6482795.0,1650.0,83,L,6481608,6481724,118,1456.5,563.7,3155,right
11,2,binary,33,1,trial,6481145.0,6482795.0,1650.0,83,L,6481746,6482092,348,1460.7,498.8,2997,right
11,2,binary,33,1,trial,6481145.0,6482795.0,1650.0,83,L,6482170,6482404,236,423.1,531.8,3166,left
11,2,binary,33,1,trial,6481145.0,6482795.0,1650.0,83,L,6482420,6482960,542,486.7,531.6,3123,left
11,2,binary,34,2,fixationCross,6483511.0,6484495.0,984.0,84,L,6483236,6483326,92,949.7,498.2,3317,NA
11,2,binary,34,2,trial,6483511.0,6484495.0,984.0,84,L,6483350,6483668,320,797.5,510.4,3629,NA
11,2,binary,34,2,trial,6483511.0,6484495.0,984.0,84,L,6483698,6483916,220,589.9,484.5,3585,left
11,2,binary,34,2,trial,6483511.0,6484495.0,984.0,84,L,6483940,6484022,84,445.7,498.1,3313,left
11,2,binary,34,2,trial,6483511.0,6484495.0,984.0,84,L,6484098,6484388,292,1495.1,523.2,3171,right
11,2,binary,34,2,trial,6483511.0,6484495.0,984.0,84,L,6484400,6484762,364,1477.9,496.2,3173,right
11,2,binary,35,1,trial,6485178.0,6486778.0,1600.0,85,L,6484922,6485328,408,791.2,498.4,3648,NA
11,2,binary,35,1,trial,6485178.0,6486778.0,1600.0,85,L,6485368,6485558,192,525.7,496.9,3784,left
11,2,binary,35,1,trial,6485178.0,6486778.0,1600.0,85,L,6485634,6485792,160,1453.5,562.3,3379,right
11,2,binary,35,1,trial,6485178.0,6486778.0,1600.0,85,L,6485842,6486150,310,1455.9,564.0,3304,right
11,2,binary,35,1,trial,6485178.0,6486778.0,1600.0,85,L,6486198,6486314,118,1504.4,585.6,3428,right
11,2,binary,35,1,trial,6485178.0,6486778.0,1600.0,85,L,6486394,6486876,484,464.2,490.3,3563,left
11,2,binary,36,1,fixationCross,6487495.0,6488711.0,1216.0,86,L,6487230,6487376,148,1058.7,506.1,3556,NA
11,2,binary,36,1,trial,6487495.0,6488711.0,1216.0,86,L,6487402,6487632,232,868.7,505.2,3866,NA
11,2,binary,36,1,trial,6487495.0,6488711.0,1216.0,86,L,6487670,6487854,186,606.3,519.5,3793,left
11,2,binary,36,1,trial,6487495.0,6488711.0,1216.0,86,L,6487922,6488230,310,1440.4,538.8,3200,right
11,2,binary,36,1,trial,6487495.0,6488711.0,1216.0,86,L,6488304,6488540,238,628.9,619.2,3268,left
11,2,binary,36,1,trial,6487495.0,6488711.0,1216.0,86,L,6488560,6488700,142,535.6,600.2,3316,left
11,2,binary,36,1,trial,6487495.0,6488711.0,1216.0,86,L,6488764,6488980,218,1330.1,515.5,3207,right
11,2,binary,37,2,fixationCross,6489395.0,6490578.0,1183.0,87,L,6489132,6489374,244,873.1,485.8,3578,NA
11,2,binary,37,2,trial,6489395.0,6490578.0,1183.0,87,L,6489396,6489568,174,720.3,509.2,3795,left
11,2,binary,37,2,trial,6489395.0,6490578.0,1183.0,87,L,6489596,6489712,118,544.7,527.1,3721,left
11,2,binary,37,2,trial,6489395.0,6490578.0,1183.0,87,L,6489776,6490018,244,1391.3,573.0,3158,right
11,2,binary,37,2,trial,6489395.0,6490578.0,1183.0,87,L,6490038,6490166,130,1475.8,621.7,2969,right
11,2,binary,37,2,trial,6489395.0,6490578.0,1183.0,87,L,6490204,6490448,246,1326.4,407.7,3045,right
11,2,binary,37,2,trial,6489395.0,6490578.0,1183.0,87,L,6490518,6490686,170,471.0,516.1,3118,left
11,2,binary,38,2,fixationCross,6491245.0,6492979.0,1734.0,88,L,6490990,6491162,174,1144.0,476.5,3088,NA
11,2,binary,38,2,trial,6491245.0,6492979.0,1734.0,88,L,6491190,6491396,208,926.5,497.8,3407,NA
11,2,binary,38,2,trial,6491245.0,6492979.0,1734.0,88,L,6491430,6491764,336,618.3,498.7,3368,left
11,2,binary,38,2,trial,6491245.0,6492979.0,1734.0,88,L,6491786,6491998,214,525.2,490.0,3244,left
11,2,binary,38,2,trial,6491245.0,6492979.0,1734.0,88,L,6492064,6492256,194,1336.2,532.2,3349,right
11,2,binary,38,2,trial,6491245.0,6492979.0,1734.0,88,L,6492292,6492540,250,1414.1,555.8,3460,right
11,2,binary,38,2,postResponse,6491245.0,6492979.0,1734.0,88,L,6492552,6493326,776,1445.1,544.9,3630,right
11,2,binary,39,1,trial,6493662.0,6495328.0,1666.0,89,L,6493484,6493666,184,991.5,525.8,3730,NA
11,2,binary,39,1,trial,6493662.0,6495328.0,1666.0,89,L,6493702,6493884,184,735.8,512.3,3928,left
11,2,binary,39,1,trial,6493662.0,6495328.0,1666.0,89,L,6493902,6494056,156,675.3,534.7,3790,left
11,2,binary,39,1,trial,6493662.0,6495328.0,1666.0,89,L,6494086,6494220,136,415.3,468.6,3331,left
11,2,binary,39,1,trial,6493662.0,6495328.0,1666.0,89,L,6494290,6494496,208,1477.3,499.6,2929,right
11,2,binary,39,1,trial,6493662.0,6495328.0,1666.0,89,L,6494510,6494698,190,1454.2,475.7,2922,right
11,2,binary,39,1,trial,6493662.0,6495328.0,1666.0,89,L,6494780,6495160,382,349.5,458.7,3313,left
11,2,binary,39,1,trial,6493662.0,6495328.0,1666.0,89,L,6495196,6495368,174,618.7,543.5,3207,left
11,2,binary,39,1,postResponse,6493662.0,6495328.0,1666.0,89,L,6495626,6495670,46,523.8,499.2,3198,left
11,2,binary,40,2,fixationCross,6496495.0,6497595.0,1100.0,90,L,6496232,6496472,242,705.1,496.8,3710,left
11,2,binary,40,2,trial,6496495.0,6497595.0,1100.0,90,L,6496504,6496654,152,834.0,481.7,3561,NA
11,2,binary,40,2,trial,6496495.0,6497595.0,1100.0,90,L,6496690,6496890,202,552.4,475.8,3411,left
11,2,binary,40,2,trial,6496495.0,6497595.0,1100.0,90,L,6496902,6496972,72,510.2,499.4,3247,left
11,2,binary,40,2,trial,6496495.0,6497595.0,1100.0,90,L,6497042,6497794,754,1444.4,491.0,3085,right
11,2,binary,41,2,fixationCross,6498295.0,6499412.0,1117.0,91,L,6498016,6498204,190,1435.5,495.4,3099,right
11,2,binary,41,2,trial,6498295.0,6499412.0,1117.0,91,L,6498282,6498604,324,683.5,480.6,3592,left
11,2,binary,41,2,trial,6498295.0,6499412.0,1117.0,91,L,6498672,6498764,94,1551.0,539.9,3062,right
11,2,binary,41,2,trial,6498295.0,6499412.0,1117.0,91,L,6498784,6498836,54,1553.2,545.6,2951,right
11,2,binary,41,2,trial,6498295.0,6499412.0,1117.0,91,L,6498858,6499336,480,1470.4,543.9,2992,right
11,2,binary,41,2,trial,6498295.0,6499412.0,1117.0,91,L,6499418,6499580,164,585.6,438.3,3196,left
11,2,binary,42,1,trial,6500095.0,6501512.0,1417.0,92,L,6499832,6500290,460,674.9,478.1,3542,left
11,2,binary,42,1,trial,6500095.0,6501512.0,1417.0,92,L,6500308,6500378,72,613.1,497.4,3547,left
11,2,binary,42,1,trial,6500095.0,6501512.0,1417.0,92,L,6500444,6500668,226,1428.3,470.9,3179,right
11,2,binary,42,1,trial,6500095.0,6501512.0,1417.0,92,L,6500684,6500838,156,1423.9,418.4,3105,right
11,2,binary,42,1,trial,6500095.0,6501512.0,1417.0,92,L,6500906,6501144,240,658.8,466.2,3256,left
11,2,binary,42,1,trial,6500095.0,6501512.0,1417.0,92,L,6501168,6501692,526,543.9,515.3,3317,left
11,2,binary,43,1,trial,6502195.0,6503445.0,1250.0,93,L,6501944,6502376,434,1221.4,513.2,3422,right
11,2,binary,43,1,trial,6502195.0,6503445.0,1250.0,93,L,6502440,6502668,230,512.0,553.9,3480,left
11,2,binary,43,1,trial,6502195.0,6503445.0,1250.0,93,L,6502688,6502972,286,444.5,586.3,3061,left
11,2,binary,43,1,trial,6502195.0,6503445.0,1250.0,93,L,6503050,6503606,558,1439.2,543.2,3088,right
11,2,binary,44,2,fixationCross,6504178.0,6505412.0,1234.0,94,L,6503894,6503978,86,772.5,506.1,3585,NA
11,2,binary,44,2,trial,6504178.0,6505412.0,1234.0,94,L,6504004,6504558,556,630.1,487.2,3720,left
11,2,binary,44,2,trial,6504178.0,6505412.0,1234.0,94,L,6504624,6505300,678,1417.8,502.1,3144,right
11,2,binary,44,2,trial,6504178.0,6505412.0,1234.0,94,L,6505326,6505396,72,1436.9,576.0,3395,right
11,2,binary,44,2,trial,6504178.0,6505412.0,1234.0,94,L,6505412,6505632,222,1437.5,577.1,3444,right
11,2,binary,44,2,trial,6504178.0,6505412.0,1234.0,94,L,6505640,6505680,42,1444.5,572.4,3459,right
11,2,binary,45,1,fixationCross,6506129.0,6507412.0,1283.0,95,L,6505856,6505894,40,975.6,499.6,3534,NA
11,2,binary,45,1,fixationCross,6506129.0,6507412.0,1283.0,95,L,6505918,6506090,174,1092.9,528.5,3592,NA
11,2,binary,45,1,trial,6506129.0,6507412.0,1283.0,95,L,6506122,6506298,178,1322.7,545.5,3643,right
11,2,binary,45,1,trial,6506129.0,6507412.0,1283.0,95,L,6506322,6506510,190,1451.9,557.4,3601,right
11,2,binary,45,1,trial,6506129.0,6507412.0,1283.0,95,L,6506586,6506860,276,509.0,519.5,3320,left
11,2,binary,45,1,trial,6506129.0,6507412.0,1283.0,95,L,6506880,6507396,518,600.4,532.6,3231,left
11,2,binary,45,1,trial,6506129.0,6507412.0,1283.0,95,L,6507410,6507526,118,647.6,495.8,3321,left
11,2,binary,45,1,postResponse,6506129.0,6507412.0,1283.0,95,L,6507738,6507766,30,641.8,467.3,3345,left
11,2,binary,46,2,trial,6508128.0,6509628.0,1500.0,96,L,6507868,6508354,488,642.4,480.5,3653,left
11,2,binary,46,2,trial,6508128.0,6509628.0,1500.0,96,L,6508372,6508426,56,702.4,494.6,3629,left
11,2,binary,46,2,trial,6508128.0,6509628.0,1500.0,96,L,6508458,6508686,230,549.7,493.1,3232,left
11,2,binary,46,2,trial,6508128.0,6509628.0,1500.0,96,L,6508764,6509072,310,1456.8,559.5,2994,right
11,2,binary,46,2,trial,6508128.0,6509628.0,1500.0,96,L,6509084,6509378,296,1488.7,585.7,3198,right
11,2,binary,46,2,trial,6508128.0,6509628.0,1500.0,96,L,6509424,6509864,442,1385.1,606.3,3632,right
11,2,binary,46,2,postResponse,6508128.0,6509628.0,1500.0,96,L,6509910,6509976,68,1448.0,548.7,3604,right
11,2,binary,47,2,fixationCross,6510328.0,6512262.0,1934.0,97,L,6510052,6510184,134,1453.2,552.5,3556,right
11,2,binary,47,2,trial,6510328.0,6512262.0,1934.0,97,L,6510194,6510540,348,1450.4,551.7,3674,right
11,2,binary,47,2,trial,6510328.0,6512262.0,1934.0,97,L,6510562,6510704,144,1350.2,580.4,3620,right
11,2,binary,47,2,trial,6510328.0,6512262.0,1934.0,97,L,6510940,6511122,184,546.3,482.7,3467,left
11,2,binary,47,2,trial,6510328.0,6512262.0,1934.0,97,L,6511194,6511396,204,1492.4,539.9,3623,right
11,2,binary,47,2,postResponse,6510328.0,6512262.0,1934.0,97,L,6511424,6512608,1186,1365.2,600.2,3624,right
11,2,binary,48,2,trial,6512945.0,6513962.0,1017.0,98,L,6512708,6512970,264,781.1,529.7,3905,NA
11,2,binary,48,2,trial,6512945.0,6513962.0,1017.0,98,L,6512994,6513112,120,768.7,513.2,3989,NA
11,2,binary,48,2,trial,6512945.0,6513962.0,1017.0,98,L,6513144,6513342,200,589.8,490.5,3763,left
11,2,binary,48,2,trial,6512945.0,6513962.0,1017.0,98,L,6513412,6513634,224,1407.3,629.1,3316,right
11,2,binary,48,2,trial,6512945.0,6513962.0,1017.0,98,L,6513650,6513828,180,1469.1,637.4,3217,right
11,2,binary,48,2,trial,6512945.0,6513962.0,1017.0,98,L,6513842,6514152,312,1482.5,670.2,3335,right
11,2,binary,49,1,fixationCross,6514645.0,6515829.0,1184.0,99,L,6514384,6514578,196,983.7,497.9,3512,NA
11,2,binary,49,1,trial,6514645.0,6515829.0,1184.0,99,L,6514600,6514804,206,877.1,499.4,3719,NA
11,2,binary,49,1,trial,6514645.0,6515829.0,1184.0,99,L,6514846,6515200,356,526.1,519.2,3398,left
11,2,binary,49,1,trial,6514645.0,6515829.0,1184.0,99,L,6515218,6515374,158,444.9,520.3,3187,left
11,2,binary,49,1,trial,6514645.0,6515829.0,1184.0,99,L,6515442,6515614,174,1360.8,513.8,3119,right
11,2,binary,49,1,trial,6514645.0,6515829.0,1184.0,99,L,6515626,6515852,228,1402.0,479.3,3039,right
11,2,binary,49,1,trial,6514645.0,6515829.0,1184.0,99,L,6515924,6516080,158,530.9,512.8,2892,left
11,2,binary,50,2,fixationCross,6516545.0,6517696.0,1151.0,100,L,6516276,6516336,62,827.7,504.3,3025,NA
11,2,binary,50,2,trial,6516545.0,6517696.0,1151.0,100,L,6516376,6516742,368,500.7,488.3,3328,left
11,2,binary,50,2,trial,6516545.0,6517696.0,1151.0,100,L,6516778,6516890,114,703.1,503.6,3447,left
11,2,binary,50,2,trial,6516545.0,6517696.0,1151.0,100,L,6516952,6517250,300,1405.4,558.3,3095,right
11,2,binary,50,2,trial,6516545.0,6517696.0,1151.0,100,L,6517274,6517662,390,1291.6,604.4,3105,right
11,2,binary,50,2,postResponse,6516545.0,6517696.0,1151.0,100,L,6517920,6518036,118,1271.9,569.6,3100,right
11,3,valuation,1,6,trial,6580446.0,6582546.0,2100.0,101,L,6580187,6580583,398,952.3,543.3,3976,NA
11,3,valuation,1,6,trial,6580446.0,6582546.0,2100.0,101,L,6580625,6580739,116,1303.3,519.7,3813,right
11,3,valuation,1,6,trial,6580446.0,6582546.0,2100.0,101,L,6580805,6580943,140,535.1,481.8,3805,likertVertical
11,3,valuation,1,6,trial,6580446.0,6582546.0,2100.0,101,L,6580983,6581375,394,590.2,272.6,3722,likertVertical
11,3,valuation,1,6,trial,6580446.0,6582546.0,2100.0,101,L,6581405,6581543,140,520.1,434.5,3759,likertVertical
11,3,valuation,1,6,trial,6580446.0,6582546.0,2100.0,101,L,6581575,6581653,80,595.1,290.0,3869,likertVertical
11,3,valuation,1,6,trial,6580446.0,6582546.0,2100.0,101,L,6581723,6582021,300,1486.5,514.6,4053,right
11,3,valuation,1,6,trial,6580446.0,6582546.0,2100.0,101,L,6582045,6582159,116,1491.4,597.4,3788,right
11,3,valuation,1,6,trial,6580446.0,6582546.0,2100.0,101,L,6582233,6582789,558,539.0,356.6,3742,likertVertical
11,3,valuation,1,6,postResponse,6580446.0,6582546.0,2100.0,101,L,6582839,6582899,62,968.6,378.4,3931,NA
11,3,valuation,2,5,fixationCross,6583229.0,6585963.0,2734.0,102,L,6582999,6583049,52,970.7,377.7,3975,NA
11,3,valuation,2,5,trial,6583229.0,6585963.0,2734.0,102,L,6583091,6583373,284,726.2,355.3,4012,likertVertical
11,3,valuation,2,5,trial,6583229.0,6585963.0,2734.0,102,L,6583437,6583627,192,1396.2,503.6,3904,right
11,3,valuation,2,5,trial,6583229.0,6585963.0,2734.0,102,L,6583653,6583895,244,1440.0,610.9,3684,right
11,3,valuation,2,5,trial,6583229.0,6585963.0,2734.0,102,L,6583909,6584173,266,1496.9,590.6,3606,right
11,3,valuation,2,5,trial,6583229.0,6585963.0,2734.0,102,L,6584245,6584463,220,603.6,314.3,3683,likertVertical
11,3,valuation,2,5,trial,6583229.0,6585963.0,2734.0,102,L,6584491,6584999,510,528.5,478.3,3761,likertVertical
11,3,valuation,2,5,trial,6583229.0,6585963.0,2734.0,102,L,6585013,6585225,214,511.4,455.2,3881,likertVertical
11,3,valuation,2,5,trial,6583229.0,6585963.0,2734.0,102,L,6585305,6585421,118,1499.0,569.1,3910,right
11,3,valuation,2,5,trial,6583229.0,6585963.0,2734.0,102,L,6585535,6585703,170,1471.4,575.2,3675,right
11,3,valuation,2,5,trial,6583229.0,6585963.0,2734.0,102,L,6585779,6586137,360,536.4,414.5,3857,likertVertical
11,3,valuation,2,5,postResponse,6583229.0,6585963.0,2734.0,102,L,6586205,6586321,118,1225.9,377.6,3807,right
11,3,valuation,3,3,trial,6586663.0,6588096.0,1433.0,103,L,6586461,6586665,206,621.0,387.3,3990,likertVertical
11,3,valuation,3,3,trial,6586663.0,6588096.0,1433.0,103,L,6586715,6586859,146,993.9,411.2,4153,NA
11,3,valuation,3,3,trial,6586663.0,6588096.0,1433.0,103,L,6586905,6587047,144,1388.6,521.5,4021,right
11,3,valuation,3,3,trial,6586663.0,6588096.0,1433.0,103,L,6587073,6587217,146,1528.4,492.0,3922,right
11,3,valuation,3,3,trial,6586663.0,6588096.0,1433.0,103,L,6587295,6587687,394,539.7,558.4,3855,likertVertical
11,3,valuation,3,3,trial,6586663.0,6588096.0,1433.0,103,L,6587705,6588037,334,527.2,646.0,4109,likertVertical
11,3,valuation,3,3,postResponse,6586663.0,6588096.0,1433.0,103,L,6588115,6588441,328,1491.4,490.0,4045,right
11,3,valuation,4,5,trial,6588746.0,6590496.0,1750.0,104,L,6588559,6588761,204,587.6,378.5,3866,likertVertical
11,3,valuation,4,5,trial,6588746.0,6590496.0,1750.0,104,L,6588835,6588983,150,1295.1,488.6,3920,right
11,3,valuation,4,5,trial,6588746.0,6590496.0,1750.0,104,L,6589009,6589163,156,1373.4,529.4,3879,right
11,3,valuation,4,5,trial,6588746.0,6590496.0,1750.0,104,L,6589175,6589239,66,1384.8,553.3,3778,right
11,3,valuation,4,5,trial,6588746.0,6590496.0,1750.0,104,L,6589305,6589467,164,580.3,501.0,3802,likertVertical
11,3,valuation,4,5,trial,6588746.0,6590496.0,1750.0,104,L,6589487,6590317,832,531.7,458.0,3749,likertVertical
11,3,valuation,4,5,trial,6588746.0,6590496.0,1750.0,104,L,6590347,6590677,332,613.4,340.0,3867,likertVertical
11,3,valuation,5,5,fixationCross,6591180.0,6592830.0,1650.0,105,L,6590923,6591019,98,1358.8,506.5,3743,right
11,3,valuation,5,5,trial,6591180.0,6592830.0,1650.0,105,L,6591041,6591349,310,1274.0,500.1,3913,right
11,3,valuation,5,5,trial,6591180.0,6592830.0,1650.0,105,L,6591371,6591517,148,1344.3,524.6,3946,right
11,3,valuation,5,5,trial,6591180.0,6592830.0,1650.0,105,L,6591541,6591915,376,1492.4,475.9,3469,right
11,3,valuation,5,5,trial,6591180.0,6592830.0,1650.0,105,L,6591991,6592149,160,581.4,448.3,3327,likertVertical
11,3,valuation,5,5,trial,6591180.0,6592830.0,1650.0,105,L,6592159,6593009,852,549.7,448.1,3660,likertVertical
11,3,valuation,6,3,fixationCross,6593479.0,6596413.0,2934.0,106,L,6593241,6593391,152,1520.7,452.5,3757,right
11,3,valuation,6,3,trial,6593479.0,6596413.0,2934.0,106,L,6593419,6593649,232,1351.1,511.3,3951,right
11,3,valuation,6,3,trial,6593479.0,6596413.0,2934.0,106,L,6593665,6593829,166,1396.9,477.1,3969,right
11,3,valuation,6,3,trial,6593479.0,6596413.0,2934.0,106,L,6593843,6595535,1694,1422.1,433.5,3444,right
11,3,valuation,6,3,trial,6593479.0,6596413.0,2934.0,106,L,6595743,6596073,332,1419.8,478.0,3587,right
11,3,valuation,6,3,trial,6593479.0,6596413.0,2934.0,106,L,6596149,6596427,280,589.3,565.2,3672,likertVertical
11,3,valuation,6,3,postResponse,6593479.0,6596413.0,2934.0,106,L,6596487,6596759,274,1331.0,457.0,3477,right
11,3,valuation,7,2,fixationCross,6597080.0,6598763.0,1683.0,107,L,6596833,6596859,28,1327.4,462.7,3592,right
11,3,valuation,7,2,trial,6597080.0,6598763.0,1683.0,107,L,6596873,6597249,378,1397.9,463.3,3755,right
11,3,valuation,7,2,trial,6597080.0,6598763.0,1683.0,107,L,6597273,6597431,160,1414.0,562.3,3782,right
11,3,valuation,7,2,trial,6597080.0,6598763.0,1683.0,107,L,6597453,6597611,160,1509.3,565.4,3423,right
11,3,valuation,7,2,trial,6597080.0,6598763.0,1683.0,107,L,6597689,6597837,150,628.7,526.3,3358,likertVertical
11,3,valuation,7,2,trial,6597080.0,6598763.0,1683.0,107,L,6597859,6598663,806,552.4,613.6,3680,likertVertical
11,3,valuation,7,2,trial,6597080.0,6598763.0,1683.0,107,L,6598741,6598993,254,1465.8,579.7,3611,right
11,3,valuation,8,3,trial,6599463.0,6600829.0,1366.0,108,L,6599203,6599465,264,1399.7,411.2,3581,right
11,3,valuation,8,3,trial,6599463.0,6600829.0,1366.0,108,L,6599489,6599673,186,1459.5,499.5,3851,right
11,3,valuation,8,3,trial,6599463.0,6600829.0,1366.0,108,L,6599705,6599971,268,1424.4,627.0,3619,right
11,3,valuation,8,3,trial,6599463.0,6600829.0,1366.0,108,L,6600045,6600697,654,557.9,571.5,3541,likertVertical
11,3,valuation,8,3,trial,6599463.0,6600829.0,1366.0,108,L,6600783,6601117,336,1533.3,622.0,3741,right
11,3,valuation,9,3,trial,6601480.0,6602929.0,1449.0,109,L,6601237,6601481,246,1380.9,449.9,3662,right
11,3,valuation,9,3,trial,6601480.0,6602929.0,1449.0,109,L,6601501,6601661,162,1324.7,528.9,3897,right
11,3,valuation,9,3,trial,6601480.0,6602929.0,1449.0,109,L,6601689,6601995,308,1461.5,502.0,3824,right
11,3,valuation,9,3,trial,6601480.0,6602929.0,1449.0,109,L,6602075,6602613,540,568.3,507.8,3600,likertVertical
11,3,valuation,9,3,postResponse,6601480.0,6602929.0,1449.0,109,L,6602687,6603273,588,1477.4,485.8,3657,right
11,3,valuation,10,2,fixationCross,6603580.0,6606080.0,2500.0,110,L,6603347,6603483,138,1476.7,480.5,3539,right
11,3,valuation,10,2,trial,6603580.0,6606080.0,2500.0,110,L,6603493,6604453,962,1476.5,471.5,3546,right
11,3,valuation,10,2,trial,6603580.0,6606080.0,2500.0,110,L,6604563,6604969,408,1458.2,479.1,3602,right
11,3,valuation,10,2,trial,6603580.0,6606080.0,2500.0,110,L,6605053,6605237,186,613.8,611.8,3602,likertVertical
11,3,valuation,10,2,trial,6603580.0,6606080.0,2500.0,110,L,6605289,6605513,226,613.1,610.6,3552,likertVertical
11,3,valuation,10,2,trial,6603580.0,6606080.0,2500.0,110,L,6605533,6605931,400,541.2,629.0,3719,likertVertical
11,3,valuation,10,2,trial,6603580.0,6606080.0,2500.0,110,L,6605961,6606285,326,654.6,770.4,4041,likertVertical
11,3,valuation,11,1,fixationCross,6606747.0,6608746.0,1999.0,111,L,6606515,6606581,68,1378.9,457.0,3984,right
11,3,valuation,11,1,trial,6606747.0,6608746.0,1999.0,111,L,6606609,6606879,272,1164.0,466.8,4080,NA
11,3,valuation,11,1,trial,6606747.0,6608746.0,1999.0,111,L,6606913,6607045,134,1415.1,501.4,4148,right
11,3,valuation,11,1,trial,6606747.0,6608746.0,1999.0,111,L,6607065,6607413,350,1482.9,481.6,3664,right
11,3,valuation,11,1,trial,6606747.0,6608746.0,1999.0,111,L,6607491,6608609,1120,563.6,736.1,3909,likertVertical
11,3,valuation,11,1,trial,6606747.0,6608746.0,1999.0,111,L,6608635,6608763,130,690.4,793.2,4234,likertVertical
11,3,valuation,11,1,postResponse,6606747.0,6608746.0,1999.0,111,L,6608831,6609093,264,1413.1,498.4,4218,right
11,3,valuation,12,3,fixationCross,6609413.0,6610547.0,1134.0,112,L,6609167,6609331,166,1416.2,499.6,4059,right
11,3,valuation,12,3,trial,6609413.0,6610547.0,1134.0,112,L,6609349,6609675,328,1360.6,480.1,4070,right
11,3,valuation,12,3,trial,6609413.0,6610547.0,1134.0,112,L,6609697,6609899,204,1423.2,534.6,4026,right
11,3,valuation,12,3,trial,6609413.0,6610547.0,1134.0,112,L,6609973,6610521,550,580.2,624.6,3959,likertVertical
11,3,valuation,12,3,postResponse,6609413.0,6610547.0,1134.0,112,L,6610595,6610891,298,1488.4,461.1,3844,right
11,3,valuation,13,3,trial,6611213.0,6612747.0,1534.0,113,L,6610965,6611413,450,1493.3,468.1,3797,right
11,3,valuation,13,3,trial,6611213.0,6612747.0,1534.0,113,L,6611427,6611669,244,1500.4,515.8,3740,right
11,3,valuation,13,3,trial,6611213.0,6612747.0,1534.0,113,L,6611683,6611845,164,1515.3,549.1,3609,right
11,3,valuation,13,3,trial,6611213.0,6612747.0,1534.0,113,L,6611925,6612299,376,586.3,553.3,3708,likertVertical
11,3,valuation,13,3,trial,6611213.0,6612747.0,1534.0,113,L,6612319,6612569,252,557.1,594.1,3727,likertVertical
11,3,valuation,13,3,trial,6611213.0,6612747.0,1534.0,113,L,6612647,6612945,300,1522.4,527.4,3681,right
11,3,valuation,14,4,trial,6613413.0,6614479.0,1066.0,114,L,6613171,6613739,570,1461.2,489.5,3690,right
11,3,valuation,14,4,trial,6613413.0,6614479.0,1066.0,114,L,6613761,6613991,232,1396.1,480.5,3530,right
11,3,valuation,14,4,trial,6613413.0,6614479.0,1066.0,114,L,6614073,6614325,254,517.1,510.8,3494,likertVertical
11,3,valuation,14,4,postResponse,6613413.0,6614479.0,1066.0,114,L,6614399,6614817,420,1438.5,471.0,3563,right
11,3,valuation,15,3,trial,6615196.0,6616213.0,1017.0,115,L,6614917,6615407,492,1453.3,466.6,3538,right
11,3,valuation,15,3,trial,6615196.0,6616213.0,1017.0,115,L,6615429,6615651,224,1562.4,422.8,3465,right
11,3,valuation,15,3,trial,6615196.0,6616213.0,1017.0,115,L,6615743,6616087,346,555.6,589.2,3163,likertVertical
11,3,valuation,15,3,postResponse,6615196.0,6616213.0,1017.0,115,L,6616171,6616557,388,1562.3,442.8,3279,right
11,3,valuation,16,5,fixationCross,6616897.0,6618796.0,1899.0,116,L,6616655,6616815,162,1427.2,425.8,3327,right
11,3,valuation,16,5,trial,6616897.0,6618796.0,1899.0,116,L,6616835,6617101,268,1489.1,476.6,3545,right
11,3,valuation,16,5,trial,6616897.0,6618796.0,1899.0,116,L,6617123,6617315,194,1444.0,588.0,3685,right
11,3,valuation,16,5,trial,6616897.0,6618796.0,1899.0,116,L,6617329,6617505,178,1474.8,610.6,3361,right
11,3,valuation,16,5,trial,6616897.0,6618796.0,1899.0,116,L,6617531,6617701,172,1387.5,523.8,3264,right
11,3,valuation,16,5,trial,6616897.0,6618796.0,1899.0,116,L,6617727,6617907,182,1570.5,479.2,3240,right
11,3,valuation,16,5,trial,6616897.0,6618796.0,1899.0,116,L,6617933,6618089,158,1509.5,600.8,3274,right
11,3,valuation,16,5,trial,6616897.0,6618796.0,1899.0,116,L,6618171,6618521,352,555.7,493.6,3404,likertVertical
11,3,valuation,16,5,trial,6616897.0,6618796.0,1899.0,116,L,6618535,6618737,204,532.9,452.0,3428,likertVertical
11,3,valuation,16,5,trial,6616897.0,6618796.0,1899.0,116,L,6618813,6618981,170,1428.3,500.4,3562,right
11,3,valuation,17,5,trial,6619480.0,6621380.0,1900.0,117,L,6619219,6619717,500,1462.8,510.5,3737,right
11,3,valuation,17,5,trial,6619480.0,6621380.0,1900.0,117,L,6619735,6619889,156,1546.6,533.8,3629,right
11,3,valuation,17,5,trial,6619480.0,6621380.0,1900.0,117,L,6619905,6620417,514,1500.3,509.1,3096,right
11,3,valuation,17,5,trial,6619480.0,6621380.0,1900.0,117,L,6620491,6620707,218,577.1,540.0,3371,likertVertical
11,3,valuation,17,5,trial,6619480.0,6621380.0,1900.0,117,L,6620719,6621011,294,548.3,522.4,3612,likertVertical
11,3,valuation,17,5,trial,6619480.0,6621380.0,1900.0,117,L,6621029,6621279,252,536.0,468.1,3722,likertVertical
11,3,valuation,17,5,postResponse,6619480.0,6621380.0,1900.0,117,L,6621361,6621717,358,1544.5,521.3,3561,right
11,3,valuation,18,3,fixationCross,6622047.0,6623713.0,1666.0,118,L,6621797,6622011,216,1445.2,471.9,3318,right
11,3,valuation,18,3,trial,6622047.0,6623713.0,1666.0,118,L,6622025,6622353,330,1507.0,501.8,3421,right
11,3,valuation,18,3,trial,6622047.0,6623713.0,1666.0,118,L,6622365,6623311,948,1475.0,506.2,3466,right
11,3,valuation,18,3,trial,6622047.0,6623713.0,1666.0,118,L,6623323,6623997,676,1469.2,489.7,3450,right
11,3,valuation,19,2,trial,6624363.0,6626063.0,1700.0,119,L,6624185,6624625,442,1447.2,488.6,3573,right
11,3,valuation,19,2,trial,6624363.0,6626063.0,1700.0,119,L,6624637,6624791,156,1474.2,476.9,3574,right
11,3,valuation,19,2,trial,6624363.0,6626063.0,1700.0,119,L,6624817,6625093,278,1334.5,498.5,3317,right
11,3,valuation,19,2,trial,6624363.0,6626063.0,1700.0,119,L,6625167,6625853,688,543.2,617.3,3560,likertVertical
11,3,valuation,19,2,trial,6624363.0,6626063.0,1700.0,119,L,6625873,6626251,380,540.0,707.9,3898,likertVertical
11,3,valuation,19,2,postResponse,6624363.0,6626063.0,1700.0,119,L,6626329,6626409,82,1397.8,395.6,3923,right
11,3,valuation,20,5,fixationCross,6626730.0,6628013.0,1283.0,120,L,6626483,6626629,148,1407.4,402.1,3826,right
11,3,valuation,20,5,trial,6626730.0,6628013.0,1283.0,120,L,6626651,6626905,256,1409.4,499.5,3901,right
11,3,valuation,20,5,trial,6626730.0,6628013.0,1283.0,120,L,6626921,6627201,282,1461.5,514.8,3894,right
11,3,valuation,20,5,trial,6626730.0,6628013.0,1283.0,120,L,6627289,6627465,178,507.1,545.6,3555,likertVertical
11,3,valuation,20,5,trial,6626730.0,6628013.0,1283.0,120,L,6627489,6627803,316,545.0,452.7,3474,likertVertical
11,3,valuation,20,5,trial,6626730.0,6628013.0,1283.0,120,L,6627905,6628199,296,1487.6,491.3,3640,right
11,3,valuation,21,4,trial,6628697.0,6629930.0,1233.0,121,L,6628457,6628915,460,1441.2,496.8,3758,right
11,3,valuation,21,4,trial,6628697.0,6629930.0,1233.0,121,L,6628931,6629087,158,1499.6,523.3,3682,right
11,3,valuation,21,4,trial,6628697.0,6629930.0,1233.0,121,L,6629107,6629263,158,1539.8,532.5,3337,right
11,3,valuation,21,4,trial,6628697.0,6629930.0,1233.0,121,L,6629341,6629863,524,572.2,475.8,3428,likertVertical
11,3,valuation,21,4,trial,6628697.0,6629930.0,1233.0,121,L,6629943,6630187,246,1539.2,522.3,3576,right
11,3,valuation,22,2,trial,6630580.0,6631846.0,1266.0,122,L,6630379,6631079,702,1466.9,511.5,3577,right
11,3,valuation,22,2,trial,6630580.0,6631846.0,1266.0,122,L,6631161,6631705,546,542.0,630.7,3353,likertVertical
11,3,valuation,22,2,trial,6630580.0,6631846.0,1266.0,122,L,6631783,6632105,324,1495.2,517.6,3608,right
11,3,valuation,23,3,trial,6632513.0,6633863.0,1350.0,123,L,6632271,6632719,450,1468.1,472.7,3658,right
11,3,valuation,23,3,trial,6632513.0,6633863.0,1350.0,123,L,6632733,6632865,134,1477.9,505.6,3881,right
11,3,valuation,23,3,trial,6632513.0,6633863.0,1350.0,123,L,6632891,6633113,224,1490.3,660.8,3655,right
11,3,valuation,23,3,trial,6632513.0,6633863.0,1350.0,123,L,6633197,6633755,560,541.0,619.2,3667,likertVertical
11,3,valuation,23,3,postResponse,6632513.0,6633863.0,1350.0,123,L,6634071,6634209,140,1502.0,494.3,3640,right
11,3,valuation,24,6,fixationCross,6634563.0,6636630.0,2067.0,124,L,6634311,6634345,36,1498.8,498.4,3800,right
11,3,valuation,24,6,trial,6634563.0,6636630.0,2067.0,124,L,6634361,6634771,412,1479.2,463.8,3825,right
11,3,valuation,24,6,trial,6634563.0,6636630.0,2067.0,124,L,6634785,6635245,462,1515.5,482.1,3455,right
11,3,valuation,24,6,trial,6634563.0,6636630.0,2067.0,124,L,6635325,6635937,614,563.9,453.0,3503,likertVertical
11,3,valuation,24,6,trial,6634563.0,6636630.0,2067.0,124,L,6636019,6636663,646,534.1,384.9,3748,likertVertical
11,3,valuation,24,6,postResponse,6634563.0,6636630.0,2067.0,124,L,6636741,6636965,226,1500.4,481.7,3695,right
11,3,valuation,25,2,trial,6637280.0,6638714.0,1434.0,125,L,6637039,6637495,458,1504.1,486.2,3682,right
11,3,valuation,25,2,postResponse,6637280.0,6638714.0,1434.0,125,L,6637509,6639049,1542,1474.5,536.7,3370,right
11,3,valuation,26,5,fixationCross,6672914.0,6674680.0,1766.0,126,L,6672680,6672838,160,622.4,28.6,3305,NA
11,3,valuation,26,5,trial,6672914.0,6674680.0,1766.0,126,L,6672888,6673060,174,930.1,256.2,3472,NA
11,3,valuation,26,5,trial,6672914.0,6674680.0,1766.0,126,L,6673092,6673192,102,1069.0,443.0,3693,NA
11,3,valuation,26,5,trial,6672914.0,6674680.0,1766.0,126,L,6673246,6673428,184,551.9,438.0,3844,likertVertical
11,3,valuation,26,5,trial,6672914.0,6674680.0,1766.0,126,L,6673508,6673676,170,1542.1,524.3,3823,right
11,3,valuation,26,5,trial,6672914.0,6674680.0,1766.0,126,L,6673700,6673964,266,1456.6,509.6,3730,right
11,3,valuation,26,5,trial,6672914.0,6674680.0,1766.0,126,L,6674050,6674538,490,545.0,411.9,3736,likertVertical
11,3,valuation,26,5,trial,6672914.0,6674680.0,1766.0,126,L,6674608,6674922,316,1385.6,540.0,3924,right
11,3,valuation,27,6,trial,6675330.0,6676864.0,1534.0,127,L,6675102,6675544,444,1434.8,496.8,3907,right
11,3,valuation,27,6,trial,6675330.0,6676864.0,1534.0,127,L,6675566,6675786,222,1409.3,562.7,3972,right
11,3,valuation,27,6,trial,6675330.0,6676864.0,1534.0,127,L,6675864,6676230,368,517.6,531.1,3527,likertVertical
11,3,valuation,27,6,trial,6675330.0,6676864.0,1534.0,127,L,6676248,6676674,428,527.4,461.5,3581,likertVertical
11,3,valuation,27,6,trial,6675330.0,6676864.0,1534.0,127,L,6676760,6677060,302,1377.3,518.2,3826,right
11,3,valuation,28,3,fixationCross,6677514.0,6678597.0,1083.0,128,L,6677288,6677460,174,1461.7,457.6,3521,right
11,3,valuation,28,3,trial,6677514.0,6678597.0,1083.0,128,L,6677482,6677822,342,1512.1,514.4,3782,right
11,3,valuation,28,3,trial,6677514.0,6678597.0,1083.0,128,L,6677836,6678060,226,1476.3,522.3,3607,right
11,3,valuation,28,3,trial,6677514.0,6678597.0,1083.0,128,L,6678138,6678536,400,560.3,590.2,3359,likertVertical
11,3,valuation,28,3,postResponse,6677514.0,6678597.0,1083.0,128,L,6678612,6678946,336,1463.7,478.9,3598,right
11,3,valuation,29,4,trial,6679281.0,6680431.0,1150.0,129,L,6679048,6679516,470,1465.4,489.9,3691,right
11,3,valuation,29,4,trial,6679281.0,6680431.0,1150.0,129,L,6679538,6680168,632,1513.4,547.0,3523,right
11,3,valuation,29,4,trial,6679281.0,6680431.0,1150.0,129,L,6680246,6680578,334,561.4,519.0,3749,likertVertical
11,3,valuation,30,4,fixationCross,6681081.0,6683297.0,2216.0,130,L,6680842,6681056,216,1462.0,498.4,3808,right
11,3,valuation,30,4,trial,6681081.0,6683297.0,2216.0,130,L,6681082,6681288,208,1392.3,508.3,3969,right
11,3,valuation,30,4,trial,6681081.0,6683297.0,2216.0,130,L,6681306,6681700,396,1448.1,511.6,3702,right
11,3,valuation,30,4,trial,6681081.0,6683297.0,2216.0,130,L,6681714,6681976,264,1452.6,478.9,3498,right
11,3,valuation,30,4,trial,6681081.0,6683297.0,2216.0,130,L,6681990,6682746,758,1403.6,482.1,3658,right
11,3,valuation,30,4,trial,6681081.0,6683297.0,2216.0,130,L,6682826,6683142,318,536.8,610.1,3743,likertVertical
11,3,valuation,30,4,postResponse,6681081.0,6683297.0,2216.0,130,L,6683332,6683646,316,1473.4,517.2,3612,right
11,3,valuation,31,2,trial,6683980.0,6685364.0,1384.0,131,L,6683720,6684140,422,1386.2,477.0,3763,right
11,3,valuation,31,2,trial,6683980.0,6685364.0,1384.0,131,L,6684160,6684608,450,1427.0,520.8,3648,right
11,3,valuation,31,2,trial,6683980.0,6685364.0,1384.0,131,L,6684686,6685278,594,588.3,689.6,3719,likertVertical
11,3,valuation,31,2,trial,6683980.0,6685364.0,1384.0,131,L,6685344,6685558,216,1339.8,531.5,3995,right
11,3,valuation,32,5,trial,6686031.0,6687264.0,1233.0,132,L,6685774,6686272,500,1441.3,511.7,4007,right
11,3,valuation,32,5,trial,6686031.0,6687264.0,1233.0,132,L,6686298,6686502,206,1514.7,614.2,3757,right
11,3,valuation,32,5,trial,6686031.0,6687264.0,1233.0,132,L,6686586,6686808,224,528.9,577.4,3443,likertVertical
11,3,valuation,32,5,trial,6686031.0,6687264.0,1233.0,132,L,6686824,6687086,264,548.1,528.7,3333,likertVertical
11,3,valuation,32,5,trial,6686031.0,6687264.0,1233.0,132,L,6687164,6687432,270,1569.7,576.0,3387,right
11,3,valuation,33,5,trial,6687948.0,6689498.0,1550.0,133,L,6687696,6688286,592,1490.8,512.4,3546,right
11,3,valuation,33,5,trial,6687948.0,6689498.0,1550.0,133,L,6688308,6688492,186,1567.4,450.3,3365,right
11,3,valuation,33,5,trial,6687948.0,6689498.0,1550.0,133,L,6688574,6689296,724,609.9,451.9,3361,likertVertical
11,3,valuation,33,5,trial,6687948.0,6689498.0,1550.0,133,L,6689368,6689518,152,1497.9,508.2,3684,right
