participantNo,block,task,blockTrial,response,trialStage,trialStartTime,trialFinishTime,rt,trial,eye,fixStart,fixEnd,fixLength,fixPosX,fixPosY,dilation,aoi
33,1,continuous,1,42,fixationCross,9939651.0,9940733.0,1082.0,1,R,9938828,9939310,484,1045.2,452.9,5887,NA
33,1,continuous,1,42,trial,9939651.0,9940733.0,1082.0,1,R,9939334,9939858,526,960.6,532.1,5755,NA
33,1,continuous,1,42,trial,9939651.0,9940733.0,1082.0,1,R,9939906,9940166,262,630.1,499.3,5330,left
33,1,continuous,1,42,postResponse,9939651.0,9940733.0,1082.0,1,R,9940178,9941112,936,635.6,484.5,4703,left
33,1,continuous,2,72,fixationCross,9942317.0,9943718.0,1401.0,2,R,9941244,9941902,660,921.5,460.5,5677,NA
33,1,continuous,2,72,fixationCross,9942317.0,9943718.0,1401.0,2,R,9941936,9942106,172,1111.0,480.6,5872,NA
33,1,continuous,2,72,fixationCross,9942317.0,9943718.0,1401.0,2,R,9942132,9942280,150,999.4,526.5,5937,NA
33,1,continuous,2,72,trial,9942317.0,9943718.0,1401.0,2,R,9942298,9942476,180,958.0,534.4,5899,NA
33,1,continuous,2,72,trial,9942317.0,9943718.0,1401.0,2,R,9942536,9942802,268,1404.2,462.0,5270,right
33,1,continuous,2,72,trial,9942317.0,9943718.0,1401.0,2,R,9942868,9943064,198,536.4,479.7,4838,left
33,1,continuous,2,72,trial,9942317.0,9943718.0,1401.0,2,R,9943080,9943336,258,574.7,441.0,4583,left
33,1,continuous,2,72,trial,9942317.0,9943718.0,1401.0,2,R,9943414,9944026,614,1493.1,488.4,4614,right
33,1,continuous,3,64,fixationCross,9944867.0,9946234.0,1367.0,3,R,9944178,9944270,94,1073.0,444.9,5058,NA
33,1,continuous,3,64,fixationCross,9944867.0,9946234.0,1367.0,3,R,9944304,9944552,250,826.7,466.5,5323,NA
33,1,continuous,3,64,trial,9944867.0,9946234.0,1367.0,3,R,9944580,9945032,454,957.2,517.8,5510,NA
33,1,continuous,3,64,trial,9944867.0,9946234.0,1367.0,3,R,9945086,9945362,278,490.3,517.3,5189,left
33,1,continuous,3,64,trial,9944867.0,9946234.0,1367.0,3,R,9945438,9945642,206,1443.7,531.3,4431,right
33,1,continuous,3,64,trial,9944867.0,9946234.0,1367.0,3,R,9945666,9946484,820,1447.0,447.3,4478,right
33,1,continuous,4,37,fixationCross,9947367.0,9948634.0,1267.0,4,R,9946668,9946834,168,916.8,469.2,5104,NA
33,1,continuous,4,37,fixationCross,9947367.0,9948634.0,1267.0,4,R,9946866,9947056,192,791.0,445.6,5324,NA
33,1,continuous,4,37,fixationCross,9947367.0,9948634.0,1267.0,4,R,9947096,9947326,232,929.2,520.9,5445,NA
33,1,continuous,4,37,trial,9947367.0,9948634.0,1267.0,4,R,9947344,9947562,220,954.6,531.2,5568,NA
33,1,continuous,4,37,trial,9947367.0,9948634.0,1267.0,4,R,9947618,9947862,246,475.1,541.7,5217,left
33,1,continuous,4,37,trial,9947367.0,9948634.0,1267.0,4,R,9947926,9948314,390,1433.6,490.5,4300,right
33,1,continuous,4,37,trial,9947367.0,9948634.0,1267.0,4,R,9948334,9948394,62,1463.8,554.1,4320,right
33,1,continuous,4,37,trial,9947367.0,9948634.0,1267.0,4,R,9948464,9948944,482,441.8,537.4,4716,left
33,1,continuous,5,29,fixationCross,9949801.0,9951251.0,1450.0,5,R,9949108,9949340,234,968.6,472.6,4985,NA
33,1,continuous,5,29,fixationCross,9949801.0,9951251.0,1450.0,5,R,9949382,9949558,178,1102.7,477.2,5305,NA
33,1,continuous,5,29,trial,9949801.0,9951251.0,1450.0,5,R,9949582,9949986,406,1002.6,514.1,5540,NA
33,1,continuous,5,29,trial,9949801.0,9951251.0,1450.0,5,R,9950048,9950542,496,535.8,506.6,5028,left
33,1,continuous,5,29,trial,9949801.0,9951251.0,1450.0,5,R,9950558,9950706,150,596.8,510.0,4540,left
33,1,continuous,5,29,trial,9949801.0,9951251.0,1450.0,5,R,9950778,9951142,366,1430.3,549.8,4542,right
33,1,continuous,5,29,postResponse,9949801.0,9951251.0,1450.0,5,R,9951214,9951590,378,455.2,490.4,4972,left
33,1,continuous,6,21,fixationCross,9952218.0,9954367.0,2149.0,6,R,9951680,9951886,208,645.9,488.3,4959,left
33,1,continuous,6,21,fixationCross,9952218.0,9954367.0,2149.0,6,R,9951916,9952206,292,869.2,509.6,5396,NA
33,1,continuous,6,21,trial,9952218.0,9954367.0,2149.0,6,R,9952232,9952398,168,968.9,525.1,5594,NA
33,1,continuous,6,21,trial,9952218.0,9954367.0,2149.0,6,R,9952458,9952908,452,1392.4,544.9,5010,right
33,1,continuous,6,21,trial,9952218.0,9954367.0,2149.0,6,R,9952968,9954666,1700,581.1,572.3,5049,left
33,1,continuous,7,84,fixationCross,9955301.0,9956551.0,1250.0,7,R,9954814,9954970,158,810.5,497.3,5403,NA
33,1,continuous,7,84,trial,9955301.0,9956551.0,1250.0,7,R,9954998,9955520,524,957.3,511.1,5570,NA
33,1,continuous,7,84,trial,9955301.0,9956551.0,1250.0,7,R,9955580,9955830,252,641.0,441.6,5217,left
33,1,continuous,7,84,trial,9955301.0,9956551.0,1250.0,7,R,9955848,9956112,266,620.1,395.6,4837,left
33,1,continuous,7,84,trial,9955301.0,9956551.0,1250.0,7,R,9956184,9956362,180,1428.7,498.5,4704,right
33,1,continuous,7,84,trial,9955301.0,9956551.0,1250.0,7,R,9956382,9956804,424,1348.3,474.1,4635,right
33,1,continuous,7,84,postResponse,9955301.0,9956551.0,1250.0,7,R,9956834,9956898,66,1173.6,472.6,4651,NA
33,1,continuous,8,20,fixationCross,9957668.0,9958967.0,1299.0,8,R,9956972,9957022,52,1167.6,475.4,4729,NA
33,1,continuous,8,20,fixationCross,9957668.0,9958967.0,1299.0,8,R,9957054,9957378,326,873.9,472.8,5140,NA
33,1,continuous,8,20,trial,9957668.0,9958967.0,1299.0,8,R,9957402,9957830,430,957.3,513.9,5402,NA
33,1,continuous,8,20,trial,9957668.0,9958967.0,1299.0,8,R,9957888,9958014,128,1324.4,513.8,5331,right
33,1,continuous,8,20,trial,9957668.0,9958967.0,1299.0,8,R,9958038,9958256,220,1398.8,576.7,4745,right
33,1,continuous,8,20,trial,9957668.0,9958967.0,1299.0,8,R,9958324,9958904,582,487.3,505.1,4420,left
33,1,continuous,8,20,postResponse,9957668.0,9958967.0,1299.0,8,R,9958918,9959316,400,503.2,481.9,4424,left
33,1,continuous,9,82,fixationCross,9959867.0,9960734.0,867.0,9,R,9959432,9959846,416,1046.2,492.1,4972,NA
33,1,continuous,9,82,trial,9959867.0,9960734.0,867.0,9,R,9959864,9960066,204,983.6,512.5,5234,NA
33,1,continuous,9,82,trial,9959867.0,9960734.0,867.0,9,R,9960114,9960338,226,1370.2,497.2,5006,right
33,1,continuous,9,82,postResponse,9959867.0,9960734.0,867.0,9,R,9960362,9961082,722,1507.2,497.6,4805,right
33,1,continuous,10,18,fixationCross,9961668.0,9962634.0,966.0,10,R,9961182,9961268,88,1280.4,472.2,5116,right
33,1,continuous,10,18,trial,9961668.0,9962634.0,966.0,10,R,9961312,9961846,536,939.4,493.0,5537,NA
33,1,continuous,10,18,trial,9961668.0,9962634.0,966.0,10,R,9961894,9962194,302,552.8,511.3,5364,left
33,1,continuous,10,18,trial,9961668.0,9962634.0,966.0,10,R,9962270,9962410,142,1327.0,472.7,4746,right
33,1,continuous,10,18,trial,9961668.0,9962634.0,966.0,10,R,9962434,9962658,226,1428.7,468.9,4610,right
33,1,continuous,10,18,trial,9961668.0,9962634.0,966.0,10,R,9962684,9962950,268,1334.4,568.3,4711,right
33,1,continuous,11,68,fixationCross,9964301.0,9965167.0,866.0,11,R,9963058,9964008,952,875.2,451.7,5312,NA
33,1,continuous,11,68,trial,9964301.0,9965167.0,866.0,11,R,9964032,9964332,302,939.8,514.3,5621,NA
33,1,continuous,11,68,trial,9964301.0,9965167.0,866.0,11,R,9964342,9964478,138,956.8,526.6,5653,NA
33,1,continuous,11,68,trial,9964301.0,9965167.0,866.0,11,R,9964538,9964820,284,537.8,534.3,5235,left
33,1,continuous,11,68,trial,9964301.0,9965167.0,866.0,11,R,9964838,9964978,142,552.8,486.9,4656,left
33,1,continuous,11,68,postResponse,9964301.0,9965167.0,866.0,11,R,9965048,9965514,468,1345.1,523.7,4436,right
33,1,continuous,12,65,fixationCross,9966067.0,9966901.0,834.0,12,R,9965588,9965640,54,1338.8,527.6,4612,right
33,1,continuous,12,65,trial,9966067.0,9966901.0,834.0,12,R,9965704,9966140,438,945.2,505.5,5180,NA
33,1,continuous,12,65,trial,9966067.0,9966901.0,834.0,12,R,9966168,9966282,116,831.3,523.8,5275,NA
33,1,continuous,12,65,trial,9966067.0,9966901.0,834.0,12,R,9966324,9966518,196,563.9,573.1,5141,left
33,1,continuous,12,65,trial,9966067.0,9966901.0,834.0,12,R,9966588,9967196,610,1369.2,592.9,4723,right
33,1,continuous,13,28,fixationCross,9967801.0,9968734.0,933.0,13,R,9967324,9967436,114,1158.0,537.0,4794,NA
33,1,continuous,13,28,trial,9967801.0,9968734.0,933.0,13,R,9967476,9967844,370,877.3,535.3,5203,NA
33,1,continuous,13,28,trial,9967801.0,9968734.0,933.0,13,R,9967870,9967990,122,924.6,512.6,5167,NA
33,1,continuous,13,28,trial,9967801.0,9968734.0,933.0,13,R,9968050,9968290,242,1392.6,508.0,4732,right
33,1,continuous,13,28,trial,9967801.0,9968734.0,933.0,13,R,9968356,9968546,192,472.1,622.7,4562,left
33,1,continuous,13,28,postResponse,9967801.0,9968734.0,933.0,13,R,9968570,9969080,512,622.1,602.3,4585,left
33,1,continuous,14,70,fixationCross,9969984.0,9971034.0,1050.0,14,R,9969180,9969402,224,627.2,607.0,4873,left
33,1,continuous,14,70,fixationCross,9969984.0,9971034.0,1050.0,14,R,9969430,9969686,258,848.2,550.3,5185,NA
33,1,continuous,14,70,trial,9969984.0,9971034.0,1050.0,14,R,9969712,9970132,422,966.1,531.5,5281,NA
33,1,continuous,14,70,trial,9969984.0,9971034.0,1050.0,14,R,9970184,9970384,202,1403.6,524.2,4971,right
33,1,continuous,14,70,trial,9969984.0,9971034.0,1050.0,14,R,9970408,9970510,104,1549.8,523.7,4522,right
33,1,continuous,14,70,trial,9969984.0,9971034.0,1050.0,14,R,9970584,9970900,318,493.0,510.6,4283,left
33,1,continuous,14,70,postResponse,9969984.0,9971034.0,1050.0,14,R,9970976,9971380,406,1451.2,533.6,4279,right
33,1,continuous,15,21,fixationCross,9971968.0,9973251.0,1283.0,15,R,9971456,9971670,216,1138.1,509.2,4542,NA
33,1,continuous,15,21,fixationCross,9971968.0,9973251.0,1283.0,15,R,9971704,9971924,222,918.6,533.9,4941,NA
33,1,continuous,15,21,trial,9971968.0,9973251.0,1283.0,15,R,9971944,9972160,218,958.5,531.9,5103,NA
33,1,continuous,15,21,trial,9971968.0,9973251.0,1283.0,15,R,9972204,9972648,446,643.6,519.7,4932,left
33,1,continuous,15,21,trial,9971968.0,9973251.0,1283.0,15,R,9972664,9973050,388,592.9,494.5,4813,left
33,1,continuous,15,21,postResponse,9971968.0,9973251.0,1283.0,15,R,9973072,9973600,530,516.2,540.7,5093,left
33,1,continuous,16,26,fixationCross,9974401.0,9976518.0,2117.0,16,R,9973674,9973744,72,520.6,544.8,5073,left
33,1,continuous,16,26,fixationCross,9974401.0,9976518.0,2117.0,16,R,9973788,9974098,312,823.1,503.4,5286,NA
33,1,continuous,16,26,trial,9974401.0,9976518.0,2117.0,16,R,9974124,9974616,494,975.6,528.5,5418,NA
33,1,continuous,16,26,trial,9974401.0,9976518.0,2117.0,16,R,9974672,9974834,164,491.8,530.2,5202,left
33,1,continuous,16,26,trial,9974401.0,9976518.0,2117.0,16,R,9974856,9975212,358,498.2,448.3,4726,left
33,1,continuous,16,26,trial,9974401.0,9976518.0,2117.0,16,R,9975294,9975706,414,1480.2,474.3,4507,right
33,1,continuous,16,26,trial,9974401.0,9976518.0,2117.0,16,R,9975722,9975920,200,1438.3,493.1,4681,right
33,1,continuous,16,26,trial,9974401.0,9976518.0,2117.0,16,R,9975980,9976168,190,543.0,487.3,4807,left
33,1,continuous,16,26,trial,9974401.0,9976518.0,2117.0,16,R,9976186,9976748,564,513.5,441.1,4791,left
33,1,continuous,16,26,postResponse,9974401.0,9976518.0,2117.0,16,R,9976794,9976864,72,961.9,535.5,4983,NA
33,1,continuous,17,50,fixationCross,9977601.0,9978968.0,1367.0,17,R,9976940,9977046,108,975.3,550.8,5112,NA
33,1,continuous,17,50,fixationCross,9977601.0,9978968.0,1367.0,17,R,9977072,9977298,228,1076.0,496.1,5270,NA
33,1,continuous,17,50,trial,9977601.0,9978968.0,1367.0,17,R,9977322,9977800,480,986.1,520.4,5312,NA
33,1,continuous,17,50,trial,9977601.0,9978968.0,1367.0,17,R,9977854,9978086,234,1356.6,469.9,4962,right
33,1,continuous,17,50,trial,9977601.0,9978968.0,1367.0,17,R,9978162,9978664,504,462.8,574.9,4610,left
33,1,continuous,17,50,trial,9977601.0,9978968.0,1367.0,17,R,9978678,9978936,260,436.8,559.8,4500,left
33,1,continuous,17,50,postResponse,9977601.0,9978968.0,1367.0,17,R,9978998,9979298,302,937.9,984.4,4837,likertHorizontal
33,1,continuous,18,28,fixationCross,9979868.0,9981034.0,1166.0,18,R,9979390,9979762,374,934.0,457.3,5033,NA
33,1,continuous,18,28,trial,9979868.0,9981034.0,1166.0,18,R,9979784,9980050,268,990.0,516.5,5349,NA
33,1,continuous,18,28,trial,9979868.0,9981034.0,1166.0,18,R,9980102,9980324,224,532.2,491.8,5123,left
33,1,continuous,18,28,trial,9979868.0,9981034.0,1166.0,18,R,9980342,9980588,248,576.1,476.9,4525,left
33,1,continuous,18,28,trial,9979868.0,9981034.0,1166.0,18,R,9980632,9980716,86,788.5,464.3,4366,NA
33,1,continuous,18,28,postResponse,9979868.0,9981034.0,1166.0,18,R,9980754,9981378,626,509.6,490.4,4570,left
33,1,continuous,19,85,fixationCross,9981968.0,9983384.0,1416.0,19,R,9981478,9981656,180,734.8,486.4,5027,left
33,1,continuous,19,85,trial,9981968.0,9983384.0,1416.0,19,R,9981690,9981970,282,975.7,473.5,5277,NA
33,1,continuous,19,85,trial,9981968.0,9983384.0,1416.0,19,R,9981994,9982156,164,951.7,506.4,5375,NA
33,1,continuous,19,85,trial,9981968.0,9983384.0,1416.0,19,R,9982206,9982478,274,466.5,547.4,5048,left
33,1,continuous,19,85,trial,9981968.0,9983384.0,1416.0,19,R,9982552,9982896,346,1440.0,533.6,4160,right
33,1,continuous,19,85,trial,9981968.0,9983384.0,1416.0,19,R,9982914,9983254,342,1525.6,472.6,4183,right
33,1,continuous,19,85,trial,9981968.0,9983384.0,1416.0,19,R,9983278,9983700,424,1381.0,513.1,4530,right
33,1,continuous,20,72,fixationCross,9984668.0,9986251.0,1583.0,20,R,9983806,9983960,156,1038.8,498.7,4840,NA
33,1,continuous,20,72,fixationCross,9984668.0,9986251.0,1583.0,20,R,9983998,9984358,362,777.3,534.1,5102,NA
33,1,continuous,20,72,trial,9984668.0,9986251.0,1583.0,20,R,9984384,9984738,356,915.8,543.5,4990,NA
33,1,continuous,20,72,trial,9984668.0,9986251.0,1583.0,20,R,9984754,9984874,122,949.7,535.3,4991,NA
33,1,continuous,20,72,trial,9984668.0,9986251.0,1583.0,20,R,9984932,9985246,316,524.3,549.7,4746,left
33,1,continuous,20,72,trial,9984668.0,9986251.0,1583.0,20,R,9985312,9985954,644,1456.7,485.3,4264,right
33,1,continuous,20,72,trial,9984668.0,9986251.0,1583.0,20,R,9985968,9986510,544,1498.4,483.7,4375,right
33,1,continuous,20,72,postResponse,9984668.0,9986251.0,1583.0,20,R,9986534,9986600,68,1327.6,476.0,4466,right
33,1,continuous,21,13,fixationCross,9987418.0,9988584.0,1166.0,21,R,9986674,9986776,104,1316.5,479.8,4519,right
33,1,continuous,21,13,fixationCross,9987418.0,9988584.0,1166.0,21,R,9986854,9987098,246,815.8,548.7,4838,NA
33,1,continuous,21,13,trial,9987418.0,9988584.0,1166.0,21,R,9987126,9987570,446,959.0,529.5,4836,NA
33,1,continuous,21,13,trial,9987418.0,9988584.0,1166.0,21,R,9987616,9987790,176,584.3,478.0,4865,left
33,1,continuous,21,13,trial,9987418.0,9988584.0,1166.0,21,R,9987818,9988062,246,355.3,573.6,4580,left
33,1,continuous,21,13,trial,9987418.0,9988584.0,1166.0,21,R,9988070,9988364,296,379.2,573.4,4507,left
33,1,continuous,21,13,trial,9987418.0,9988584.0,1166.0,21,R,9988430,9988536,108,961.1,532.8,4545,NA
33,1,continuous,21,13,postResponse,9987418.0,9988584.0,1166.0,21,R,9988578,9988930,354,1302.7,507.9,4587,right
33,1,continuous,22,22,fixationCross,9989651.0,9990851.0,1200.0,22,R,9989016,9989360,346,1101.7,468.8,4778,NA
33,1,continuous,22,22,trial,9989651.0,9990851.0,1200.0,22,R,9989388,9989736,350,967.8,503.4,5108,NA
33,1,continuous,22,22,trial,9989651.0,9990851.0,1200.0,22,R,9989762,9989860,100,869.6,515.6,5165,NA
33,1,continuous,22,22,trial,9989651.0,9990851.0,1200.0,22,R,9989906,9990248,344,511.5,552.5,4863,left
33,1,continuous,22,22,trial,9989651.0,9990851.0,1200.0,22,R,9990316,9990564,250,1425.9,504.3,4378,right
33,1,continuous,22,22,trial,9989651.0,9990851.0,1200.0,22,R,9990610,9990852,244,1623.6,431.4,4347,right
33,1,continuous,22,22,trial,9989651.0,9990851.0,1200.0,22,R,9990864,9991166,304,1631.0,415.5,4334,right
33,1,continuous,23,20,trial,9991768.0,9993085.0,1317.0,23,R,9991276,9991808,534,918.7,542.0,4983,NA
33,1,continuous,23,20,trial,9991768.0,9993085.0,1317.0,23,R,9991832,9991996,166,967.0,518.0,5143,NA
33,1,continuous,23,20,trial,9991768.0,9993085.0,1317.0,23,R,9992054,9992312,260,1381.0,521.7,4792,right
33,1,continuous,23,20,trial,9991768.0,9993085.0,1317.0,23,R,9992372,9992850,480,581.1,584.8,4644,left
33,1,continuous,23,20,trial,9991768.0,9993085.0,1317.0,23,R,9992872,9993128,258,489.2,616.0,4700,left
33,1,continuous,23,20,postResponse,9991768.0,9993085.0,1317.0,23,R,9993162,9993430,270,649.5,609.8,4736,left
33,1,continuous,24,83,fixationCross,9994884.0,9996918.0,2034.0,24,R,9993558,9993712,156,899.3,540.4,4922,NA
33,1,continuous,24,83,fixationCross,9994884.0,9996918.0,2034.0,24,R,9993742,9994072,332,693.2,559.0,5150,left
33,1,continuous,24,83,fixationCross,9994884.0,9996918.0,2034.0,24,R,9994100,9994556,458,578.5,557.3,5145,left
33,1,continuous,24,83,fixationCross,9994884.0,9996918.0,2034.0,24,R,9994626,9994830,206,942.6,486.6,5181,NA
33,1,continuous,24,83,trial,9994884.0,9996918.0,2034.0,24,R,9994844,9995056,214,958.1,526.5,5330,NA
33,1,continuous,24,83,trial,9994884.0,9996918.0,2034.0,24,R,9995114,9995366,254,512.6,545.1,5054,left
33,1,continuous,24,83,trial,9994884.0,9996918.0,2034.0,24,R,9995388,9995930,544,415.5,545.7,4640,left
33,1,continuous,24,83,trial,9994884.0,9996918.0,2034.0,24,R,9995952,9996068,118,504.6,541.7,4768,left
33,1,continuous,24,83,trial,9994884.0,9996918.0,2034.0,24,R,9996150,9996554,406,1456.1,541.5,4780,right
33,1,continuous,24,83,trial,9994884.0,9996918.0,2034.0,24,R,9996576,9996994,420,1379.6,631.5,4558,right
33,1,continuous,24,83,postResponse,9994884.0,9996918.0,2034.0,24,R,9997018,9997266,250,1441.8,576.6,4559,right
33,1,continuous,25,82,fixationCross,9997851.0,9999634.0,1783.0,25,R,9997340,9997558,220,1180.5,512.6,4861,NA
33,1,continuous,25,82,trial,9997851.0,9999634.0,1783.0,25,R,9997584,9997942,360,969.0,525.6,5144,NA
33,1,continuous,25,82,trial,9997851.0,9999634.0,1783.0,25,R,9997952,9998052,102,949.0,524.7,5155,NA
33,1,continuous,25,82,trial,9997851.0,9999634.0,1783.0,25,R,9998102,9998408,308,501.9,516.5,4868,left
33,1,continuous,25,82,trial,9997851.0,9999634.0,1783.0,25,R,9998482,9998524,44,1359.5,494.7,4426,right
33,1,continuous,25,82,trial,9997851.0,9999634.0,1783.0,25,R,9998618,9998768,152,1505.6,516.7,4281,right
33,1,continuous,25,82,postResponse,9997851.0,9999634.0,1783.0,25,R,9998786,9999982,1198,1467.0,490.1,4724,right
33,1,continuous,26,31,fixationCross,10027202.0,10028402.0,1200.0,26,R,10026493,10026705,214,294.3,14.6,4411,NA
33,1,continuous,26,31,fixationCross,10027202.0,10028402.0,1200.0,26,R,10026823,10026957,136,1077.9,617.2,4407,NA
33,1,continuous,26,31,fixationCross,10027202.0,10028402.0,1200.0,26,R,10026985,10027191,208,995.6,510.1,4611,NA
33,1,continuous,26,31,trial,10027202.0,10028402.0,1200.0,26,R,10027201,10027369,170,975.8,516.5,4849,NA
33,1,continuous,26,31,trial,10027202.0,10028402.0,1200.0,26,R,10027433,10027689,258,1449.0,476.8,4576,right
33,1,continuous,26,31,postResponse,10027202.0,10028402.0,1200.0,26,R,10027753,10028727,976,522.3,542.0,4357,left
33,1,continuous,27,35,fixationCross,10029518.0,10030218.0,700.0,27,R,10028825,10029217,394,915.7,443.6,4963,NA
33,1,continuous,27,35,trial,10029518.0,10030218.0,700.0,27,R,10029241,10029689,450,993.9,508.0,5356,NA
33,1,continuous,27,35,trial,10029518.0,10030218.0,700.0,27,R,10029735,10029955,222,641.3,505.0,5218,left
33,1,continuous,27,35,trial,10029518.0,10030218.0,700.0,27,R,10029977,10030451,476,508.9,507.5,4591,left
33,1,continuous,27,35,postResponse,10029518.0,10030218.0,700.0,27,R,10030503,10030563,62,896.6,495.6,4493,NA
33,1,continuous,28,34,fixationCross,10031118.0,10032201.0,1083.0,28,R,10030639,10031093,456,900.5,504.0,5005,NA
33,1,continuous,28,34,trial,10031118.0,10032201.0,1083.0,28,R,10031113,10031307,196,959.9,515.7,5180,NA
33,1,continuous,28,34,trial,10031118.0,10032201.0,1083.0,28,R,10031353,10031669,318,574.6,563.1,5047,left
33,1,continuous,28,34,trial,10031118.0,10032201.0,1083.0,28,R,10031743,10031921,180,1399.2,504.9,4557,right
33,1,continuous,28,34,trial,10031118.0,10032201.0,1083.0,28,R,10031943,10032183,242,1440.8,432.2,4415,right
33,1,continuous,28,34,trial,10031118.0,10032201.0,1083.0,28,R,10032207,10032483,278,1566.7,551.2,4314,right
33,1,continuous,29,88,fixationCross,10033151.0,10034135.0,984.0,29,R,10032645,10032855,212,831.7,491.2,4670,NA
33,1,continuous,29,88,fixationCross,10033151.0,10034135.0,984.0,29,R,10032881,10033141,262,910.4,505.0,4973,NA
33,1,continuous,29,88,trial,10033151.0,10034135.0,984.0,29,R,10033167,10033329,164,957.0,502.5,5069,NA
33,1,continuous,29,88,trial,10033151.0,10034135.0,984.0,29,R,10033387,10033571,186,546.1,552.4,4960,left
33,1,continuous,29,88,trial,10033151.0,10034135.0,984.0,29,R,10033653,10033845,194,1567.4,544.9,4348,right
33,1,continuous,29,88,trial,10033151.0,10034135.0,984.0,29,R,10033861,10034133,274,1597.6,519.5,4145,right
33,1,continuous,29,88,trial,10033151.0,10034135.0,984.0,29,R,10034145,10034399,256,1585.5,490.6,3970,right
33,1,continuous,30,77,fixationCross,10035069.0,10036118.0,1049.0,30,R,10034579,10034699,122,1040.1,514.7,4286,NA
33,1,continuous,30,77,trial,10035069.0,10036118.0,1049.0,30,R,10034725,10035255,532,880.3,497.1,4789,NA
33,1,continuous,30,77,trial,10035069.0,10036118.0,1049.0,30,R,10035301,10035617,318,510.7,530.5,4666,left
33,1,continuous,30,77,trial,10035069.0,10036118.0,1049.0,30,R,10035693,10036409,718,1444.8,504.3,4162,right
33,1,continuous,30,77,postResponse,10035069.0,10036118.0,1049.0,30,R,10036435,10036465,32,1228.9,476.3,4425,right
33,1,continuous,31,20,fixationCross,10037035.0,10037918.0,883.0,31,R,10036539,10036651,114,1065.5,517.0,4590,NA
33,1,continuous,31,20,trial,10037035.0,10037918.0,883.0,31,R,10036675,10037103,430,910.7,488.0,4945,NA
33,1,continuous,31,20,trial,10037035.0,10037918.0,883.0,31,R,10037119,10037225,108,943.4,503.0,5055,NA
33,1,continuous,31,20,trial,10037035.0,10037918.0,883.0,31,R,10037275,10037447,174,465.6,531.7,4930,left
33,1,continuous,31,20,trial,10037035.0,10037918.0,883.0,31,R,10037465,10037651,188,410.9,499.5,4504,left
33,1,continuous,31,20,trial,10037035.0,10037918.0,883.0,31,R,10037731,10038231,502,1334.7,541.8,4286,right
33,1,continuous,32,82,fixationCross,10038985.0,10039802.0,817.0,32,R,10038339,10038631,294,951.1,522.7,4790,NA
33,1,continuous,32,82,fixationCross,10038985.0,10039802.0,817.0,32,R,10038659,10038861,204,849.8,513.1,5014,NA
33,1,continuous,32,82,trial,10038985.0,10039802.0,817.0,32,R,10038887,10039187,302,964.1,519.5,4992,NA
33,1,continuous,32,82,trial,10038985.0,10039802.0,817.0,32,R,10039239,10039657,420,1367.3,490.1,4563,right
33,1,continuous,32,82,postResponse,10038985.0,10039802.0,817.0,32,R,10039673,10040153,482,1398.0,534.8,4388,right
33,1,continuous,33,16,fixationCross,10040902.0,10041769.0,867.0,33,R,10040253,10040607,356,1223.2,516.1,4801,right
33,1,continuous,33,16,trial,10040902.0,10041769.0,867.0,33,R,10040637,10041067,432,956.8,520.8,5052,NA
33,1,continuous,33,16,trial,10040902.0,10041769.0,867.0,33,R,10041117,10041399,284,550.7,548.1,4799,left
33,1,continuous,33,16,postResponse,10040902.0,10041769.0,867.0,33,R,10041413,10042103,692,517.3,535.7,4366,left
33,1,continuous,34,21,fixationCross,10042851.0,10043952.0,1101.0,34,R,10042193,10042555,364,749.0,523.5,4905,NA
33,1,continuous,34,21,trial,10042851.0,10043952.0,1101.0,34,R,10042591,10042989,400,991.9,525.4,5109,NA
33,1,continuous,34,21,trial,10042851.0,10043952.0,1101.0,34,R,10043037,10043229,194,1378.8,502.8,4751,right
33,1,continuous,34,21,trial,10042851.0,10043952.0,1101.0,34,R,10043293,10043715,424,538.1,507.9,4285,left
33,1,continuous,34,21,trial,10042851.0,10043952.0,1101.0,34,R,10043735,10044125,392,527.6,575.5,4371,left
33,1,continuous,34,21,postResponse,10042851.0,10043952.0,1101.0,34,R,10044181,10044303,124,887.0,452.0,4421,NA
33,1,continuous,35,94,fixationCross,10044852.0,10045985.0,1133.0,35,R,10044377,10044425,50,893.3,454.9,4554,NA
33,1,continuous,35,94,fixationCross,10044852.0,10045985.0,1133.0,35,R,10044449,10044793,346,1017.4,488.4,4927,NA
33,1,continuous,35,94,trial,10044852.0,10045985.0,1133.0,35,R,10044817,10045069,254,961.4,506.8,5208,NA
33,1,continuous,35,94,trial,10044852.0,10045985.0,1133.0,35,R,10045121,10045351,232,504.6,560.8,4945,left
33,1,continuous,35,94,trial,10044852.0,10045985.0,1133.0,35,R,10045363,10045429,68,503.5,539.0,4657,left
33,1,continuous,35,94,trial,10044852.0,10045985.0,1133.0,35,R,10045495,10045781,288,1422.1,513.4,4279,right
33,1,continuous,35,94,trial,10044852.0,10045985.0,1133.0,35,R,10045805,10046225,422,1420.2,629.6,4251,right
33,1,continuous,35,94,postResponse,10044852.0,10045985.0,1133.0,35,R,10046291,10046333,44,990.3,495.0,4415,NA
33,1,continuous,36,18,fixationCross,10047185.0,10048151.0,966.0,36,R,10046407,10046631,226,876.9,527.9,4644,NA
33,1,continuous,36,18,fixationCross,10047185.0,10048151.0,966.0,36,R,10046655,10046915,262,742.0,490.1,4926,NA
33,1,continuous,36,18,trial,10047185.0,10048151.0,966.0,36,R,10046943,10047337,396,876.9,502.4,5051,NA
33,1,continuous,36,18,trial,10047185.0,10048151.0,966.0,36,R,10047381,10047673,294,542.7,510.8,4806,left
33,1,continuous,36,18,trial,10047185.0,10048151.0,966.0,36,R,10047739,10048047,310,1455.0,574.2,4166,right
33,1,continuous,36,18,trial,10047185.0,10048151.0,966.0,36,R,10048069,10048457,390,1468.2,501.7,4080,right
33,1,continuous,37,21,fixationCross,10049085.0,10050019.0,934.0,37,R,10048597,10048765,170,1033.3,514.9,4452,NA
33,1,continuous,37,21,trial,10049085.0,10050019.0,934.0,37,R,10048789,10049247,460,925.3,512.5,4851,NA
33,1,continuous,37,21,trial,10049085.0,10050019.0,934.0,37,R,10049295,10049553,260,485.9,540.2,4815,left
33,1,continuous,37,21,trial,10049085.0,10050019.0,934.0,37,R,10049621,10049967,348,1404.2,521.7,4336,right
33,1,continuous,37,21,trial,10049085.0,10050019.0,934.0,37,R,10049987,10050331,346,1449.9,462.2,4334,right
33,1,continuous,38,98,fixationCross,10050918.0,10052118.0,1200.0,38,R,10050437,10050851,416,955.2,566.0,4806,NA
33,1,continuous,38,98,trial,10050918.0,10052118.0,1200.0,38,R,10050869,10051087,220,950.6,515.6,4934,NA
33,1,continuous,38,98,trial,10050918.0,10052118.0,1200.0,38,R,10051139,10051309,172,485.9,508.5,4811,left
33,1,continuous,38,98,trial,10050918.0,10052118.0,1200.0,38,R,10051333,10051577,246,433.2,388.0,4519,left
33,1,continuous,38,98,trial,10050918.0,10052118.0,1200.0,38,R,10051655,10051993,340,1392.9,461.4,4376,right
33,1,continuous,38,98,postResponse,10050918.0,10052118.0,1200.0,38,R,10052011,10052465,456,1437.5,514.9,4504,right
33,1,continuous,39,22,fixationCross,10053252.0,10055069.0,1817.0,39,R,10052539,10052575,38,1434.1,517.5,4636,right
33,1,continuous,39,22,fixationCross,10053252.0,10055069.0,1817.0,39,R,10052601,10052959,360,1129.2,493.1,4999,NA
33,1,continuous,39,22,trial,10053252.0,10055069.0,1817.0,39,R,10052989,10053429,442,954.2,517.6,5249,NA
33,1,continuous,39,22,trial,10053252.0,10055069.0,1817.0,39,R,10053479,10053685,208,537.2,521.6,4965,left
33,1,continuous,39,22,trial,10053252.0,10055069.0,1817.0,39,R,10053707,10053957,252,472.4,609.0,4601,left
33,1,continuous,39,22,trial,10053252.0,10055069.0,1817.0,39,R,10053973,10054429,458,482.2,662.6,4640,left
33,1,continuous,39,22,trial,10053252.0,10055069.0,1817.0,39,R,10054509,10054785,278,1414.4,507.1,4561,right
33,1,continuous,39,22,trial,10053252.0,10055069.0,1817.0,39,R,10054807,10055143,338,1423.5,422.1,4230,right
33,1,continuous,39,22,postResponse,10053252.0,10055069.0,1817.0,39,R,10055163,10055397,236,1469.9,493.2,4146,right
33,1,continuous,40,88,fixationCross,10056035.0,10057368.0,1333.0,40,R,10055487,10055731,246,1108.3,510.6,4600,NA
33,1,continuous,40,88,fixationCross,10056035.0,10057368.0,1333.0,40,R,10055757,10056013,258,928.6,490.5,4903,NA
33,1,continuous,40,88,trial,10056035.0,10057368.0,1333.0,40,R,10056029,10056219,192,961.3,512.4,4980,NA
33,1,continuous,40,88,trial,10056035.0,10057368.0,1333.0,40,R,10056271,10056457,188,523.4,485.4,4816,left
33,1,continuous,40,88,trial,10056035.0,10057368.0,1333.0,40,R,10056531,10057067,538,1398.0,491.0,4153,right
33,1,continuous,40,88,postResponse,10056035.0,10057368.0,1333.0,40,R,10057083,10057715,634,1346.4,466.5,4358,right
33,1,continuous,41,15,fixationCross,10058435.0,10059652.0,1217.0,41,R,10057807,10058115,310,1239.5,491.0,4778,right
33,1,continuous,41,15,trial,10058435.0,10059652.0,1217.0,41,R,10058153,10058605,454,960.7,523.5,5006,NA
33,1,continuous,41,15,trial,10058435.0,10059652.0,1217.0,41,R,10058653,10058871,220,538.5,511.8,4607,left
33,1,continuous,41,15,trial,10058435.0,10059652.0,1217.0,41,R,10058893,10059253,362,554.0,418.3,4111,left
33,1,continuous,41,15,trial,10058435.0,10059652.0,1217.0,41,R,10059277,10059549,274,463.4,493.1,4167,left
33,1,continuous,41,15,postResponse,10058435.0,10059652.0,1217.0,41,R,10059619,10059999,382,1405.7,515.7,4269,right
33,1,continuous,42,89,fixationCross,10060668.0,10061752.0,1084.0,42,R,10060073,10060099,28,1402.1,520.0,4362,right
33,1,continuous,42,89,fixationCross,10060668.0,10061752.0,1084.0,42,R,10060137,10060357,222,1153.1,478.8,4661,NA
33,1,continuous,42,89,fixationCross,10060668.0,10061752.0,1084.0,42,R,10060395,10060643,250,890.5,514.8,4978,NA
33,1,continuous,42,89,trial,10060668.0,10061752.0,1084.0,42,R,10060667,10060825,160,979.8,518.8,4966,NA
33,1,continuous,42,89,trial,10060668.0,10061752.0,1084.0,42,R,10060871,10061069,200,1344.1,504.2,4824,right
33,1,continuous,42,89,trial,10060668.0,10061752.0,1084.0,42,R,10061139,10061505,368,508.0,514.3,4667,left
33,1,continuous,42,89,trial,10060668.0,10061752.0,1084.0,42,R,10061581,10062029,450,1378.3,534.4,4527,right
33,1,continuous,42,89,postResponse,10060668.0,10061752.0,1084.0,42,R,10062051,10062101,52,1261.9,511.9,4685,right
33,1,continuous,43,19,fixationCross,10062669.0,10063685.0,1016.0,43,R,10062177,10062241,66,1249.1,514.5,4754,right
33,1,continuous,43,19,trial,10062669.0,10063685.0,1016.0,43,R,10062273,10062825,554,963.3,507.6,5158,NA
33,1,continuous,43,19,trial,10062669.0,10063685.0,1016.0,43,R,10062875,10063273,400,530.4,554.0,4917,left
33,1,continuous,43,19,postResponse,10062669.0,10063685.0,1016.0,43,R,10063285,10064033,750,499.6,595.4,4427,left
33,1,continuous,44,87,fixationCross,10064601.0,10065852.0,1251.0,44,R,10064133,10064319,188,790.9,522.1,4733,NA
33,1,continuous,44,87,trial,10064601.0,10065852.0,1251.0,44,R,10064347,10064809,464,991.8,528.0,4950,NA
33,1,continuous,44,87,trial,10064601.0,10065852.0,1251.0,44,R,10064863,10065101,240,505.8,499.9,4667,left
33,1,continuous,44,87,trial,10064601.0,10065852.0,1251.0,44,R,10065173,10065509,338,1286.2,555.1,4313,right
33,1,continuous,44,87,trial,10064601.0,10065852.0,1251.0,44,R,10065527,10065923,398,1299.9,623.0,4362,right
33,1,continuous,44,87,postResponse,10064601.0,10065852.0,1251.0,44,R,10065943,10066199,258,1353.0,565.5,4473,right
33,1,continuous,45,82,fixationCross,10066769.0,10068302.0,1533.0,45,R,10066299,10066691,394,1036.0,530.9,4782,NA
33,1,continuous,45,82,trial,10066769.0,10068302.0,1533.0,45,R,10066711,10066951,242,968.7,534.6,4920,NA
33,1,continuous,45,82,trial,10066769.0,10068302.0,1533.0,45,R,10066999,10067227,230,570.7,547.1,4875,left
33,1,continuous,45,82,trial,10066769.0,10068302.0,1533.0,45,R,10067311,10067519,210,1441.9,528.9,4542,right
33,1,continuous,45,82,trial,10066769.0,10068302.0,1533.0,45,R,10067539,10067797,260,1455.7,598.2,4596,right
33,1,continuous,45,82,trial,10066769.0,10068302.0,1533.0,45,R,10067809,10067939,132,1439.7,624.1,4792,right
33,1,continuous,45,82,trial,10066769.0,10068302.0,1533.0,45,R,10067967,10068339,374,1396.0,418.3,4729,right
33,1,continuous,45,82,postResponse,10066769.0,10068302.0,1533.0,45,R,10068349,10068623,276,1384.5,413.6,4744,right
33,1,continuous,46,70,fixationCross,10069236.0,10070285.0,1049.0,46,R,10068753,10068835,84,1228.1,479.6,4861,right
33,1,continuous,46,70,fixationCross,10069236.0,10070285.0,1049.0,46,R,10068871,10069201,332,941.0,538.9,5223,NA
33,1,continuous,46,70,trial,10069236.0,10070285.0,1049.0,46,R,10069213,10069419,208,969.6,531.2,5139,NA
33,1,continuous,46,70,trial,10069236.0,10070285.0,1049.0,46,R,10069471,10069773,304,532.9,560.5,4720,left
33,1,continuous,46,70,trial,10069236.0,10070285.0,1049.0,46,R,10069855,10070345,492,1512.3,533.9,4176,right
33,1,continuous,46,70,trial,10069236.0,10070285.0,1049.0,46,R,10070361,10070601,242,1452.3,514.9,4306,right
33,1,continuous,47,18,fixationCross,10071202.0,10073119.0,1917.0,47,R,10070707,10071189,484,919.3,546.2,4846,NA
33,1,continuous,47,18,trial,10071202.0,10073119.0,1917.0,47,R,10071213,10071423,212,979.0,541.9,5031,NA
33,1,continuous,47,18,trial,10071202.0,10073119.0,1917.0,47,R,10071477,10071741,266,492.8,603.3,4829,left
33,1,continuous,47,18,trial,10071202.0,10073119.0,1917.0,47,R,10071763,10072075,314,448.6,514.9,4528,left
33,1,continuous,47,18,trial,10071202.0,10073119.0,1917.0,47,R,10072093,10072507,416,441.7,581.2,4535,left
33,1,continuous,47,18,trial,10071202.0,10073119.0,1917.0,47,R,10072593,10072919,328,1459.0,514.3,4591,right
33,1,continuous,47,18,trial,10071202.0,10073119.0,1917.0,47,R,10072941,10073171,232,1575.7,463.1,4421,right
33,1,continuous,47,18,trial,10071202.0,10073119.0,1917.0,47,R,10073193,10073369,178,1486.0,468.8,4298,right
33,1,continuous,48,86,fixationCross,10074068.0,10075619.0,1551.0,48,R,10073539,10073761,224,843.1,532.2,4552,NA
33,1,continuous,48,86,fixationCross,10074068.0,10075619.0,1551.0,48,R,10073787,10074019,234,1012.7,500.1,4799,NA
33,1,continuous,48,86,trial,10074068.0,10075619.0,1551.0,48,R,10074041,10074245,206,954.6,517.6,4998,NA
33,1,continuous,48,86,trial,10074068.0,10075619.0,1551.0,48,R,10074295,10074549,256,532.6,526.5,4850,left
33,1,continuous,48,86,trial,10074068.0,10075619.0,1551.0,48,R,10074567,10074693,128,543.4,468.2,4461,left
33,1,continuous,48,86,trial,10074068.0,10075619.0,1551.0,48,R,10074757,10074993,238,1363.7,508.8,4290,right
33,1,continuous,48,86,trial,10074068.0,10075619.0,1551.0,48,R,10075017,10075401,386,1434.6,558.2,4383,right
33,1,continuous,48,86,trial,10074068.0,10075619.0,1551.0,48,R,10075471,10075871,402,558.9,533.4,4725,left
33,1,continuous,49,13,fixationCross,10076552.0,10078219.0,1667.0,49,R,10076065,10076277,214,1004.2,528.8,4739,NA
33,1,continuous,49,13,fixationCross,10076552.0,10078219.0,1667.0,49,R,10076303,10076547,246,878.9,527.2,5019,NA
33,1,continuous,49,13,trial,10076552.0,10078219.0,1667.0,49,R,10076575,10076761,188,1005.6,523.9,5023,NA
33,1,continuous,49,13,trial,10076552.0,10078219.0,1667.0,49,R,10076819,10077009,192,1466.1,535.0,4742,right
33,1,continuous,49,13,trial,10076552.0,10078219.0,1667.0,49,R,10077029,10077143,116,1465.9,465.2,4423,right
33,1,continuous,49,13,trial,10076552.0,10078219.0,1667.0,49,R,10077211,10077413,204,439.5,492.3,4287,left
33,1,continuous,49,13,trial,10076552.0,10078219.0,1667.0,49,R,10077433,10078101,670,481.1,458.1,4309,left
33,1,continuous,49,13,trial,10076552.0,10078219.0,1667.0,49,R,10078159,10078449,292,602.2,961.0,5099,NA
33,1,continuous,49,13,postResponse,10076552.0,10078219.0,1667.0,49,R,10078517,10078567,52,870.9,452.2,4847,NA
33,1,continuous,50,31,fixationCross,10079102.0,10081269.0,2167.0,50,R,10078641,10079069,430,904.7,483.1,4904,NA
33,1,continuous,50,31,trial,10079102.0,10081269.0,2167.0,50,R,10079093,10079279,188,982.8,510.8,5090,NA
33,1,continuous,50,31,trial,10079102.0,10081269.0,2167.0,50,R,10079335,10079497,164,541.3,512.3,5047,left
33,1,continuous,50,31,trial,10079102.0,10081269.0,2167.0,50,R,10079641,10079777,138,489.4,513.3,4573,left
33,1,continuous,50,31,trial,10079102.0,10081269.0,2167.0,50,R,10079797,10080021,226,544.9,544.7,4483,left
33,1,continuous,50,31,trial,10079102.0,10081269.0,2167.0,50,R,10080099,10080285,188,1462.7,532.3,4272,right
33,1,continuous,50,31,trial,10079102.0,10081269.0,2167.0,50,R,10080355,10080563,210,511.3,572.1,4422,left
33,1,continuous,50,31,trial,10079102.0,10081269.0,2167.0,50,R,10080585,10080811,228,457.0,502.8,4550,left
33,1,continuous,50,31,trial,10079102.0,10081269.0,2167.0,50,R,10080833,10081025,194,545.9,523.5,4602,left
33,1,continuous,50,31,trial,10079102.0,10081269.0,2167.0,50,R,10081051,10081575,526,548.3,635.5,4785,left
33,2,binary,1,2,fixationCross,10137953.0,10138970.0,1017.0,51,R,10137497,10137911,416,946.5,447.9,4988,NA
33,2,binary,1,2,trial,10137953.0,10138970.0,1017.0,51,R,10137935,10138137,204,971.0,541.7,5103,NA
33,2,binary,1,2,trial,10137953.0,10138970.0,1017.0,51,R,10138197,10138413,218,1372.0,498.4,4844,right
33,2,binary,1,2,trial,10137953.0,10138970.0,1017.0,51,R,10138477,10138859,384,524.8,507.4,4283,left
33,2,binary,1,2,trial,10137953.0,10138970.0,1017.0,51,R,10138881,10138985,106,451.5,569.1,4271,left
33,2,binary,1,2,trial,10137953.0,10138970.0,1017.0,51,R,10139061,10139283,224,1452.5,957.3,4594,NA
33,2,binary,2,1,fixationCross,10140086.0,10142669.0,2583.0,52,R,10139419,10139781,364,1123.7,629.7,5229,NA
33,2,binary,2,1,trial,10140086.0,10142669.0,2583.0,52,R,10139811,10140339,530,966.3,531.9,5557,NA
33,2,binary,2,1,trial,10140086.0,10142669.0,2583.0,52,R,10140395,10140575,182,538.2,700.9,5663,left
33,2,binary,2,1,trial,10140086.0,10142669.0,2583.0,52,R,10140613,10140793,182,516.8,953.7,5662,NA
33,2,binary,2,1,trial,10140086.0,10142669.0,2583.0,52,R,10140811,10141131,322,491.8,981.3,5590,NA
33,2,binary,2,1,trial,10140086.0,10142669.0,2583.0,52,R,10141211,10141431,222,1462.1,996.7,5440,NA
33,2,binary,2,1,trial,10140086.0,10142669.0,2583.0,52,R,10141495,10141701,208,1435.6,448.2,5431,right
33,2,binary,2,1,trial,10140086.0,10142669.0,2583.0,52,R,10141727,10141883,158,1524.4,497.1,5390,right
33,2,binary,2,1,trial,10140086.0,10142669.0,2583.0,52,R,10141957,10142889,934,497.2,540.9,5177,left
33,2,binary,2,1,postResponse,10140086.0,10142669.0,2583.0,52,R,10142943,10143013,72,984.9,462.1,5243,NA
33,2,binary,3,2,fixationCross,10143769.0,10144636.0,867.0,53,R,10143087,10143309,224,990.1,463.1,5291,NA
33,2,binary,3,2,fixationCross,10143769.0,10144636.0,867.0,53,R,10143353,10143525,174,1129.2,467.3,5347,NA
33,2,binary,3,2,trial,10143769.0,10144636.0,867.0,53,R,10143553,10143907,356,996.9,520.4,5466,NA
33,2,binary,3,2,trial,10143769.0,10144636.0,867.0,53,R,10143959,10144219,262,1415.1,463.6,5162,right
33,2,binary,3,2,postResponse,10143769.0,10144636.0,867.0,53,R,10144235,10144969,736,1351.5,456.2,4419,right
33,2,binary,4,2,fixationCross,10146287.0,10147303.0,1016.0,54,R,10145073,10145355,284,857.2,485.6,4862,NA
33,2,binary,4,2,fixationCross,10146287.0,10147303.0,1016.0,54,R,10145383,10145977,596,718.8,491.8,5054,left
33,2,binary,4,2,fixationCross,10146287.0,10147303.0,1016.0,54,R,10146007,10146237,232,902.7,516.3,5059,NA
33,2,binary,4,2,trial,10146287.0,10147303.0,1016.0,54,R,10146253,10146459,208,946.9,534.3,5167,NA
33,2,binary,4,2,trial,10146287.0,10147303.0,1016.0,54,R,10146507,10146697,192,540.7,521.0,5148,left
33,2,binary,4,2,trial,10146287.0,10147303.0,1016.0,54,R,10146777,10147195,420,1529.5,520.4,4499,right
33,2,binary,4,2,trial,10146287.0,10147303.0,1016.0,54,R,10147213,10147613,402,1553.5,477.2,4411,right
33,2,binary,5,1,fixationCross,10148236.0,10149220.0,984.0,55,R,10147751,10147857,108,1201.3,466.0,4666,right
33,2,binary,5,1,trial,10148236.0,10149220.0,984.0,55,R,10147897,10148427,532,896.4,493.6,5000,NA
33,2,binary,5,1,trial,10148236.0,10149220.0,984.0,55,R,10148481,10148741,262,541.3,567.3,5037,left
33,2,binary,5,1,trial,10148236.0,10149220.0,984.0,55,R,10148815,10149293,480,1402.4,538.9,4594,right
33,2,binary,5,1,postResponse,10148236.0,10149220.0,984.0,55,R,10149313,10149545,234,1449.5,514.4,4459,right
33,2,binary,6,2,fixationCross,10150320.0,10152103.0,1783.0,56,R,10149639,10149841,204,1099.3,461.4,4767,NA
33,2,binary,6,2,fixationCross,10150320.0,10152103.0,1783.0,56,R,10149869,10150085,218,877.5,476.6,4939,NA
33,2,binary,6,2,trial,10150320.0,10152103.0,1783.0,56,R,10150109,10150527,420,965.3,530.8,5042,NA
33,2,binary,6,2,trial,10150320.0,10152103.0,1783.0,56,R,10150575,10150873,300,516.4,596.9,4954,left
33,2,binary,6,2,trial,10150320.0,10152103.0,1783.0,56,R,10150953,10151571,620,1470.2,507.6,4441,right
33,2,binary,6,2,trial,10150320.0,10152103.0,1783.0,56,R,10151595,10152077,484,1453.6,418.6,4711,right
33,2,binary,6,2,postResponse,10150320.0,10152103.0,1783.0,56,R,10152089,10152453,366,1477.5,406.1,4875,right
33,2,binary,7,1,fixationCross,10153203.0,10154903.0,1700.0,57,R,10152533,10152903,372,1196.6,479.4,5241,right
33,2,binary,7,1,trial,10153203.0,10154903.0,1700.0,57,R,10152939,10153397,460,968.0,532.3,5396,NA
33,2,binary,7,1,trial,10153203.0,10154903.0,1700.0,57,R,10153451,10153595,146,1356.9,485.8,5147,right
33,2,binary,7,1,trial,10153203.0,10154903.0,1700.0,57,R,10153657,10154019,364,506.1,513.4,4890,left
33,2,binary,7,1,trial,10153203.0,10154903.0,1700.0,57,R,10154043,10154299,258,358.9,455.7,4666,left
33,2,binary,7,1,trial,10153203.0,10154903.0,1700.0,57,R,10154323,10154767,446,532.6,446.3,4711,left
33,2,binary,7,1,trial,10153203.0,10154903.0,1700.0,57,R,10154799,10155153,356,355.5,469.6,4798,left
33,2,binary,8,1,fixationCross,10156703.0,10157970.0,1267.0,58,R,10155329,10155771,444,1276.4,469.1,4897,right
33,2,binary,8,1,fixationCross,10156703.0,10157970.0,1267.0,58,R,10155797,10156085,290,1141.1,490.9,5100,NA
33,2,binary,8,1,fixationCross,10156703.0,10157970.0,1267.0,58,R,10156113,10156395,284,1313.8,498.0,5083,right
33,2,binary,8,1,fixationCross,10156703.0,10157970.0,1267.0,58,R,10156431,10156689,260,1025.4,521.6,5247,NA
33,2,binary,8,1,trial,10156703.0,10157970.0,1267.0,58,R,10156707,10156867,162,971.4,533.0,5194,NA
33,2,binary,8,1,trial,10156703.0,10157970.0,1267.0,58,R,10156927,10157077,152,1437.8,471.6,4969,right
33,2,binary,8,1,trial,10156703.0,10157970.0,1267.0,58,R,10157099,10157359,262,1529.1,473.4,4605,right
33,2,binary,8,1,trial,10156703.0,10157970.0,1267.0,58,R,10157431,10158253,824,446.0,509.5,4567,left
33,2,binary,9,2,fixationCross,10158920.0,10159837.0,917.0,59,R,10158399,10158625,228,1083.0,502.5,4865,NA
33,2,binary,9,2,fixationCross,10158920.0,10159837.0,917.0,59,R,10158653,10158891,240,952.5,497.9,5111,NA
33,2,binary,9,2,trial,10158920.0,10159837.0,917.0,59,R,10158907,10159079,174,980.0,525.2,5021,NA
33,2,binary,9,2,trial,10158920.0,10159837.0,917.0,59,R,10159125,10159467,344,1396.4,511.7,4740,right
33,2,binary,9,2,trial,10158920.0,10159837.0,917.0,59,R,10159547,10159717,172,408.0,523.1,4508,left
33,2,binary,9,2,trial,10158920.0,10159837.0,917.0,59,R,10159739,10160143,406,387.3,428.2,4315,left
33,2,binary,10,1,fixationCross,10160936.0,10162386.0,1450.0,60,R,10160283,10160511,230,941.8,539.7,4663,NA
33,2,binary,10,1,fixationCross,10160936.0,10162386.0,1450.0,60,R,10160537,10160751,216,809.6,516.5,4990,NA
33,2,binary,10,1,trial,10160936.0,10162386.0,1450.0,60,R,10160781,10161103,324,951.5,518.8,5029,NA
33,2,binary,10,1,trial,10160936.0,10162386.0,1450.0,60,R,10161153,10161433,282,1327.7,471.2,4732,right
33,2,binary,10,1,trial,10160936.0,10162386.0,1450.0,60,R,10161497,10161809,314,526.4,563.8,4336,left
33,2,binary,10,1,trial,10160936.0,10162386.0,1450.0,60,R,10161823,10161913,92,485.4,539.2,4168,left
33,2,binary,10,1,trial,10160936.0,10162386.0,1450.0,60,R,10161977,10162263,288,1386.0,473.2,3895,right
33,2,binary,10,1,trial,10160936.0,10162386.0,1450.0,60,R,10162283,10162619,338,1365.1,557.4,4090,right
33,2,binary,10,1,postResponse,10160936.0,10162386.0,1450.0,60,R,10162671,10162735,66,951.0,490.3,4341,NA
33,2,binary,11,1,fixationCross,10163470.0,10164386.0,916.0,61,R,10162811,10163079,270,918.7,515.5,4560,NA
33,2,binary,11,1,fixationCross,10163470.0,10164386.0,916.0,61,R,10163105,10163279,176,821.7,526.5,4826,NA
33,2,binary,11,1,trial,10163470.0,10164386.0,916.0,61,R,10163307,10163645,340,949.2,532.4,4875,NA
33,2,binary,11,1,trial,10163470.0,10164386.0,916.0,61,R,10163695,10163837,144,518.8,516.8,4830,left
33,2,binary,11,1,trial,10163470.0,10164386.0,916.0,61,R,10163855,10164681,828,472.4,487.4,4457,left
33,2,binary,12,2,fixationCross,10165387.0,10166220.0,833.0,62,R,10164837,10165077,242,1117.2,477.2,4814,NA
33,2,binary,12,2,trial,10165387.0,10166220.0,833.0,62,R,10165103,10165395,294,1029.1,496.3,5029,NA
33,2,binary,12,2,trial,10165387.0,10166220.0,833.0,62,R,10165413,10165559,148,979.5,521.2,5080,NA
33,2,binary,12,2,trial,10165387.0,10166220.0,833.0,62,R,10165609,10165807,200,1369.1,512.5,4873,right
33,2,binary,12,2,trial,10165387.0,10166220.0,833.0,62,R,10165821,10166125,306,1410.6,498.3,4564,right
33,2,binary,12,2,postResponse,10165387.0,10166220.0,833.0,62,R,10166149,10166559,412,1529.9,516.2,4492,right
33,2,binary,13,2,fixationCross,10167336.0,10168170.0,834.0,63,R,10166635,10166739,106,1263.9,502.6,4839,right
33,2,binary,13,2,fixationCross,10167336.0,10168170.0,834.0,63,R,10166779,10167071,294,867.4,506.5,5165,NA
33,2,binary,13,2,trial,10167336.0,10168170.0,834.0,63,R,10167097,10167487,392,965.9,533.5,5204,NA
33,2,binary,13,2,trial,10167336.0,10168170.0,834.0,63,R,10167537,10167703,168,539.6,521.1,5108,left
33,2,binary,13,2,trial,10167336.0,10168170.0,834.0,63,R,10167719,10167841,124,531.0,480.5,4671,left
33,2,binary,13,2,postResponse,10167336.0,10168170.0,834.0,63,R,10167913,10168517,606,1447.4,480.9,4184,right
33,2,binary,14,1,fixationCross,10169319.0,10170620.0,1301.0,64,R,10168617,10168829,214,1359.8,477.2,4463,right
33,2,binary,14,1,fixationCross,10169319.0,10170620.0,1301.0,64,R,10168867,10169019,154,1073.3,516.5,4955,NA
33,2,binary,14,1,trial,10169319.0,10170620.0,1301.0,64,R,10169045,10169495,452,964.8,538.8,5264,NA
33,2,binary,14,1,trial,10169319.0,10170620.0,1301.0,64,R,10169541,10169763,224,1307.7,505.8,5112,right
33,2,binary,14,1,trial,10169319.0,10170620.0,1301.0,64,R,10169789,10170045,258,1472.0,536.0,4740,right
33,2,binary,14,1,trial,10169319.0,10170620.0,1301.0,64,R,10170117,10170309,194,500.8,460.9,4757,left
33,2,binary,14,1,postResponse,10169319.0,10170620.0,1301.0,64,R,10170323,10170937,616,452.2,435.4,4680,left
33,2,binary,15,1,fixationCross,10171520.0,10172486.0,966.0,65,R,10171047,10171483,438,1016.1,526.1,5202,NA
33,2,binary,15,1,trial,10171520.0,10172486.0,966.0,65,R,10171503,10171683,182,950.6,525.7,5357,NA
33,2,binary,15,1,trial,10171520.0,10172486.0,966.0,65,R,10171743,10171865,124,1400.8,515.7,5099,right
33,2,binary,15,1,trial,10171520.0,10172486.0,966.0,65,R,10171939,10172559,622,388.4,464.9,4483,left
33,2,binary,15,1,postResponse,10171520.0,10172486.0,966.0,65,R,10172623,10172821,200,1110.0,476.2,4427,NA
33,2,binary,16,2,fixationCross,10173569.0,10174570.0,1001.0,66,R,10172921,10173027,108,1196.4,535.0,4659,right
33,2,binary,16,2,fixationCross,10173569.0,10174570.0,1001.0,66,R,10173047,10173269,224,1112.9,543.2,4921,NA
33,2,binary,16,2,trial,10173569.0,10174570.0,1001.0,66,R,10173293,10173763,472,965.8,527.7,5034,NA
33,2,binary,16,2,trial,10173569.0,10174570.0,1001.0,66,R,10173813,10174009,198,1421.9,554.2,4810,right
33,2,binary,16,2,trial,10173569.0,10174570.0,1001.0,66,R,10174027,10174189,164,1505.0,546.7,4539,right
33,2,binary,16,2,trial,10173569.0,10174570.0,1001.0,66,R,10174259,10174837,580,528.1,599.1,4590,left
33,2,binary,17,1,fixationCross,10175520.0,10177236.0,1716.0,67,R,10174997,10175211,216,1113.8,523.0,4647,NA
33,2,binary,17,1,fixationCross,10175520.0,10177236.0,1716.0,67,R,10175237,10175461,226,982.3,533.2,4924,NA
33,2,binary,17,1,trial,10175520.0,10177236.0,1716.0,67,R,10175471,10175685,216,961.2,543.6,5068,NA
33,2,binary,17,1,trial,10175520.0,10177236.0,1716.0,67,R,10175731,10175913,184,1343.1,530.2,4907,right
33,2,binary,17,1,trial,10175520.0,10177236.0,1716.0,67,R,10175975,10176243,270,532.2,507.8,4698,left
33,2,binary,17,1,trial,10175520.0,10177236.0,1716.0,67,R,10176319,10176629,312,1419.2,536.5,4526,right
33,2,binary,17,1,trial,10175520.0,10177236.0,1716.0,67,R,10176647,10176843,198,1419.0,484.9,4671,right
33,2,binary,17,1,trial,10175520.0,10177236.0,1716.0,67,R,10176917,10177131,216,396.4,512.2,4815,left
33,2,binary,17,1,postResponse,10175520.0,10177236.0,1716.0,67,R,10177171,10177589,420,576.3,491.7,4636,left
33,2,binary,18,2,fixationCross,10178203.0,10179520.0,1317.0,68,R,10177665,10177711,48,582.2,500.9,4782,left
33,2,binary,18,2,fixationCross,10178203.0,10179520.0,1317.0,68,R,10177735,10177885,152,686.1,525.0,4953,left
33,2,binary,18,2,fixationCross,10178203.0,10179520.0,1317.0,68,R,10177911,10178125,216,897.3,540.9,5081,NA
33,2,binary,18,2,trial,10178203.0,10179520.0,1317.0,68,R,10178143,10178355,214,964.1,540.7,5105,NA
33,2,binary,18,2,trial,10178203.0,10179520.0,1317.0,68,R,10178419,10178631,214,1437.7,490.8,4849,right
33,2,binary,18,2,postResponse,10178203.0,10179520.0,1317.0,68,R,10178645,10179845,1202,1415.3,459.6,4412,right
33,2,binary,19,1,fixationCross,10180470.0,10181787.0,1317.0,69,R,10179975,10180419,446,889.5,526.2,4897,NA
33,2,binary,19,1,trial,10180470.0,10181787.0,1317.0,69,R,10180435,10180629,196,948.9,541.5,4910,NA
33,2,binary,19,1,trial,10180470.0,10181787.0,1317.0,69,R,10180693,10180947,256,1440.1,512.8,4626,right
33,2,binary,19,1,trial,10180470.0,10181787.0,1317.0,69,R,10181015,10181265,252,551.1,582.3,4542,left
33,2,binary,19,1,trial,10180470.0,10181787.0,1317.0,69,R,10181285,10181555,272,475.6,586.5,4432,left
33,2,binary,19,1,trial,10180470.0,10181787.0,1317.0,69,R,10181573,10182029,458,411.3,573.3,4414,left
33,2,binary,19,1,postResponse,10180470.0,10181787.0,1317.0,69,R,10182109,10182137,30,1135.9,449.5,4384,NA
33,2,binary,20,2,fixationCross,10182904.0,10183937.0,1033.0,70,R,10182211,10182461,252,1137.4,490.9,4565,NA
33,2,binary,20,2,fixationCross,10182904.0,10183937.0,1033.0,70,R,10182483,10182659,178,1076.8,521.3,4844,NA
33,2,binary,20,2,trial,10182904.0,10183937.0,1033.0,70,R,10182679,10183057,380,984.4,526.7,4950,NA
33,2,binary,20,2,trial,10182904.0,10183937.0,1033.0,70,R,10183109,10183241,134,1419.9,509.5,4785,right
33,2,binary,20,2,trial,10182904.0,10183937.0,1033.0,70,R,10183263,10183531,270,1528.1,490.7,4467,right
33,2,binary,20,2,trial,10182904.0,10183937.0,1033.0,70,R,10183543,10183887,346,1562.8,479.2,4291,right
33,2,binary,20,2,postResponse,10182904.0,10183937.0,1033.0,70,R,10183897,10184277,382,1584.6,481.3,4362,right
33,2,binary,21,2,fixationCross,10184887.0,10185737.0,850.0,71,R,10184377,10184501,126,1577.5,485.2,4460,right
33,2,binary,21,2,fixationCross,10184887.0,10185737.0,850.0,71,R,10184537,10184563,28,1284.0,474.0,4655,right
33,2,binary,21,2,fixationCross,10184887.0,10185737.0,850.0,71,R,10184595,10184845,252,935.1,533.4,4860,NA
33,2,binary,21,2,trial,10184887.0,10185737.0,850.0,71,R,10184857,10185113,258,958.2,543.2,4865,NA
33,2,binary,21,2,trial,10184887.0,10185737.0,850.0,71,R,10185161,10185293,134,620.3,512.9,4721,left
33,2,binary,21,2,postResponse,10184887.0,10185737.0,850.0,71,R,10185365,10186075,712,1467.7,549.3,4556,right
33,2,binary,22,1,fixationCross,10186669.0,10187670.0,1001.0,72,R,10186177,10186299,124,1314.2,518.0,4690,right
33,2,binary,22,1,fixationCross,10186669.0,10187670.0,1001.0,72,R,10186329,10186631,304,1026.6,528.0,4960,NA
33,2,binary,22,1,trial,10186669.0,10187670.0,1001.0,72,R,10186651,10186865,216,956.6,535.6,5014,NA
33,2,binary,22,1,trial,10186669.0,10187670.0,1001.0,72,R,10186923,10187065,144,425.3,502.0,4886,left
33,2,binary,22,1,trial,10186669.0,10187670.0,1001.0,72,R,10187085,10187947,864,377.4,429.1,4498,left
33,2,binary,23,2,fixationCross,10189436.0,10190887.0,1451.0,73,R,10188115,10188139,26,1274.3,472.0,4686,right
33,2,binary,23,2,fixationCross,10189436.0,10190887.0,1451.0,73,R,10188149,10188577,430,1226.9,510.3,4952,right
33,2,binary,23,2,fixationCross,10189436.0,10190887.0,1451.0,73,R,10188601,10189119,520,1121.1,531.0,5189,NA
33,2,binary,23,2,fixationCross,10189436.0,10190887.0,1451.0,73,R,10189145,10189379,236,990.8,533.9,5202,NA
33,2,binary,23,2,trial,10189436.0,10190887.0,1451.0,73,R,10189389,10189601,214,962.3,538.1,5230,NA
33,2,binary,23,2,trial,10189436.0,10190887.0,1451.0,73,R,10189667,10189991,326,1419.8,488.2,4749,right
33,2,binary,23,2,trial,10189436.0,10190887.0,1451.0,73,R,10190013,10190259,248,1521.6,535.3,4404,right
33,2,binary,23,2,trial,10189436.0,10190887.0,1451.0,73,R,10190273,10190665,394,1478.3,543.0,4371,right
33,2,binary,23,2,trial,10189436.0,10190887.0,1451.0,73,R,10190681,10190839,160,1528.8,548.6,4438,right
33,2,binary,23,2,postResponse,10189436.0,10190887.0,1451.0,73,R,10190917,10191237,322,448.7,480.9,4611,left
33,2,binary,24,1,fixationCross,10191970.0,10193020.0,1050.0,74,R,10191343,10191651,310,735.3,504.7,4634,left
33,2,binary,24,1,fixationCross,10191970.0,10193020.0,1050.0,74,R,10191681,10191895,216,911.0,519.2,4848,NA
33,2,binary,24,1,trial,10191970.0,10193020.0,1050.0,74,R,10191915,10192147,234,960.9,536.6,4940,NA
33,2,binary,24,1,trial,10191970.0,10193020.0,1050.0,74,R,10192211,10192823,614,441.5,539.8,4459,left
33,2,binary,24,1,postResponse,10191970.0,10193020.0,1050.0,74,R,10192833,10193357,526,420.6,548.1,4202,left
33,2,binary,25,2,fixationCross,10194604.0,10195770.0,1166.0,75,R,10193445,10193575,132,522.9,522.3,4468,left
33,2,binary,25,2,fixationCross,10194604.0,10195770.0,1166.0,75,R,10193661,10194351,692,1102.7,525.9,4889,NA
33,2,binary,25,2,fixationCross,10194604.0,10195770.0,1166.0,75,R,10194375,10194599,226,994.3,539.6,5111,NA
33,2,binary,25,2,trial,10194604.0,10195770.0,1166.0,75,R,10194611,10194761,152,960.0,538.1,5187,NA
33,2,binary,25,2,trial,10194604.0,10195770.0,1166.0,75,R,10194821,10194985,166,1439.1,529.7,4904,right
33,2,binary,25,2,trial,10194604.0,10195770.0,1166.0,75,R,10195001,10195131,132,1473.4,500.4,4558,right
33,2,binary,25,2,trial,10194604.0,10195770.0,1166.0,75,R,10195205,10195429,226,400.4,544.3,4458,left
33,2,binary,25,2,trial,10194604.0,10195770.0,1166.0,75,R,10195447,10195709,264,394.9,487.0,4311,left
33,2,binary,25,2,trial,10194604.0,10195770.0,1166.0,75,R,10195803,10196083,282,1564.5,528.4,4251,right
33,2,binary,26,2,fixationCross,10217454.0,10218771.0,1317.0,76,R,10216970,10217350,382,955.7,472.3,4883,NA
33,2,binary,26,2,trial,10217454.0,10218771.0,1317.0,76,R,10217368,10217756,390,964.8,534.4,5295,NA
33,2,binary,26,2,trial,10217454.0,10218771.0,1317.0,76,R,10217820,10218030,212,1433.1,536.8,4547,right
33,2,binary,26,2,trial,10217454.0,10218771.0,1317.0,76,R,10218048,10218196,150,1511.9,523.4,4215,right
33,2,binary,26,2,trial,10217454.0,10218771.0,1317.0,76,R,10218262,10218454,194,556.7,554.0,4098,left
33,2,binary,26,2,trial,10217454.0,10218771.0,1317.0,76,R,10218472,10218738,268,513.9,522.0,3998,left
33,2,binary,26,2,trial,10217454.0,10218771.0,1317.0,76,R,10218806,10219006,202,1413.0,492.3,3978,right
33,2,binary,26,2,postResponse,10217454.0,10218771.0,1317.0,76,R,10219034,10219116,84,1189.4,523.7,4069,right
33,2,binary,27,2,fixationCross,10219670.0,10220353.0,683.0,77,R,10219190,10219276,88,1164.3,538.1,4116,NA
33,2,binary,27,2,fixationCross,10219670.0,10220353.0,683.0,77,R,10219304,10219590,288,981.1,538.4,4538,NA
33,2,binary,27,2,trial,10219670.0,10220353.0,683.0,77,R,10219604,10219812,210,959.8,541.1,4817,NA
33,2,binary,27,2,trial,10219670.0,10220353.0,683.0,77,R,10219864,10220074,212,1386.5,478.0,4681,right
33,2,binary,27,2,trial,10219670.0,10220353.0,683.0,77,R,10220096,10220648,554,1468.5,494.9,4271,right
33,2,binary,27,2,postResponse,10219670.0,10220353.0,683.0,77,R,10220670,10220702,34,1318.8,471.0,4311,right
33,2,binary,28,1,fixationCross,10221237.0,10221937.0,700.0,78,R,10220778,10220842,66,1291.0,481.1,4402,right
33,2,binary,28,1,fixationCross,10221237.0,10221937.0,700.0,78,R,10220874,10221110,238,1046.6,521.3,4756,NA
33,2,binary,28,1,trial,10221237.0,10221937.0,700.0,78,R,10221134,10221388,256,947.0,529.2,5055,NA
33,2,binary,28,1,trial,10221237.0,10221937.0,700.0,78,R,10221452,10221552,102,1450.1,514.9,4849,right
33,2,binary,28,1,trial,10221237.0,10221937.0,700.0,78,R,10221618,10221866,250,486.9,534.0,4702,left
33,2,binary,28,1,trial,10221237.0,10221937.0,700.0,78,R,10221888,10222188,302,410.2,558.6,4471,left
33,2,binary,29,2,fixationCross,10223587.0,10224371.0,784.0,79,R,10222346,10222608,264,1025.4,555.9,4565,NA
33,2,binary,29,2,fixationCross,10223587.0,10224371.0,784.0,79,R,10222630,10223166,538,1101.6,539.1,4898,NA
33,2,binary,29,2,fixationCross,10223587.0,10224371.0,784.0,79,R,10223188,10223398,212,1211.3,520.0,4837,right
33,2,binary,29,2,trial,10223587.0,10224371.0,784.0,79,R,10223424,10223654,232,1006.3,529.3,4904,NA
33,2,binary,29,2,trial,10223587.0,10224371.0,784.0,79,R,10223666,10223816,152,971.7,532.3,4929,NA
33,2,binary,29,2,postResponse,10223587.0,10224371.0,784.0,79,R,10223864,10224718,856,1335.9,493.4,4491,right
33,2,binary,30,1,fixationCross,10225371.0,10226004.0,633.0,80,R,10224800,10225006,208,1160.4,520.8,4766,NA
33,2,binary,30,1,fixationCross,10225371.0,10226004.0,633.0,80,R,10225036,10225254,220,861.1,530.1,5136,NA
33,2,binary,30,1,trial,10225371.0,10226004.0,633.0,80,R,10225278,10225586,310,959.3,543.2,5065,NA
33,2,binary,30,1,trial,10225371.0,10226004.0,633.0,80,R,10225636,10225978,344,529.1,559.2,4834,left
33,2,binary,30,1,postResponse,10225371.0,10226004.0,633.0,80,R,10226042,10226352,312,1358.8,589.7,4428,right
33,2,binary,31,2,fixationCross,10227121.0,10227787.0,666.0,81,R,10226596,10226806,212,1206.4,566.1,4891,right
33,2,binary,31,2,trial,10227121.0,10227787.0,666.0,81,R,10226832,10227260,430,988.9,556.3,5066,NA
33,2,binary,31,2,trial,10227121.0,10227787.0,666.0,81,R,10227306,10228060,756,1403.9,565.4,4469,right
33,2,binary,31,2,postResponse,10227121.0,10227787.0,666.0,81,R,10228078,10228130,54,1342.1,553.2,4345,right
33,2,binary,32,1,fixationCross,10228954.0,10229771.0,817.0,82,R,10228230,10228286,58,1334.9,555.3,4487,right
33,2,binary,32,1,fixationCross,10228954.0,10229771.0,817.0,82,R,10228308,10228626,320,1198.7,557.8,4866,right
33,2,binary,32,1,fixationCross,10228954.0,10229771.0,817.0,82,R,10228650,10228832,184,1002.0,543.0,5154,NA
33,2,binary,32,1,trial,10228954.0,10229771.0,817.0,82,R,10228842,10229152,312,973.0,544.8,5189,NA
33,2,binary,32,1,trial,10228954.0,10229771.0,817.0,82,R,10229202,10229414,214,555.0,522.0,4896,left
33,2,binary,32,1,trial,10228954.0,10229771.0,817.0,82,R,10229434,10229660,228,503.6,468.1,4357,left
33,2,binary,32,1,trial,10228954.0,10229771.0,817.0,82,R,10229676,10230064,390,427.0,427.4,4075,left
33,2,binary,33,2,fixationCross,10230670.0,10231404.0,734.0,83,R,10230192,10230430,240,1034.3,506.7,4328,NA
33,2,binary,33,2,fixationCross,10230670.0,10231404.0,734.0,83,R,10230446,10230660,216,1034.3,553.5,4790,NA
33,2,binary,33,2,trial,10230670.0,10231404.0,734.0,83,R,10230680,10230840,162,973.5,542.4,5004,NA
33,2,binary,33,2,trial,10230670.0,10231404.0,734.0,83,R,10230898,10231114,218,1402.2,569.6,4791,right
33,2,binary,33,2,trial,10230670.0,10231404.0,734.0,83,R,10231128,10231666,540,1448.1,584.6,4321,right
33,2,binary,33,2,postResponse,10230670.0,10231404.0,734.0,83,R,10231706,10231768,64,1128.5,545.5,4313,NA
33,2,binary,34,2,fixationCross,10232337.0,10233037.0,700.0,84,R,10231868,10231932,66,1112.2,544.4,4518,NA
33,2,binary,34,2,fixationCross,10232337.0,10233037.0,700.0,84,R,10231958,10232290,334,909.5,542.7,4956,NA
33,2,binary,34,2,trial,10232337.0,10233037.0,700.0,84,R,10232306,10232498,194,950.5,542.1,5135,NA
33,2,binary,34,2,trial,10232337.0,10233037.0,700.0,84,R,10232552,10233092,542,1345.3,499.9,4669,right
33,2,binary,34,2,postResponse,10232337.0,10233037.0,700.0,84,R,10233120,10233372,254,1458.6,499.4,4588,right
33,2,binary,35,1,fixationCross,10234287.0,10234954.0,667.0,85,R,10233446,10233652,208,1242.7,525.3,4797,right
33,2,binary,35,1,fixationCross,10234287.0,10234954.0,667.0,85,R,10233678,10233996,320,1103.2,559.5,5094,NA
33,2,binary,35,1,trial,10234287.0,10234954.0,667.0,85,R,10234018,10234490,474,1020.7,548.4,5059,NA
33,2,binary,35,1,trial,10234287.0,10234954.0,667.0,85,R,10234546,10235228,684,497.9,510.0,4565,left
33,2,binary,35,1,postResponse,10234287.0,10234954.0,667.0,85,R,10235254,10235300,48,806.2,478.8,4314,NA
33,2,binary,36,2,fixationCross,10236104.0,10237138.0,1034.0,86,R,10235400,10235708,310,1022.8,556.2,4609,NA
33,2,binary,36,2,fixationCross,10236104.0,10237138.0,1034.0,86,R,10235732,10235974,244,1088.6,539.9,4862,NA
33,2,binary,36,2,trial,10236104.0,10237138.0,1034.0,86,R,10235992,10236302,312,1019.9,534.5,4890,NA
33,2,binary,36,2,trial,10236104.0,10237138.0,1034.0,86,R,10236354,10237038,686,1423.4,481.5,4387,right
33,2,binary,36,2,postResponse,10236104.0,10237138.0,1034.0,86,R,10237108,10237472,366,511.7,540.7,4485,left
33,2,binary,37,2,fixationCross,10238270.0,10239221.0,951.0,87,R,10237582,10237776,196,851.5,496.9,4661,NA
33,2,binary,37,2,fixationCross,10238270.0,10239221.0,951.0,87,R,10237810,10238014,206,1124.0,499.3,4876,NA
33,2,binary,37,2,fixationCross,10238270.0,10239221.0,951.0,87,R,10238038,10238168,132,1018.5,528.4,5120,NA
33,2,binary,37,2,trial,10238270.0,10239221.0,951.0,87,R,10238186,10238446,262,958.4,539.1,5218,NA
33,2,binary,37,2,trial,10238270.0,10239221.0,951.0,87,R,10238508,10238948,442,1471.8,561.5,4539,right
33,2,binary,37,2,trial,10238270.0,10239221.0,951.0,87,R,10238966,10239292,328,1449.1,624.7,4281,right
33,2,binary,37,2,postResponse,10238270.0,10239221.0,951.0,87,R,10239312,10239568,258,1490.8,563.8,4362,right
33,2,binary,38,2,fixationCross,10240403.0,10241288.0,885.0,88,R,10239668,10239768,102,1366.7,560.2,4517,right
33,2,binary,38,2,fixationCross,10240403.0,10241288.0,885.0,88,R,10239802,10240062,262,1088.1,534.0,4917,NA
33,2,binary,38,2,trial,10240403.0,10241288.0,885.0,88,R,10240086,10240566,482,971.0,540.7,5062,NA
33,2,binary,38,2,trial,10240403.0,10241288.0,885.0,88,R,10240606,10240902,298,1391.9,499.3,4623,right
33,2,binary,38,2,trial,10240403.0,10241288.0,885.0,88,R,10240920,10241242,324,1460.7,492.8,4095,right
33,2,binary,38,2,trial,10240403.0,10241288.0,885.0,88,R,10241266,10241596,332,1474.6,597.8,4049,right
33,2,binary,39,2,fixationCross,10242204.0,10243071.0,867.0,89,R,10241698,10241826,130,1228.0,545.9,4336,right
33,2,binary,39,2,fixationCross,10242204.0,10243071.0,867.0,89,R,10241864,10242156,294,936.1,540.8,4827,NA
33,2,binary,39,2,trial,10242204.0,10243071.0,867.0,89,R,10242168,10242364,198,962.3,547.7,5021,NA
33,2,binary,39,2,trial,10242204.0,10243071.0,867.0,89,R,10242414,10242624,212,558.9,548.8,4897,left
33,2,binary,39,2,trial,10242204.0,10243071.0,867.0,89,R,10242696,10243018,324,1374.2,563.5,4347,right
33,2,binary,39,2,trial,10242204.0,10243071.0,867.0,89,R,10243036,10243386,352,1416.0,501.9,4095,right
33,2,binary,40,1,fixationCross,10244004.0,10244870.0,866.0,90,R,10243516,10243636,122,1225.8,542.5,4382,right
33,2,binary,40,1,fixationCross,10244004.0,10244870.0,866.0,90,R,10243664,10243902,240,1039.8,550.7,4813,NA
33,2,binary,40,1,trial,10244004.0,10244870.0,866.0,90,R,10243928,10244148,222,957.3,545.4,4998,NA
33,2,binary,40,1,trial,10244004.0,10244870.0,866.0,90,R,10244186,10244372,188,1329.5,553.7,4787,right
33,2,binary,40,1,trial,10244004.0,10244870.0,866.0,90,R,10244438,10244766,330,486.6,641.5,4569,left
33,2,binary,40,1,trial,10244004.0,10244870.0,866.0,90,R,10244792,10245146,356,518.5,480.3,4289,left
33,2,binary,40,1,postResponse,10244004.0,10244870.0,866.0,90,R,10245174,10245218,46,823.6,493.1,4374,NA
33,2,binary,41,1,fixationCross,10245804.0,10246904.0,1100.0,91,R,10245320,10245444,126,861.1,526.1,4619,NA
33,2,binary,41,1,trial,10245804.0,10246904.0,1100.0,91,R,10245478,10245822,346,1054.7,541.6,4953,NA
33,2,binary,41,1,trial,10245804.0,10246904.0,1100.0,91,R,10245846,10246024,180,1126.1,554.6,4965,NA
33,2,binary,41,1,trial,10245804.0,10246904.0,1100.0,91,R,10246050,10246316,268,1350.4,512.4,4588,right
33,2,binary,41,1,trial,10245804.0,10246904.0,1100.0,91,R,10246382,10247170,790,459.7,565.6,4332,left
33,2,binary,41,1,postResponse,10245804.0,10246904.0,1100.0,91,R,10247194,10247260,68,714.5,524.3,4494,left
33,2,binary,42,1,fixationCross,10247837.0,10249871.0,2034.0,92,R,10247360,10247482,124,830.7,556.2,4632,NA
33,2,binary,42,1,fixationCross,10247837.0,10249871.0,2034.0,92,R,10247506,10247798,294,976.7,568.0,4804,NA
33,2,binary,42,1,trial,10247837.0,10249871.0,2034.0,92,R,10247808,10247982,176,969.1,552.7,4820,NA
33,2,binary,42,1,trial,10247837.0,10249871.0,2034.0,92,R,10248030,10248262,234,1401.2,540.8,4580,right
33,2,binary,42,1,trial,10247837.0,10249871.0,2034.0,92,R,10248328,10248528,202,475.2,521.1,4529,left
33,2,binary,42,1,trial,10247837.0,10249871.0,2034.0,92,R,10248604,10248760,158,1339.4,583.3,4384,right
33,2,binary,42,1,trial,10247837.0,10249871.0,2034.0,92,R,10248784,10249480,698,1447.5,618.0,4469,right
33,2,binary,42,1,trial,10247837.0,10249871.0,2034.0,92,R,10249558,10249840,284,465.9,518.2,4908,left
33,2,binary,42,1,trial,10247837.0,10249871.0,2034.0,92,R,10249862,10250186,326,498.2,429.9,4724,left
33,2,binary,43,1,fixationCross,10250820.0,10252005.0,1185.0,93,R,10250320,10250746,428,912.5,545.0,5080,NA
33,2,binary,43,1,trial,10250820.0,10252005.0,1185.0,93,R,10250768,10251000,234,948.5,539.9,5133,NA
33,2,binary,43,1,trial,10250820.0,10252005.0,1185.0,93,R,10251046,10251168,124,1296.9,502.8,4836,right
33,2,binary,43,1,trial,10250820.0,10252005.0,1185.0,93,R,10251234,10251448,216,459.4,531.6,4465,left
33,2,binary,43,1,trial,10250820.0,10252005.0,1185.0,93,R,10251460,10251930,472,450.5,509.4,4153,left
33,2,binary,43,1,postResponse,10250820.0,10252005.0,1185.0,93,R,10251994,10252352,360,1325.1,473.9,4063,right
33,2,binary,44,2,fixationCross,10253087.0,10254221.0,1134.0,94,R,10252432,10252668,238,983.0,550.0,4374,NA
33,2,binary,44,2,fixationCross,10253087.0,10254221.0,1134.0,94,R,10252694,10252894,202,804.3,545.7,4663,NA
33,2,binary,44,2,trial,10253087.0,10254221.0,1134.0,94,R,10252920,10253248,330,940.6,541.4,4736,NA
33,2,binary,44,2,trial,10253087.0,10254221.0,1134.0,94,R,10253300,10253576,278,1373.6,541.0,4610,right
33,2,binary,44,2,trial,10253087.0,10254221.0,1134.0,94,R,10253586,10253698,114,1354.7,557.4,4485,right
33,2,binary,44,2,trial,10253087.0,10254221.0,1134.0,94,R,10253764,10254064,302,529.6,611.5,4638,left
33,2,binary,44,2,trial,10253087.0,10254221.0,1134.0,94,R,10254088,10254502,416,364.3,530.7,4475,left
33,2,binary,45,2,fixationCross,10255171.0,10256088.0,917.0,95,R,10254680,10254848,170,1097.5,573.9,4520,NA
33,2,binary,45,2,trial,10255171.0,10256088.0,917.0,95,R,10254872,10255310,440,1001.5,552.3,4771,NA
33,2,binary,45,2,trial,10255171.0,10256088.0,917.0,95,R,10255358,10255574,218,1413.6,548.4,4650,right
33,2,binary,45,2,trial,10255171.0,10256088.0,917.0,95,R,10255596,10255824,230,1452.2,460.7,4403,right
33,2,binary,45,2,trial,10255171.0,10256088.0,917.0,95,R,10255836,10256100,266,1453.0,441.8,4277,right
33,2,binary,45,2,postResponse,10255171.0,10256088.0,917.0,95,R,10256126,10256436,312,1572.9,542.9,4237,right
33,2,binary,46,1,fixationCross,10257188.0,10258121.0,933.0,96,R,10256510,10256670,162,1429.7,547.2,4504,right
33,2,binary,46,1,fixationCross,10257188.0,10258121.0,933.0,96,R,10256712,10256890,180,1134.8,538.6,4769,NA
33,2,binary,46,1,trial,10257188.0,10258121.0,933.0,96,R,10256920,10257344,426,946.6,538.9,4880,NA
33,2,binary,46,1,trial,10257188.0,10258121.0,933.0,96,R,10257398,10257526,130,1404.5,505.5,4739,right
33,2,binary,46,1,trial,10257188.0,10258121.0,933.0,96,R,10257550,10257692,144,1551.6,496.2,4489,right
33,2,binary,46,1,trial,10257188.0,10258121.0,933.0,96,R,10257770,10258140,372,390.7,554.7,4478,left
33,2,binary,46,1,trial,10257188.0,10258121.0,933.0,96,R,10258156,10258394,240,404.0,525.0,4253,left
33,2,binary,47,2,trial,10259071.0,10260355.0,1284.0,97,R,10258568,10259222,656,1038.0,528.9,4793,NA
33,2,binary,47,2,trial,10259071.0,10260355.0,1284.0,97,R,10259268,10259834,568,1429.6,544.5,4713,right
33,2,binary,47,2,trial,10259071.0,10260355.0,1284.0,97,R,10259906,10260118,214,382.1,536.3,4651,left
33,2,binary,47,2,trial,10259071.0,10260355.0,1284.0,97,R,10260138,10260580,444,377.7,469.8,4373,left
33,2,binary,47,2,postResponse,10259071.0,10260355.0,1284.0,97,R,10260666,10260706,42,1200.5,476.7,4290,right
33,2,binary,48,2,fixationCross,10261454.0,10262455.0,1001.0,98,R,10260782,10260926,146,1217.4,510.7,4470,right
33,2,binary,48,2,fixationCross,10261454.0,10262455.0,1001.0,98,R,10260952,10261154,204,1103.0,534.7,4828,NA
33,2,binary,48,2,trial,10261454.0,10262455.0,1001.0,98,R,10261182,10261602,422,965.9,533.8,4961,NA
33,2,binary,48,2,trial,10261454.0,10262455.0,1001.0,98,R,10261662,10261854,194,1425.7,506.5,4670,right
33,2,binary,48,2,trial,10261454.0,10262455.0,1001.0,98,R,10261878,10262326,450,1436.2,402.9,4201,right
33,2,binary,48,2,postResponse,10261454.0,10262455.0,1001.0,98,R,10262396,10262800,406,559.6,551.4,4333,left
33,2,binary,49,1,fixationCross,10263438.0,10264804.0,1366.0,99,R,10262876,10263120,246,798.6,485.1,4490,NA
33,2,binary,49,1,fixationCross,10263438.0,10264804.0,1366.0,99,R,10263144,10263360,218,928.8,515.1,4840,NA
33,2,binary,49,1,trial,10263438.0,10264804.0,1366.0,99,R,10263378,10263622,246,968.2,538.1,5112,NA
33,2,binary,49,1,trial,10263438.0,10264804.0,1366.0,99,R,10263676,10263954,280,1400.7,519.2,4834,right
33,2,binary,49,1,trial,10263438.0,10264804.0,1366.0,99,R,10263978,10264120,144,1328.3,611.2,4713,right
33,2,binary,49,1,trial,10263438.0,10264804.0,1366.0,99,R,10264186,10264824,640,456.4,679.9,4591,left
33,2,binary,49,1,trial,10263438.0,10264804.0,1366.0,99,R,10264902,10265118,218,1451.1,506.6,4215,right
33,2,binary,50,2,fixationCross,10265921.0,10266971.0,1050.0,100,R,10265224,10265616,394,1154.3,525.0,4677,NA
33,2,binary,50,2,trial,10265921.0,10266971.0,1050.0,100,R,10265642,10266278,638,1002.2,526.9,4963,NA
33,2,binary,50,2,trial,10265921.0,10266971.0,1050.0,100,R,10266330,10266560,232,1432.4,502.6,4665,right
33,2,binary,50,2,postResponse,10265921.0,10266971.0,1050.0,100,R,10266582,10267296,716,1431.2,427.9,4528,right
33,3,valuation,1,4,fixationCross,10344539.0,10345372.0,833.0,101,R,10343825,10344253,430,1043.8,427.5,5314,NA
33,3,valuation,1,4,trial,10344539.0,10345372.0,833.0,101,R,10344279,10344681,404,955.7,561.4,5498,NA
33,3,valuation,1,4,trial,10344539.0,10345372.0,833.0,101,R,10344743,10345011,270,1380.8,484.0,5119,right
33,3,valuation,1,4,trial,10344539.0,10345372.0,833.0,101,R,10345089,10345647,560,504.4,501.2,4695,likertVertical
33,3,valuation,1,4,postResponse,10344539.0,10345372.0,833.0,101,R,10345697,10345725,30,995.6,574.1,4818,NA
33,3,valuation,2,4,fixationCross,10346505.0,10348372.0,1867.0,102,R,10345825,10345989,166,1010.4,586.2,5005,NA
33,3,valuation,2,4,fixationCross,10346505.0,10348372.0,1867.0,102,R,10346015,10346219,206,1127.6,534.0,5248,NA
33,3,valuation,2,4,trial,10346505.0,10348372.0,1867.0,102,R,10346249,10346641,394,975.0,552.6,5442,NA
33,3,valuation,2,4,trial,10346505.0,10348372.0,1867.0,102,R,10346685,10346835,152,1350.0,520.0,5302,right
33,3,valuation,2,4,trial,10346505.0,10348372.0,1867.0,102,R,10346893,10347007,116,614.7,533.9,5391,likertVertical
33,3,valuation,2,4,trial,10346505.0,10348372.0,1867.0,102,R,10347031,10347373,344,505.4,533.6,5180,likertVertical
33,3,valuation,2,4,trial,10346505.0,10348372.0,1867.0,102,R,10347441,10347655,216,1439.3,454.9,4860,right
33,3,valuation,2,4,trial,10346505.0,10348372.0,1867.0,102,R,10347711,10347827,118,1248.8,744.7,4998,NA
33,3,valuation,2,4,trial,10346505.0,10348372.0,1867.0,102,R,10347883,10348061,180,1527.4,420.8,4924,right
33,3,valuation,2,4,postResponse,10346505.0,10348372.0,1867.0,102,R,10348083,10348717,636,1566.1,369.0,4881,right
33,3,valuation,3,6,fixationCross,10349405.0,10353823.0,4418.0,103,R,10348821,10349145,326,1227.3,471.5,5249,right
33,3,valuation,3,6,trial,10349405.0,10353823.0,4418.0,103,R,10349183,10349567,386,974.1,547.6,5437,NA
33,3,valuation,3,6,trial,10349405.0,10353823.0,4418.0,103,R,10349609,10349737,130,1228.4,481.9,5174,right
33,3,valuation,3,6,trial,10349405.0,10353823.0,4418.0,103,R,10349793,10349963,172,581.5,575.0,5058,likertVertical
33,3,valuation,3,6,trial,10349405.0,10353823.0,4418.0,103,R,10349981,10350175,196,516.2,546.1,4879,likertVertical
33,3,valuation,3,6,trial,10349405.0,10353823.0,4418.0,103,R,10350215,10350365,152,595.9,350.9,4648,likertVertical
33,3,valuation,3,6,trial,10349405.0,10353823.0,4418.0,103,R,10350389,10350679,292,621.3,251.3,4565,likertVertical
33,3,valuation,3,6,trial,10349405.0,10353823.0,4418.0,103,R,10350729,10351219,492,499.3,529.3,4928,likertVertical
33,3,valuation,3,6,trial,10349405.0,10353823.0,4418.0,103,R,10351261,10351411,152,500.1,286.4,5156,likertVertical
33,3,valuation,3,6,trial,10349405.0,10353823.0,4418.0,103,R,10351435,10351591,158,596.7,251.5,5249,likertVertical
33,3,valuation,3,6,trial,10349405.0,10353823.0,4418.0,103,R,10351671,10352523,854,1439.9,488.0,5103,right
33,3,valuation,3,6,trial,10349405.0,10353823.0,4418.0,103,R,10352545,10352835,292,1335.1,511.8,5113,right
33,3,valuation,3,6,trial,10349405.0,10353823.0,4418.0,103,R,10352853,10353429,578,1392.8,468.7,4948,right
33,3,valuation,3,6,trial,10349405.0,10353823.0,4418.0,103,R,10353451,10353623,174,1477.5,518.5,5098,right
33,3,valuation,3,6,trial,10349405.0,10353823.0,4418.0,103,R,10353695,10353797,104,576.1,425.1,5351,likertVertical
33,3,valuation,3,6,postResponse,10349405.0,10353823.0,4418.0,103,R,10353819,10354159,342,495.6,390.9,5025,likertVertical
33,3,valuation,4,5,fixationCross,10355006.0,10356155.0,1149.0,104,R,10354239,10354457,220,878.4,441.7,4960,NA
33,3,valuation,4,5,fixationCross,10355006.0,10356155.0,1149.0,104,R,10354501,10354787,288,1199.4,451.8,5143,right
33,3,valuation,4,5,trial,10355006.0,10356155.0,1149.0,104,R,10354821,10355065,246,985.1,542.5,5419,NA
33,3,valuation,4,5,trial,10355006.0,10356155.0,1149.0,104,R,10355103,10355215,114,1188.5,474.8,5310,right
33,3,valuation,4,5,trial,10355006.0,10356155.0,1149.0,104,R,10355243,10355439,198,1397.5,435.4,5112,right
33,3,valuation,4,5,trial,10355006.0,10356155.0,1149.0,104,R,10355459,10355895,438,1422.7,380.3,4852,right
33,3,valuation,4,5,trial,10355006.0,10356155.0,1149.0,104,R,10355967,10356407,442,498.8,435.8,5051,likertVertical
33,3,valuation,5,5,fixationCross,10358305.0,10359839.0,1534.0,105,R,10356583,10356915,334,1295.5,463.6,4912,right
33,3,valuation,5,5,fixationCross,10358305.0,10359839.0,1534.0,105,R,10356945,10357137,194,1140.7,481.4,5182,NA
33,3,valuation,5,5,fixationCross,10358305.0,10359839.0,1534.0,105,R,10357165,10357827,664,1276.8,478.4,5186,right
33,3,valuation,5,5,fixationCross,10358305.0,10359839.0,1534.0,105,R,10357843,10358025,184,1313.9,476.2,5130,right
33,3,valuation,5,5,trial,10358305.0,10359839.0,1534.0,105,R,10358069,10358467,400,969.3,525.8,5286,NA
33,3,valuation,5,5,trial,10358305.0,10359839.0,1534.0,105,R,10358525,10358761,238,1372.9,490.8,4977,right
33,3,valuation,5,5,trial,10358305.0,10359839.0,1534.0,105,R,10358783,10358987,206,1413.7,579.3,4558,right
33,3,valuation,5,5,trial,10358305.0,10359839.0,1534.0,105,R,10359057,10359371,316,518.4,605.7,4595,likertVertical
33,3,valuation,5,5,trial,10358305.0,10359839.0,1534.0,105,R,10359421,10359811,392,499.9,407.0,4749,likertVertical
33,3,valuation,5,5,trial,10358305.0,10359839.0,1534.0,105,R,10359879,10360133,256,1425.9,507.5,4800,right
33,3,valuation,5,5,postResponse,10358305.0,10359839.0,1534.0,105,R,10360155,10360183,30,1351.6,496.1,4742,right
33,3,valuation,6,6,fixationCross,10361722.0,10363172.0,1450.0,106,R,10360257,10360563,308,1338.5,498.6,4803,right
33,3,valuation,6,6,fixationCross,10361722.0,10363172.0,1450.0,106,R,10360591,10360763,174,1140.4,518.8,5105,NA
33,3,valuation,6,6,fixationCross,10361722.0,10363172.0,1450.0,106,R,10360793,10361423,632,1254.6,514.1,5144,right
33,3,valuation,6,6,fixationCross,10361722.0,10363172.0,1450.0,106,R,10361451,10361593,144,1042.8,531.6,5178,NA
33,3,valuation,6,6,trial,10361722.0,10363172.0,1450.0,106,R,10361615,10361865,252,969.4,534.7,5219,NA
33,3,valuation,6,6,trial,10361722.0,10363172.0,1450.0,106,R,10361925,10362133,210,1435.8,515.2,4909,right
33,3,valuation,6,6,trial,10361722.0,10363172.0,1450.0,106,R,10362155,10362377,224,1514.8,442.1,4521,right
33,3,valuation,6,6,trial,10361722.0,10363172.0,1450.0,106,R,10362455,10363043,590,506.2,427.3,4551,likertVertical
33,3,valuation,6,6,trial,10361722.0,10363172.0,1450.0,106,R,10363061,10363215,156,497.5,369.4,4798,likertVertical
33,3,valuation,6,6,postResponse,10361722.0,10363172.0,1450.0,106,R,10363295,10363519,226,1440.9,445.2,4752,right
33,3,valuation,7,2,fixationCross,10365223.0,10366622.0,1399.0,107,R,10363593,10363741,150,1437.8,447.7,4906,right
33,3,valuation,7,2,fixationCross,10365223.0,10366622.0,1399.0,107,R,10363751,10364251,502,1442.5,475.1,5088,right
33,3,valuation,7,2,fixationCross,10365223.0,10366622.0,1399.0,107,R,10364295,10364943,650,1106.8,530.7,5260,NA
33,3,valuation,7,2,trial,10365223.0,10366622.0,1399.0,107,R,10364969,10365365,398,982.2,545.8,5181,NA
33,3,valuation,7,2,trial,10365223.0,10366622.0,1399.0,107,R,10365411,10365831,422,1388.4,541.3,4665,right
33,3,valuation,7,2,trial,10365223.0,10366622.0,1399.0,107,R,10365855,10366223,370,1547.4,531.3,4187,right
33,3,valuation,7,2,postResponse,10365223.0,10366622.0,1399.0,107,R,10366249,10366969,722,1353.7,542.0,4392,right
33,3,valuation,8,3,fixationCross,10369572.0,10370672.0,1100.0,108,R,10367069,10367287,220,1389.6,522.2,4638,right
33,3,valuation,8,3,fixationCross,10369572.0,10370672.0,1100.0,108,R,10367307,10367621,316,1345.0,552.6,4901,right
33,3,valuation,8,3,fixationCross,10369572.0,10370672.0,1100.0,108,R,10367635,10368163,530,1377.0,554.9,4980,right
33,3,valuation,8,3,fixationCross,10369572.0,10370672.0,1100.0,108,R,10368185,10368593,410,1437.9,527.5,5021,right
33,3,valuation,8,3,fixationCross,10369572.0,10370672.0,1100.0,108,R,10368615,10369293,680,1354.5,526.5,5065,right
33,3,valuation,8,3,trial,10369572.0,10370672.0,1100.0,108,R,10369343,10369615,274,952.2,544.5,5265,NA
33,3,valuation,8,3,trial,10369572.0,10370672.0,1100.0,108,R,10369623,10369747,126,962.1,538.6,5186,NA
33,3,valuation,8,3,trial,10369572.0,10370672.0,1100.0,108,R,10369807,10370981,1176,1473.2,501.8,4364,right
33,3,valuation,9,3,fixationCross,10375606.0,10376755.0,1149.0,109,R,10371093,10371645,554,1432.1,508.1,4839,right
33,3,valuation,9,3,fixationCross,10375606.0,10376755.0,1149.0,109,R,10371657,10372341,686,1445.9,521.2,5039,right
33,3,valuation,9,3,fixationCross,10375606.0,10376755.0,1149.0,109,R,10372355,10373629,1276,1410.5,498.7,5110,right
33,3,valuation,9,3,fixationCross,10375606.0,10376755.0,1149.0,109,R,10373677,10374213,538,1091.3,524.6,5279,NA
33,3,valuation,9,3,fixationCross,10375606.0,10376755.0,1149.0,109,R,10374257,10375093,838,1359.4,516.0,4916,right
33,3,valuation,9,3,fixationCross,10375606.0,10376755.0,1149.0,109,R,10375107,10375301,196,1400.6,508.8,5000,right
33,3,valuation,9,3,fixationCross,10375606.0,10376755.0,1149.0,109,R,10375345,10375555,212,942.7,538.8,5170,NA
33,3,valuation,9,3,trial,10375606.0,10376755.0,1149.0,109,R,10375565,10375785,222,961.7,546.1,5022,NA
33,3,valuation,9,3,trial,10375606.0,10376755.0,1149.0,109,R,10375841,10376007,168,1410.6,572.7,4633,right
33,3,valuation,9,3,trial,10375606.0,10376755.0,1149.0,109,R,10376029,10377047,1020,1526.5,585.0,4353,right
33,3,valuation,9,3,postResponse,10375606.0,10376755.0,1149.0,109,R,10377069,10377101,34,1450.6,564.9,4617,right
33,3,valuation,10,3,fixationCross,10377973.0,10378872.0,899.0,110,R,10377183,10377663,482,1432.0,579.7,4777,right
33,3,valuation,10,3,trial,10377973.0,10378872.0,899.0,110,R,10377715,10378111,398,1014.0,544.3,5039,NA
33,3,valuation,10,3,postResponse,10377973.0,10378872.0,899.0,110,R,10378159,10379219,1062,1451.8,569.6,4903,right
33,3,valuation,11,6,fixationCross,10381489.0,10382455.0,966.0,111,R,10379295,10379343,50,1439.0,565.6,5121,right
33,3,valuation,11,6,fixationCross,10381489.0,10382455.0,966.0,111,R,10379365,10379805,442,1346.1,553.6,5211,right
33,3,valuation,11,6,fixationCross,10381489.0,10382455.0,966.0,111,R,10379825,10380749,926,1413.7,573.8,5169,right
33,3,valuation,11,6,fixationCross,10381489.0,10382455.0,966.0,111,R,10380771,10381173,404,1462.8,534.3,5237,right
33,3,valuation,11,6,fixationCross,10381489.0,10382455.0,966.0,111,R,10381229,10381443,216,994.8,544.9,5298,NA
33,3,valuation,11,6,trial,10381489.0,10382455.0,966.0,111,R,10381455,10381633,180,963.0,539.0,5151,NA
33,3,valuation,11,6,trial,10381489.0,10382455.0,966.0,111,R,10381679,10381955,278,1393.4,555.6,4696,right
33,3,valuation,11,6,postResponse,10381489.0,10382455.0,966.0,111,R,10381977,10382797,822,1482.0,465.5,4108,right
33,3,valuation,12,5,fixationCross,10385672.0,10386689.0,1017.0,112,R,10382873,10382975,104,1472.5,473.8,4244,right
33,3,valuation,12,5,fixationCross,10385672.0,10386689.0,1017.0,112,R,10382995,10383317,324,1398.0,489.4,4708,right
33,3,valuation,12,5,fixationCross,10385672.0,10386689.0,1017.0,112,R,10383339,10383775,438,1472.2,495.9,5044,right
33,3,valuation,12,5,fixationCross,10385672.0,10386689.0,1017.0,112,R,10383795,10384315,522,1409.6,508.8,5073,right
33,3,valuation,12,5,fixationCross,10385672.0,10386689.0,1017.0,112,R,10384333,10384895,564,1464.1,502.6,4988,right
33,3,valuation,12,5,fixationCross,10385672.0,10386689.0,1017.0,112,R,10384913,10385371,460,1408.7,503.1,4987,right
33,3,valuation,12,5,fixationCross,10385672.0,10386689.0,1017.0,112,R,10385429,10385639,212,947.8,563.3,5080,NA
33,3,valuation,12,5,trial,10385672.0,10386689.0,1017.0,112,R,10385651,10385819,170,956.3,538.2,4944,NA
33,3,valuation,12,5,trial,10385672.0,10386689.0,1017.0,112,R,10385869,10386043,176,1404.1,578.8,4556,right
33,3,valuation,12,5,trial,10385672.0,10386689.0,1017.0,112,R,10386067,10386337,272,1564.8,591.3,4118,right
33,3,valuation,12,5,trial,10385672.0,10386689.0,1017.0,112,R,10386363,10386975,614,1436.1,509.2,4067,right
33,3,valuation,12,5,postResponse,10385672.0,10386689.0,1017.0,112,R,10386993,10387031,40,1382.9,553.0,4286,right
33,3,valuation,13,4,fixationCross,10389272.0,10390472.0,1200.0,113,R,10387131,10387255,126,1372.4,564.4,4447,right
33,3,valuation,13,4,fixationCross,10389272.0,10390472.0,1200.0,113,R,10387463,10387827,366,1368.2,527.1,4840,right
33,3,valuation,13,4,fixationCross,10389272.0,10390472.0,1200.0,113,R,10387849,10388529,682,1426.1,558.8,4903,right
33,3,valuation,13,4,fixationCross,10389272.0,10390472.0,1200.0,113,R,10388555,10388733,180,1244.4,543.7,4973,right
33,3,valuation,13,4,fixationCross,10389272.0,10390472.0,1200.0,113,R,10388757,10388961,206,1364.2,559.6,4984,right
33,3,valuation,13,4,trial,10389272.0,10390472.0,1200.0,113,R,10389013,10389413,402,962.9,536.3,5037,NA
33,3,valuation,13,4,trial,10389272.0,10390472.0,1200.0,113,R,10389469,10390751,1284,1399.5,580.2,4419,right
33,3,valuation,13,4,postResponse,10389272.0,10390472.0,1200.0,113,R,10390769,10390829,62,1435.6,512.8,4645,right
33,3,valuation,14,3,fixationCross,10396989.0,10398156.0,1167.0,114,R,10390929,10391423,496,1404.0,538.1,4921,right
33,3,valuation,14,3,fixationCross,10396989.0,10398156.0,1167.0,114,R,10391441,10391747,308,1467.7,556.1,4983,right
33,3,valuation,14,3,fixationCross,10396989.0,10398156.0,1167.0,114,R,10391769,10392453,686,1381.4,580.4,4963,right
33,3,valuation,14,3,fixationCross,10396989.0,10398156.0,1167.0,114,R,10392475,10392775,302,1447.9,567.0,4906,right
33,3,valuation,14,3,fixationCross,10396989.0,10398156.0,1167.0,114,R,10392793,10393691,900,1393.7,576.2,4935,right
33,3,valuation,14,3,fixationCross,10396989.0,10398156.0,1167.0,114,R,10393705,10394073,370,1370.7,560.5,4907,right
33,3,valuation,14,3,fixationCross,10396989.0,10398156.0,1167.0,114,R,10394093,10395213,1122,1419.5,555.8,4922,right
33,3,valuation,14,3,fixationCross,10396989.0,10398156.0,1167.0,114,R,10395229,10396497,1270,1367.4,546.4,4986,right
33,3,valuation,14,3,fixationCross,10396989.0,10398156.0,1167.0,114,R,10396513,10396691,180,1403.1,560.0,5004,right
33,3,valuation,14,3,trial,10396989.0,10398156.0,1167.0,114,R,10396733,10397009,278,1006.1,555.6,5071,NA
33,3,valuation,14,3,trial,10396989.0,10398156.0,1167.0,114,R,10397021,10397153,134,968.8,546.0,4928,NA
33,3,valuation,14,3,postResponse,10396989.0,10398156.0,1167.0,114,R,10397203,10398501,1300,1411.4,543.5,3972,right
33,3,valuation,15,3,fixationCross,10400739.0,10401706.0,967.0,115,R,10398575,10398747,174,1401.4,548.3,4319,right
33,3,valuation,15,3,fixationCross,10400739.0,10401706.0,967.0,115,R,10398763,10399035,274,1452.1,534.6,4606,right
33,3,valuation,15,3,fixationCross,10400739.0,10401706.0,967.0,115,R,10399067,10399425,360,1187.5,529.5,4923,right
33,3,valuation,15,3,fixationCross,10400739.0,10401706.0,967.0,115,R,10399451,10400071,622,1349.5,561.2,4850,right
33,3,valuation,15,3,fixationCross,10400739.0,10401706.0,967.0,115,R,10400091,10400449,360,1452.0,551.5,4890,right
33,3,valuation,15,3,trial,10400739.0,10401706.0,967.0,115,R,10400497,10400887,392,978.3,552.3,4987,NA
33,3,valuation,15,3,trial,10400739.0,10401706.0,967.0,115,R,10400935,10401071,138,1411.7,565.3,4640,right
33,3,valuation,15,3,trial,10400739.0,10401706.0,967.0,115,R,10401093,10401999,908,1574.5,527.3,4164,right
33,3,valuation,15,3,postResponse,10400739.0,10401706.0,967.0,115,R,10402017,10402051,36,1532.2,475.8,4275,right
33,3,valuation,16,6,fixationCross,10403506.0,10404455.0,949.0,116,R,10402127,10402315,190,1497.3,489.1,4427,right
33,3,valuation,16,6,fixationCross,10403506.0,10404455.0,949.0,116,R,10402339,10402771,434,1337.1,557.6,4706,right
33,3,valuation,16,6,fixationCross,10403506.0,10404455.0,949.0,116,R,10402793,10403203,412,1455.0,560.4,4589,right
33,3,valuation,16,6,trial,10403506.0,10404455.0,949.0,116,R,10403261,10403651,392,978.2,537.9,4663,NA
33,3,valuation,16,6,trial,10403506.0,10404455.0,949.0,116,R,10403707,10404103,398,1453.7,562.8,4338,right
33,3,valuation,16,6,postResponse,10403506.0,10404455.0,949.0,116,R,10404123,10404801,680,1439.1,518.6,4183,right
33,3,valuation,17,5,fixationCross,10407256.0,10408223.0,967.0,117,R,10404875,10405387,514,1371.3,530.5,4789,right
33,3,valuation,17,5,fixationCross,10407256.0,10408223.0,967.0,117,R,10405407,10405815,410,1439.5,544.8,4848,right
33,3,valuation,17,5,fixationCross,10407256.0,10408223.0,967.0,117,R,10405833,10406271,440,1397.2,563.5,4888,right
33,3,valuation,17,5,fixationCross,10407256.0,10408223.0,967.0,117,R,10406291,10406539,250,1466.1,549.5,4780,right
33,3,valuation,17,5,fixationCross,10407256.0,10408223.0,967.0,117,R,10406565,10406959,396,1291.6,548.4,4712,right
33,3,valuation,17,5,trial,10407256.0,10408223.0,967.0,117,R,10406995,10407347,354,967.5,542.2,4601,NA
33,3,valuation,17,5,trial,10407256.0,10408223.0,967.0,117,R,10407461,10407821,362,1451.3,520.3,4191,right
33,3,valuation,17,5,postResponse,10407256.0,10408223.0,967.0,117,R,10407839,10408569,732,1404.7,474.1,3861,right
33,3,valuation,18,5,fixationCross,10412090.0,10413673.0,1583.0,118,R,10408643,10408669,28,1393.2,491.5,4071,right
33,3,valuation,18,5,fixationCross,10412090.0,10413673.0,1583.0,118,R,10408679,10408875,198,1435.8,524.6,4261,right
33,3,valuation,18,5,fixationCross,10412090.0,10413673.0,1583.0,118,R,10408899,10409347,450,1288.3,561.8,4750,right
33,3,valuation,18,5,fixationCross,10412090.0,10413673.0,1583.0,118,R,10409371,10410319,950,1414.1,557.3,4821,right
33,3,valuation,18,5,fixationCross,10412090.0,10413673.0,1583.0,118,R,10410333,10411777,1446,1416.3,548.0,4981,right
33,3,valuation,18,5,fixationCross,10412090.0,10413673.0,1583.0,118,R,10411821,10412023,204,993.2,531.4,5184,NA
33,3,valuation,18,5,trial,10412090.0,10413673.0,1583.0,118,R,10412039,10412243,206,951.3,537.9,5102,NA
33,3,valuation,18,5,trial,10412090.0,10413673.0,1583.0,118,R,10412303,10412439,138,1446.1,532.4,4689,right
33,3,valuation,18,5,trial,10412090.0,10413673.0,1583.0,118,R,10412459,10413247,790,1557.5,481.5,4214,right
33,3,valuation,18,5,trial,10412090.0,10413673.0,1583.0,118,R,10413325,10413891,568,548.4,419.9,4441,likertVertical
33,3,valuation,18,5,postResponse,10412090.0,10413673.0,1583.0,118,R,10413957,10414017,62,1178.7,451.0,4539,NA
33,3,valuation,19,2,fixationCross,10414590.0,10415607.0,1017.0,119,R,10414121,10414185,66,1002.0,499.4,4776,NA
33,3,valuation,19,2,trial,10414590.0,10415607.0,1017.0,119,R,10414305,10414861,558,962.3,548.7,5034,NA
33,3,valuation,19,2,trial,10414590.0,10415607.0,1017.0,119,R,10414917,10415147,232,1390.1,513.9,4525,right
33,3,valuation,19,2,trial,10414590.0,10415607.0,1017.0,119,R,10415169,10415675,508,1470.9,576.5,4293,right
33,3,valuation,19,2,trial,10414590.0,10415607.0,1017.0,119,R,10415693,10415889,198,1452.5,532.3,4328,right
33,3,valuation,19,2,postResponse,10414590.0,10415607.0,1017.0,119,R,10415915,10415949,36,1223.4,511.9,4393,right
33,3,valuation,20,6,fixationCross,10416490.0,10417506.0,1016.0,120,R,10416023,10416235,214,924.3,559.2,4647,NA
33,3,valuation,20,6,fixationCross,10416490.0,10417506.0,1016.0,120,R,10416257,10416463,208,992.5,546.7,4863,NA
33,3,valuation,20,6,trial,10416490.0,10417506.0,1016.0,120,R,10416473,10416637,166,963.9,544.7,4860,NA
33,3,valuation,20,6,trial,10416490.0,10417506.0,1016.0,120,R,10416695,10416865,172,1406.2,516.0,4726,right
33,3,valuation,20,6,trial,10416490.0,10417506.0,1016.0,120,R,10416889,10417105,218,1516.7,531.4,4605,right
33,3,valuation,20,6,postResponse,10416490.0,10417506.0,1016.0,120,R,10417119,10417871,754,1515.0,505.6,4493,right
33,3,valuation,21,2,fixationCross,10418706.0,10419906.0,1200.0,121,R,10417971,10418411,442,1399.3,530.1,4966,right
33,3,valuation,21,2,fixationCross,10418706.0,10419906.0,1200.0,121,R,10418455,10418663,210,992.5,551.0,5260,NA
33,3,valuation,21,2,trial,10418706.0,10419906.0,1200.0,121,R,10418673,10418905,234,965.0,550.0,5151,NA
33,3,valuation,21,2,trial,10418706.0,10419906.0,1200.0,121,R,10418955,10419181,228,1422.3,532.3,4795,right
33,3,valuation,21,2,trial,10418706.0,10419906.0,1200.0,121,R,10419197,10419429,234,1473.5,527.1,4710,right
33,3,valuation,21,2,postResponse,10418706.0,10419906.0,1200.0,121,R,10419449,10420253,806,1386.2,565.7,4935,right
33,3,valuation,22,5,fixationCross,10421457.0,10422356.0,899.0,122,R,10420355,10420597,244,1322.3,554.0,5003,right
33,3,valuation,22,5,fixationCross,10421457.0,10422356.0,899.0,122,R,10420623,10420907,286,1155.6,531.1,5176,NA
33,3,valuation,22,5,fixationCross,10421457.0,10422356.0,899.0,122,R,10420933,10421171,240,1260.1,537.2,5164,right
33,3,valuation,22,5,trial,10421457.0,10422356.0,899.0,122,R,10421213,10421619,408,949.0,545.2,5134,NA
33,3,valuation,22,5,postResponse,10421457.0,10422356.0,899.0,122,R,10421665,10422673,1010,1386.8,498.9,4438,right
33,3,valuation,23,4,fixationCross,10423873.0,10424740.0,867.0,123,R,10422775,10422975,202,1349.1,518.5,4703,right
33,3,valuation,23,4,fixationCross,10423873.0,10424740.0,867.0,123,R,10422997,10423345,350,1269.5,512.5,5017,right
33,3,valuation,23,4,fixationCross,10423873.0,10424740.0,867.0,123,R,10423365,10423583,220,1328.8,520.1,4965,right
33,3,valuation,23,4,fixationCross,10423873.0,10424740.0,867.0,123,R,10423625,10423847,224,950.1,559.8,5094,NA
33,3,valuation,23,4,trial,10423873.0,10424740.0,867.0,123,R,10423859,10424023,166,951.9,538.9,4980,NA
33,3,valuation,23,4,postResponse,10423873.0,10424740.0,867.0,123,R,10424071,10425083,1014,1409.0,496.6,4165,right
33,3,valuation,24,5,fixationCross,10426206.0,10427607.0,1401.0,124,R,10425185,10425707,524,1350.8,514.4,4737,right
33,3,valuation,24,5,fixationCross,10426206.0,10427607.0,1401.0,124,R,10425725,10425911,188,1373.6,528.6,4897,right
33,3,valuation,24,5,trial,10426206.0,10427607.0,1401.0,124,R,10425947,10426361,416,988.6,561.9,4974,NA
33,3,valuation,24,5,trial,10426206.0,10427607.0,1401.0,124,R,10426407,10426593,188,1375.9,519.7,4593,right
33,3,valuation,24,5,trial,10426206.0,10427607.0,1401.0,124,R,10426617,10426881,266,1556.8,525.0,4147,right
33,3,valuation,24,5,trial,10426206.0,10427607.0,1401.0,124,R,10426901,10427035,136,1462.4,496.1,3939,right
33,3,valuation,24,5,trial,10426206.0,10427607.0,1401.0,124,R,10427113,10427435,324,469.0,462.7,4043,likertVertical
33,3,valuation,24,5,trial,10426206.0,10427607.0,1401.0,124,R,10427453,10427881,430,488.4,432.3,4361,likertVertical
33,3,valuation,25,6,fixationCross,10428722.0,10430273.0,1551.0,125,R,10428031,10428425,396,1176.1,520.6,4749,NA
33,3,valuation,25,6,fixationCross,10428722.0,10430273.0,1551.0,125,R,10428453,10428695,244,1033.2,529.3,5150,NA
33,3,valuation,25,6,trial,10428722.0,10430273.0,1551.0,125,R,10428713,10428873,162,977.0,535.6,5154,NA
33,3,valuation,25,6,trial,10428722.0,10430273.0,1551.0,125,R,10428915,10430265,1352,1326.8,542.6,4904,right
33,3,valuation,25,6,trial,10428722.0,10430273.0,1551.0,125,R,10430339,10430587,250,563.3,375.1,5108,likertVertical
33,3,valuation,26,6,fixationCross,10454756.0,10455990.0,1234.0,126,R,10454202,10454484,284,1005.2,309.4,3935,NA
33,3,valuation,26,6,fixationCross,10454756.0,10455990.0,1234.0,126,R,10454524,10454700,178,984.5,522.4,4467,NA
33,3,valuation,26,6,trial,10454756.0,10455990.0,1234.0,126,R,10454712,10454918,208,968.0,546.1,4821,NA
33,3,valuation,26,6,trial,10454756.0,10455990.0,1234.0,126,R,10454978,10455402,426,1432.5,539.5,4661,right
33,3,valuation,26,6,trial,10454756.0,10455990.0,1234.0,126,R,10455472,10455816,346,555.0,403.4,4432,likertVertical
33,3,valuation,26,6,trial,10454756.0,10455990.0,1234.0,126,R,10455838,10456204,368,500.8,361.4,4601,likertVertical
33,3,valuation,26,6,postResponse,10454756.0,10455990.0,1234.0,126,R,10456286,10456324,40,1372.9,328.8,4613,NA
33,3,valuation,27,5,fixationCross,10458190.0,10459357.0,1167.0,127,R,10456426,10456904,480,1182.4,485.2,4953,NA
33,3,valuation,27,5,fixationCross,10458190.0,10459357.0,1167.0,127,R,10456928,10457150,224,1081.2,513.9,5123,NA
33,3,valuation,27,5,fixationCross,10458190.0,10459357.0,1167.0,127,R,10457180,10457630,452,1216.5,514.9,5122,right
33,3,valuation,27,5,fixationCross,10458190.0,10459357.0,1167.0,127,R,10457654,10457886,234,1322.1,517.1,4960,right
33,3,valuation,27,5,trial,10458190.0,10459357.0,1167.0,127,R,10457922,10458348,428,980.1,549.2,4946,NA
33,3,valuation,27,5,trial,10458190.0,10459357.0,1167.0,127,R,10458408,10458716,310,1479.9,544.7,4537,right
33,3,valuation,27,5,trial,10458190.0,10459357.0,1167.0,127,R,10458738,10459646,910,1559.7,486.7,4075,right
33,3,valuation,27,5,postResponse,10458190.0,10459357.0,1167.0,127,R,10459670,10459702,34,1362.9,461.6,4378,right
33,3,valuation,28,2,fixationCross,10460374.0,10461507.0,1133.0,128,R,10459782,10460098,318,1042.3,554.7,4596,NA
33,3,valuation,28,2,trial,10460374.0,10461507.0,1133.0,128,R,10460122,10460574,454,962.5,547.5,4685,NA
33,3,valuation,28,2,trial,10460374.0,10461507.0,1133.0,128,R,10460624,10460860,238,1345.7,472.2,4549,right
33,3,valuation,28,2,trial,10460374.0,10461507.0,1133.0,128,R,10460884,10461090,208,1468.5,467.7,4397,right
33,3,valuation,28,2,trial,10460374.0,10461507.0,1133.0,128,R,10461106,10461402,298,1410.2,450.6,4341,right
33,3,valuation,28,2,trial,10460374.0,10461507.0,1133.0,128,R,10461426,10461800,376,1514.4,588.7,4493,right
33,3,valuation,28,2,postResponse,10460374.0,10461507.0,1133.0,128,R,10461824,10461854,32,1365.5,545.7,4680,right
33,3,valuation,29,6,fixationCross,10462607.0,10463690.0,1083.0,129,R,10461930,10462048,120,1345.1,543.2,4721,right
33,3,valuation,29,6,fixationCross,10462607.0,10463690.0,1083.0,129,R,10462070,10462314,246,1234.4,571.4,4847,right
33,3,valuation,29,6,fixationCross,10462607.0,10463690.0,1083.0,129,R,10462348,10462482,136,1023.3,549.7,4991,NA
33,3,valuation,29,6,trial,10462607.0,10463690.0,1083.0,129,R,10462496,10462758,264,980.3,546.5,4941,NA
33,3,valuation,29,6,trial,10462607.0,10463690.0,1083.0,129,R,10462812,10463106,296,1468.8,484.9,4555,right
33,3,valuation,29,6,postResponse,10462607.0,10463690.0,1083.0,129,R,10463128,10464036,910,1483.6,395.5,4266,right
33,3,valuation,30,4,fixationCross,10464856.0,10465807.0,951.0,130,R,10464136,10464306,172,1396.0,471.6,4566,right
33,3,valuation,30,4,fixationCross,10464856.0,10465807.0,951.0,130,R,10464324,10464550,228,1356.2,536.1,4815,right
33,3,valuation,30,4,fixationCross,10464856.0,10465807.0,951.0,130,R,10464598,10464814,218,943.0,554.2,5053,NA
33,3,valuation,30,4,trial,10464856.0,10465807.0,951.0,130,R,10464836,10464986,152,1008.5,542.7,4981,NA
33,3,valuation,30,4,trial,10464856.0,10465807.0,951.0,130,R,10465032,10465228,198,1385.7,493.9,4769,right
33,3,valuation,30,4,postResponse,10464856.0,10465807.0,951.0,130,R,10465248,10466158,912,1410.1,414.3,4383,right
33,3,valuation,31,5,fixationCross,10466924.0,10467823.0,899.0,131,R,10466258,10466398,142,1317.7,475.8,4836,right
33,3,valuation,31,5,fixationCross,10466924.0,10467823.0,899.0,131,R,10466420,10466634,216,1179.3,493.9,5073,NA
33,3,valuation,31,5,fixationCross,10466924.0,10467823.0,899.0,131,R,10466664,10466910,248,1016.8,541.5,5126,NA
33,3,valuation,31,5,trial,10466924.0,10467823.0,899.0,131,R,10466944,10467222,280,1224.5,527.2,4993,right
33,3,valuation,31,5,postResponse,10466924.0,10467823.0,899.0,131,R,10467246,10468170,926,1354.6,514.6,4380,right
33,3,valuation,32,2,fixationCross,10469390.0,10470357.0,967.0,132,R,10468270,10468510,242,1322.6,511.8,4680,right
33,3,valuation,32,2,fixationCross,10469390.0,10470357.0,967.0,132,R,10468532,10468810,280,1236.9,493.0,4958,right
33,3,valuation,32,2,fixationCross,10469390.0,10470357.0,967.0,132,R,10468824,10469100,278,1272.0,514.0,5021,right
33,3,valuation,32,2,trial,10469390.0,10470357.0,967.0,132,R,10469144,10469542,400,979.7,554.5,5073,NA
33,3,valuation,32,2,trial,10469390.0,10470357.0,967.0,132,R,10469602,10469786,186,1450.0,536.8,4626,right
33,3,valuation,32,2,postResponse,10469390.0,10470357.0,967.0,132,R,10469806,10470702,898,1477.8,468.9,4107,right
33,3,valuation,33,6,fixationCross,10471390.0,10472540.0,1150.0,133,R,10470802,10470840,40,1355.0,476.3,4438,right
33,3,valuation,33,6,fixationCross,10471390.0,10472540.0,1150.0,133,R,10470864,10470884,22,1186.6,479.2,4577,right
33,3,valuation,33,6,fixationCross,10471390.0,10472540.0,1150.0,133,R,10470912,10470940,30,966.5,540.3,4699,NA
33,3,valuation,33,6,fixationCross,10471390.0,10472540.0,1150.0,133,R,10470956,10471036,82,930.3,558.2,4789,NA
33,3,valuation,33,6,fixationCross,10471390.0,10472540.0,1150.0,133,R,10471188,10471382,196,954.0,552.8,4879,NA
33,3,valuation,33,6,trial,10471390.0,10472540.0,1150.0,133,R,10471392,10471592,202,961.4,546.8,4922,NA
33,3,valuation,33,6,trial,10471390.0,10472540.0,1150.0,133,R,10471650,10471858,210,1338.1,483.6,4656,right
33,3,valuation,33,6,trial,10471390.0,10472540.0,1150.0,133,R,10471884,10472062,180,1460.0,505.6,4531,right
33,3,valuation,33,6,trial,10471390.0,10472540.0,1150.0,133,R,10472076,10472552,478,1410.2,502.8,4565,right
33,3,valuation,33,6,postResponse,10471390.0,10472540.0,1150.0,133,R,10472564,10472888,326,1410.3,489.6,4679,right
33,3,valuation,34,5,fixationCross,10473673.0,10474773.0,1100.0,134,R,10472964,10473366,404,1372.0,520.0,4894,right
33,3,valuation,34,5,trial,10473673.0,10474773.0,1100.0,134,R,10473406,10473828,424,976.6,546.3,5010,NA
33,3,valuation,34,5,trial,10473673.0,10474773.0,1100.0,134,R,10473886,10474270,386,1383.6,490.9,4512,right
33,3,valuation,34,5,trial,10473673.0,10474773.0,1100.0,134,R,10474290,10475062,774,1386.8,429.3,4203,right
33,3,valuation,34,5,postResponse,10473673.0,10474773.0,1100.0,134,R,10475078,10475118,42,1358.3,471.8,4426,right
33,3,valuation,35,3,fixationCross,10475740.0,10476740.0,1000.0,135,R,10475192,10475250,60,1351.7,474.8,4506,right
33,3,valuation,35,3,fixationCross,10475740.0,10476740.0,1000.0,135,R,10475274,10475444,172,1255.9,540.2,4725,right
33,3,valuation,35,3,fixationCross,10475740.0,10476740.0,1000.0,135,R,10475474,10475604,132,1026.9,549.9,4925,NA
33,3,valuation,35,3,trial,10475740.0,10476740.0,1000.0,135,R,10475620,10475894,276,966.2,543.7,4917,NA
33,3,valuation,35,3,trial,10475740.0,10476740.0,1000.0,135,R,10475954,10476218,266,1435.1,523.4,4628,right
33,3,valuation,35,3,postResponse,10475740.0,10476740.0,1000.0,135,R,10476232,10477088,858,1440.4,497.3,4382,right
33,3,valuation,36,5,fixationCross,10477790.0,10478841.0,1051.0,136,R,10477162,10477498,338,1272.4,540.4,4835,right
33,3,valuation,36,5,fixationCross,10477790.0,10478841.0,1051.0,136,R,10477540,10477732,194,955.5,536.4,4894,NA
33,3,valuation,36,5,trial,10477790.0,10478841.0,1051.0,136,R,10477742,10477942,202,969.9,540.1,4811,NA
33,3,valuation,36,5,trial,10477790.0,10478841.0,1051.0,136,R,10477992,10478308,318,1352.1,489.8,4489,right
33,3,valuation,36,5,trial,10477790.0,10478841.0,1051.0,136,R,10478330,10478842,514,1440.3,531.4,4309,right
33,3,valuation,36,5,trial,10477790.0,10478841.0,1051.0,136,R,10478868,10479100,234,1444.3,424.9,4422,right
