participantNo,block,task,blockTrial,response,trialStage,trialStartTime,trialFinishTime,rt,trial,eye,fixStart,fixEnd,fixLength,fixPosX,fixPosY,dilation,aoi
14,1,binary,1,1,fixationCross,16822789.0,16825989.0,3200.0,1,L,16812474,16812892,420,862.1,531.8,6136,NA
14,1,binary,1,1,fixationCross,16822789.0,16825989.0,3200.0,1,L,16812914,16814038,1126,964.3,558.5,6200,NA
14,1,binary,1,1,fixationCross,16822789.0,16825989.0,3200.0,1,L,16814254,16814716,464,958.1,546.5,6057,NA
14,1,binary,1,1,fixationCross,16822789.0,16825989.0,3200.0,1,L,16814924,16816292,1370,951.3,561.6,5573,NA
14,1,binary,1,1,fixationCross,16822789.0,16825989.0,3200.0,1,L,16816306,16816432,128,995.0,556.5,5291,NA
14,1,binary,1,1,fixationCross,16822789.0,16825989.0,3200.0,1,L,16816444,16816838,396,963.4,548.5,5572,NA
14,1,binary,1,1,fixationCross,16822789.0,16825989.0,3200.0,1,L,16816874,16816990,118,1210.1,549.7,5821,right
14,1,binary,1,1,fixationCross,16822789.0,16825989.0,3200.0,1,L,16817020,16817758,740,978.8,521.3,6113,NA
14,1,binary,1,1,fixationCross,16822789.0,16825989.0,3200.0,1,L,16817792,16817924,134,1198.9,539.2,6049,right
14,1,binary,1,1,fixationCross,16822789.0,16825989.0,3200.0,1,L,16817954,16818328,376,987.6,529.2,6055,NA
14,1,binary,1,1,fixationCross,16822789.0,16825989.0,3200.0,1,L,16818372,16818506,136,1279.4,568.8,6123,right
14,1,binary,1,1,fixationCross,16822789.0,16825989.0,3200.0,1,L,16818550,16818964,416,961.4,550.3,6031,NA
14,1,binary,1,1,fixationCross,16822789.0,16825989.0,3200.0,1,L,16818974,16819208,236,987.4,548.9,6002,NA
14,1,binary,1,1,fixationCross,16822789.0,16825989.0,3200.0,1,L,16819218,16819904,688,964.6,555.2,5982,NA
14,1,binary,1,1,fixationCross,16822789.0,16825989.0,3200.0,1,L,16819930,16820014,86,1131.0,609.1,5841,NA
14,1,binary,1,1,fixationCross,16822789.0,16825989.0,3200.0,1,L,16820040,16820936,898,946.6,555.0,6075,NA
14,1,binary,1,1,fixationCross,16822789.0,16825989.0,3200.0,1,L,16821118,16821230,114,952.6,560.6,5982,NA
14,1,binary,1,1,fixationCross,16822789.0,16825989.0,3200.0,1,L,16821240,16821484,246,968.9,530.6,6091,NA
14,1,binary,1,1,fixationCross,16822789.0,16825989.0,3200.0,1,L,16821530,16821650,122,568.3,468.8,6346,left
14,1,binary,1,1,fixationCross,16822789.0,16825989.0,3200.0,1,L,16821662,16821984,324,529.0,497.0,6075,left
14,1,binary,1,1,fixationCross,16822789.0,16825989.0,3200.0,1,L,16822032,16822216,186,972.5,557.2,5412,NA
14,1,binary,1,1,fixationCross,16822789.0,16825989.0,3200.0,1,L,16822262,16822688,428,536.3,527.7,5353,left
14,1,binary,1,1,trial,16822789.0,16825989.0,3200.0,1,L,16822740,16823108,370,982.8,555.2,5516,NA
14,1,binary,1,1,trial,16822789.0,16825989.0,3200.0,1,L,16823150,16823192,44,964.6,850.5,5609,likertHorizontal
14,1,binary,1,1,trial,16822789.0,16825989.0,3200.0,1,L,16823244,16823328,86,471.7,912.6,5553,NA
14,1,binary,1,1,trial,16822789.0,16825989.0,3200.0,1,L,16823352,16823528,178,424.5,1057.6,5474,NA
14,1,binary,1,1,trial,16822789.0,16825989.0,3200.0,1,L,16823608,16823866,260,1436.9,1034.4,5475,NA
14,1,binary,1,1,trial,16822789.0,16825989.0,3200.0,1,L,16823912,16824098,188,1438.2,780.6,5504,NA
14,1,binary,1,1,trial,16822789.0,16825989.0,3200.0,1,L,16824128,16824362,236,1424.3,946.3,5588,NA
14,1,binary,1,1,trial,16822789.0,16825989.0,3200.0,1,L,16824430,16824592,164,512.2,969.2,5932,NA
14,1,binary,1,1,trial,16822789.0,16825989.0,3200.0,1,L,16824646,16824870,226,424.4,519.6,6037,left
14,1,binary,1,1,trial,16822789.0,16825989.0,3200.0,1,L,16824884,16824964,82,428.9,564.9,5984,left
14,1,binary,1,1,trial,16822789.0,16825989.0,3200.0,1,L,16825036,16825670,636,1471.5,566.0,5292,right
14,1,binary,1,1,trial,16822789.0,16825989.0,3200.0,1,L,16825744,16825938,196,501.7,572.9,5230,left
14,1,binary,1,1,trial,16822789.0,16825989.0,3200.0,1,L,16825954,16826284,332,447.1,594.4,5537,left
14,1,binary,1,1,postResponse,16822789.0,16825989.0,3200.0,1,L,16826320,16826356,38,688.4,573.8,5689,left
14,1,binary,2,1,fixationCross,16836790.0,16839473.0,2683.0,2,L,16826456,16826506,52,685.7,572.0,5727,left
14,1,binary,2,1,fixationCross,16836790.0,16839473.0,2683.0,2,L,16826550,16827186,638,965.8,563.7,5835,NA
14,1,binary,2,1,fixationCross,16836790.0,16839473.0,2683.0,2,L,16828120,16828296,178,975.1,604.8,5670,NA
14,1,binary,2,1,fixationCross,16836790.0,16839473.0,2683.0,2,L,16828544,16828604,62,1048.8,625.0,5870,NA
14,1,binary,2,1,fixationCross,16836790.0,16839473.0,2683.0,2,L,16828618,16830446,1830,987.4,557.6,5896,NA
14,1,binary,2,1,fixationCross,16836790.0,16839473.0,2683.0,2,L,16830456,16830584,130,991.7,530.8,6107,NA
14,1,binary,2,1,fixationCross,16836790.0,16839473.0,2683.0,2,L,16830594,16833034,2442,946.5,536.4,6418,NA
14,1,binary,2,1,fixationCross,16836790.0,16839473.0,2683.0,2,L,16833348,16833372,26,956.8,461.3,6779,NA
14,1,binary,2,1,fixationCross,16836790.0,16839473.0,2683.0,2,L,16833386,16833420,36,962.8,497.7,6615,NA
14,1,binary,2,1,trial,16836790.0,16839473.0,2683.0,2,L,16833432,16837050,3620,950.4,520.5,6088,NA
14,1,binary,2,1,trial,16836790.0,16839473.0,2683.0,2,L,16837100,16837372,274,512.9,513.9,6441,left
14,1,binary,2,1,trial,16836790.0,16839473.0,2683.0,2,L,16837390,16837608,220,429.3,540.1,5606,left
14,1,binary,2,1,trial,16836790.0,16839473.0,2683.0,2,L,16837682,16837918,238,1370.1,562.1,4943,right
14,1,binary,2,1,trial,16836790.0,16839473.0,2683.0,2,L,16837942,16838300,360,1456.5,622.5,4878,right
14,1,binary,2,1,trial,16836790.0,16839473.0,2683.0,2,L,16838376,16838908,534,471.1,603.3,5731,left
14,1,binary,2,1,trial,16836790.0,16839473.0,2683.0,2,L,16838962,16839138,178,936.3,981.0,5675,likertHorizontal
14,1,binary,2,1,trial,16836790.0,16839473.0,2683.0,2,L,16839188,16839370,184,430.9,954.4,6089,NA
14,1,binary,2,1,postResponse,16836790.0,16839473.0,2683.0,2,L,16839384,16839836,454,481.6,936.1,6600,NA
14,1,binary,3,1,fixationCross,16850223.0,16852023.0,1800.0,3,L,16840066,16840276,212,1074.5,374.8,6730,NA
14,1,binary,3,1,fixationCross,16850223.0,16852023.0,1800.0,3,L,16840298,16840464,168,986.6,477.2,6895,NA
14,1,binary,3,1,fixationCross,16850223.0,16852023.0,1800.0,3,L,16840472,16840800,330,961.4,482.9,7036,NA
14,1,binary,3,1,fixationCross,16850223.0,16852023.0,1800.0,3,L,16841176,16841248,74,935.2,548.4,6406,NA
14,1,binary,3,1,fixationCross,16850223.0,16852023.0,1800.0,3,L,16841262,16842494,1234,945.1,531.4,6547,NA
14,1,binary,3,1,fixationCross,16850223.0,16852023.0,1800.0,3,L,16842518,16842642,126,1051.7,517.1,6587,NA
14,1,binary,3,1,fixationCross,16850223.0,16852023.0,1800.0,3,L,16842662,16843346,686,951.9,495.3,6976,NA
14,1,binary,3,1,fixationCross,16850223.0,16852023.0,1800.0,3,L,16843604,16843660,58,891.2,474.0,7100,NA
14,1,binary,3,1,fixationCross,16850223.0,16852023.0,1800.0,3,L,16843676,16844508,834,966.1,521.7,6641,NA
14,1,binary,3,1,fixationCross,16850223.0,16852023.0,1800.0,3,L,16844520,16844968,450,966.3,535.9,5996,NA
14,1,binary,3,1,fixationCross,16850223.0,16852023.0,1800.0,3,L,16845212,16845258,48,935.2,459.3,6608,NA
14,1,binary,3,1,fixationCross,16850223.0,16852023.0,1800.0,3,L,16845274,16845448,176,934.5,518.2,6328,NA
14,1,binary,3,1,fixationCross,16850223.0,16852023.0,1800.0,3,L,16845458,16847358,1902,961.2,537.5,5969,NA
14,1,binary,3,1,fixationCross,16850223.0,16852023.0,1800.0,3,L,16847640,16847922,284,965.7,505.0,6147,NA
14,1,binary,3,1,fixationCross,16850223.0,16852023.0,1800.0,3,L,16847932,16849034,1104,980.8,506.0,6224,NA
14,1,binary,3,1,fixationCross,16850223.0,16852023.0,1800.0,3,L,16849440,16849484,46,943.0,446.5,6558,NA
14,1,binary,3,1,trial,16850223.0,16852023.0,1800.0,3,L,16849496,16850398,904,962.0,527.4,6127,NA
14,1,binary,3,1,trial,16850223.0,16852023.0,1800.0,3,L,16850446,16850642,198,538.4,618.1,5781,left
14,1,binary,3,1,trial,16850223.0,16852023.0,1800.0,3,L,16850660,16850912,254,494.9,576.2,5728,left
14,1,binary,3,1,trial,16850223.0,16852023.0,1800.0,3,L,16850990,16851388,400,1495.4,575.5,5022,right
14,1,binary,3,1,trial,16850223.0,16852023.0,1800.0,3,L,16851460,16851694,236,550.3,946.8,5036,NA
14,1,binary,3,1,trial,16850223.0,16852023.0,1800.0,3,L,16851712,16851842,132,478.2,965.8,5394,NA
14,1,binary,3,1,postResponse,16850223.0,16852023.0,1800.0,3,L,16851894,16852372,480,541.8,536.7,5838,left
14,1,binary,4,2,fixationCross,16862740.0,16864024.0,1284.0,4,L,16852472,16852758,288,544.0,547.8,5868,left
14,1,binary,4,2,fixationCross,16862740.0,16864024.0,1284.0,4,L,16852814,16852934,122,1042.9,540.2,6179,NA
14,1,binary,4,2,fixationCross,16862740.0,16864024.0,1284.0,4,L,16852952,16853962,1012,950.1,535.8,6277,NA
14,1,binary,4,2,fixationCross,16862740.0,16864024.0,1284.0,4,L,16854302,16854342,42,937.9,464.5,6489,NA
14,1,binary,4,2,fixationCross,16862740.0,16864024.0,1284.0,4,L,16854360,16854394,36,938.8,497.7,6441,NA
14,1,binary,4,2,fixationCross,16862740.0,16864024.0,1284.0,4,L,16854408,16855710,1304,955.6,538.2,6190,NA
14,1,binary,4,2,fixationCross,16862740.0,16864024.0,1284.0,4,L,16855956,16855984,30,936.3,473.3,6641,NA
14,1,binary,4,2,fixationCross,16862740.0,16864024.0,1284.0,4,L,16856000,16856148,150,936.5,518.7,6277,NA
14,1,binary,4,2,fixationCross,16862740.0,16864024.0,1284.0,4,L,16856158,16856412,256,965.6,515.6,6352,NA
14,1,binary,4,2,fixationCross,16862740.0,16864024.0,1284.0,4,L,16856664,16856690,28,955.3,467.6,6536,NA
14,1,binary,4,2,fixationCross,16862740.0,16864024.0,1284.0,4,L,16856700,16859698,3000,949.4,514.0,6312,NA
14,1,binary,4,2,fixationCross,16862740.0,16864024.0,1284.0,4,L,16859982,16860030,50,951.3,427.7,6774,NA
14,1,binary,4,2,fixationCross,16862740.0,16864024.0,1284.0,4,L,16860040,16862704,2666,959.7,525.2,6169,NA
14,1,binary,4,2,trial,16862740.0,16864024.0,1284.0,4,L,16862990,16863014,26,973.1,509.2,6306,NA
14,1,binary,4,2,trial,16862740.0,16864024.0,1284.0,4,L,16863026,16863048,24,970.8,547.5,6068,NA
14,1,binary,4,2,trial,16862740.0,16864024.0,1284.0,4,L,16863090,16863236,148,1270.0,554.2,6135,right
14,1,binary,4,2,trial,16862740.0,16864024.0,1284.0,4,L,16863264,16863614,352,1420.6,570.3,5793,right
14,1,binary,4,2,trial,16862740.0,16864024.0,1284.0,4,L,16863656,16863876,222,1434.1,849.8,5213,NA
14,1,binary,4,2,postResponse,16862740.0,16864024.0,1284.0,4,L,16863952,16864396,446,565.3,491.6,5440,left
14,1,binary,5,1,fixationCross,16874741.0,16876141.0,1400.0,5,L,16864470,16864714,246,562.1,499.6,5262,left
14,1,binary,5,1,fixationCross,16874741.0,16876141.0,1400.0,5,L,16864760,16864924,166,807.9,541.1,5409,NA
14,1,binary,5,1,fixationCross,16874741.0,16876141.0,1400.0,5,L,16864948,16865172,226,949.6,539.4,5664,NA
14,1,binary,5,1,fixationCross,16874741.0,16876141.0,1400.0,5,L,16865476,16867054,1580,954.9,526.4,6122,NA
14,1,binary,5,1,fixationCross,16874741.0,16876141.0,1400.0,5,L,16867310,16867338,30,969.5,438.6,6428,NA
14,1,binary,5,1,fixationCross,16874741.0,16876141.0,1400.0,5,L,16867356,16869360,2006,956.5,527.9,6234,NA
14,1,binary,5,1,fixationCross,16874741.0,16876141.0,1400.0,5,L,16869590,16869616,28,963.4,470.6,6576,NA
14,1,binary,5,1,fixationCross,16874741.0,16876141.0,1400.0,5,L,16869626,16869674,50,962.5,510.9,6345,NA
14,1,binary,5,1,fixationCross,16874741.0,16876141.0,1400.0,5,L,16869684,16870868,1186,945.4,514.1,6316,NA
14,1,binary,5,1,fixationCross,16874741.0,16876141.0,1400.0,5,L,16871118,16871154,38,962.9,443.8,6776,NA
14,1,binary,5,1,fixationCross,16874741.0,16876141.0,1400.0,5,L,16871162,16873866,2706,944.1,528.8,6024,NA
14,1,binary,5,1,fixationCross,16874741.0,16876141.0,1400.0,5,L,16874202,16874230,30,1007.4,455.8,6263,NA
14,1,binary,5,1,trial,16874741.0,16876141.0,1400.0,5,L,16874246,16874898,654,969.5,525.6,6154,NA
14,1,binary,5,1,trial,16874741.0,16876141.0,1400.0,5,L,16874948,16875136,190,513.1,524.6,5678,left
14,1,binary,5,1,trial,16874741.0,16876141.0,1400.0,5,L,16875150,16875270,122,465.4,512.3,5228,left
14,1,binary,5,1,trial,16874741.0,16876141.0,1400.0,5,L,16875342,16875564,224,1425.2,514.9,4622,right
14,1,binary,5,1,trial,16874741.0,16876141.0,1400.0,5,L,16875586,16875780,196,1417.6,452.9,4406,right
14,1,binary,5,1,trial,16874741.0,16876141.0,1400.0,5,L,16875846,16875988,144,565.1,840.5,4734,NA
14,1,binary,5,1,trial,16874741.0,16876141.0,1400.0,5,L,16876014,16876450,438,468.2,946.8,5296,NA
14,1,binary,6,1,fixationCross,16876857.0,16878107.0,1250.0,6,L,16876590,16876650,62,655.5,689.6,5774,left
14,1,binary,6,1,trial,16876857.0,16878107.0,1250.0,6,L,16876924,16877182,260,1064.3,531.6,6074,NA
14,1,binary,6,1,trial,16876857.0,16878107.0,1250.0,6,L,16877242,16877564,324,468.7,550.1,6329,left
14,1,binary,6,1,trial,16876857.0,16878107.0,1250.0,6,L,16877584,16877740,158,565.5,603.2,5991,left
14,1,binary,6,1,trial,16876857.0,16878107.0,1250.0,6,L,16877798,16878116,320,1233.8,612.7,5467,right
14,1,binary,6,1,trial,16876857.0,16878107.0,1250.0,6,L,16878142,16878334,194,1407.6,573.6,5427,right
14,1,binary,6,1,postResponse,16876857.0,16878107.0,1250.0,6,L,16878386,16878444,60,944.8,551.4,5815,NA
14,1,binary,7,1,trial,16878807.0,16880223.0,1416.0,7,L,16878520,16878910,392,939.1,558.2,6178,NA
14,1,binary,7,1,trial,16878807.0,16880223.0,1416.0,7,L,16878948,16879098,152,1108.4,560.9,6303,NA
14,1,binary,7,1,trial,16878807.0,16880223.0,1416.0,7,L,16879126,16879298,174,1299.5,523.2,6115,right
14,1,binary,7,1,trial,16878807.0,16880223.0,1416.0,7,L,16879360,16879592,234,527.2,571.8,5669,left
14,1,binary,7,1,trial,16878807.0,16880223.0,1416.0,7,L,16879612,16880434,824,438.9,578.0,5683,left
14,1,binary,8,2,fixationCross,16880940.0,16882324.0,1384.0,8,L,16880672,16880846,176,1209.9,473.3,6133,right
14,1,binary,8,2,trial,16880940.0,16882324.0,1384.0,8,L,16880872,16881010,140,1025.2,509.6,6308,NA
14,1,binary,8,2,trial,16880940.0,16882324.0,1384.0,8,L,16881028,16881180,154,953.3,510.2,6577,NA
14,1,binary,8,2,trial,16880940.0,16882324.0,1384.0,8,L,16881228,16881462,236,1350.9,537.8,6500,right
14,1,binary,8,2,trial,16880940.0,16882324.0,1384.0,8,L,16881528,16881796,270,524.1,589.2,5901,left
14,1,binary,8,2,trial,16880940.0,16882324.0,1384.0,8,L,16881814,16881892,80,493.1,561.0,5744,left
14,1,binary,8,2,trial,16880940.0,16882324.0,1384.0,8,L,16881964,16882278,316,1436.1,531.6,5449,right
14,1,binary,8,2,trial,16880940.0,16882324.0,1384.0,8,L,16882296,16882544,250,1403.1,464.7,5499,right
14,1,binary,8,2,postResponse,16880940.0,16882324.0,1384.0,8,L,16882600,16882674,76,888.8,513.2,5884,NA
14,1,binary,9,2,fixationCross,16883040.0,16884057.0,1017.0,9,L,16882748,16882898,152,888.1,522.1,6049,NA
14,1,binary,9,2,trial,16883040.0,16884057.0,1017.0,9,L,16883132,16883204,74,859.4,521.8,6309,NA
14,1,binary,9,2,trial,16883040.0,16884057.0,1017.0,9,L,16883240,16883442,204,562.6,529.6,6355,left
14,1,binary,9,2,trial,16883040.0,16884057.0,1017.0,9,L,16883510,16883956,448,1410.1,607.2,5373,right
14,1,binary,9,2,trial,16883040.0,16884057.0,1017.0,9,L,16884020,16884156,138,600.1,537.8,5049,left
14,1,binary,9,2,postResponse,16883040.0,16884057.0,1017.0,9,L,16884172,16884394,224,645.1,555.7,5336,left
14,1,binary,10,1,fixationCross,16884723.0,16885890.0,1167.0,10,L,16884468,16884604,138,650.3,552.0,5801,left
14,1,binary,10,1,trial,16884723.0,16885890.0,1167.0,10,L,16884644,16884820,178,888.0,541.7,5936,NA
14,1,binary,10,1,trial,16884723.0,16885890.0,1167.0,10,L,16884844,16884934,92,998.5,547.2,6085,NA
14,1,binary,10,1,trial,16884723.0,16885890.0,1167.0,10,L,16884978,16885296,320,1323.0,497.1,6257,right
14,1,binary,10,1,trial,16884723.0,16885890.0,1167.0,10,L,16885358,16885784,428,589.7,549.0,6274,left
14,1,binary,10,1,postResponse,16884723.0,16885890.0,1167.0,10,L,16885806,16886236,432,492.6,567.2,6355,left
14,1,binary,11,2,fixationCross,16886557.0,16888291.0,1734.0,11,L,16886310,16886508,200,953.8,537.4,6433,NA
14,1,binary,11,2,trial,16886557.0,16888291.0,1734.0,11,L,16886544,16886710,168,1126.3,513.4,6476,NA
14,1,binary,11,2,trial,16886557.0,16888291.0,1734.0,11,L,16886750,16886980,232,1381.9,476.0,6597,right
14,1,binary,11,2,trial,16886557.0,16888291.0,1734.0,11,L,16887046,16887278,234,535.3,481.5,6164,left
14,1,binary,11,2,trial,16886557.0,16888291.0,1734.0,11,L,16887348,16887748,402,1452.4,565.8,5847,right
14,1,binary,11,2,trial,16886557.0,16888291.0,1734.0,11,L,16887816,16887904,90,753.1,491.4,5836,NA
14,1,binary,11,2,trial,16886557.0,16888291.0,1734.0,11,L,16887934,16888282,350,515.8,513.8,5883,left
14,1,binary,11,2,trial,16886557.0,16888291.0,1734.0,11,L,16888306,16888526,222,528.9,445.0,5896,left
14,1,binary,11,2,postResponse,16886557.0,16888291.0,1734.0,11,L,16888570,16888640,72,793.9,557.2,5839,NA
14,1,binary,12,2,trial,16888974.0,16890674.0,1700.0,12,L,16888922,16889148,228,921.5,514.1,6033,NA
14,1,binary,12,2,trial,16888974.0,16890674.0,1700.0,12,L,16889200,16889426,228,1334.0,531.0,6216,right
14,1,binary,12,2,trial,16888974.0,16890674.0,1700.0,12,L,16889488,16889708,222,557.9,449.6,5793,left
14,1,binary,12,2,trial,16888974.0,16890674.0,1700.0,12,L,16889724,16889888,166,612.6,421.2,5457,left
14,1,binary,12,2,trial,16888974.0,16890674.0,1700.0,12,L,16889950,16890154,206,1371.1,555.7,5314,right
14,1,binary,12,2,trial,16888974.0,16890674.0,1700.0,12,L,16890174,16890362,190,1456.7,580.0,5536,right
14,1,binary,12,2,trial,16888974.0,16890674.0,1700.0,12,L,16890388,16890692,306,1595.0,542.4,5656,right
14,1,binary,12,2,trial,16888974.0,16890674.0,1700.0,12,L,16890726,16890946,222,1289.6,522.3,5632,right
14,1,binary,13,1,fixationCross,16891357.0,16892624.0,1267.0,13,L,16891092,16891246,156,950.6,498.0,5876,NA
14,1,binary,13,1,trial,16891357.0,16892624.0,1267.0,13,L,16891420,16891542,124,888.4,465.2,6202,NA
14,1,binary,13,1,trial,16891357.0,16892624.0,1267.0,13,L,16891594,16891802,210,1313.8,497.3,6287,right
14,1,binary,13,1,trial,16891357.0,16892624.0,1267.0,13,L,16891826,16892022,198,1452.3,513.9,5883,right
14,1,binary,13,1,trial,16891357.0,16892624.0,1267.0,13,L,16892094,16892588,496,524.5,557.2,5471,left
14,1,binary,13,1,postResponse,16891357.0,16892624.0,1267.0,13,L,16892656,16892958,304,1411.3,530.7,5327,right
14,1,binary,14,1,fixationCross,16893324.0,16894757.0,1433.0,14,L,16893046,16893116,72,973.5,513.0,5632,NA
14,1,binary,14,1,trial,16893324.0,16894757.0,1433.0,14,L,16893350,16893522,174,895.2,511.4,6123,NA
14,1,binary,14,1,trial,16893324.0,16894757.0,1433.0,14,L,16893568,16893798,232,551.9,575.1,6338,left
14,1,binary,14,1,trial,16893324.0,16894757.0,1433.0,14,L,16893868,16894076,210,1426.7,606.7,5275,right
14,1,binary,14,1,trial,16893324.0,16894757.0,1433.0,14,L,16894100,16894288,190,1578.7,587.0,4742,right
14,1,binary,14,1,trial,16893324.0,16894757.0,1433.0,14,L,16894302,16894416,116,1605.7,611.6,4505,right
14,1,binary,14,1,trial,16893324.0,16894757.0,1433.0,14,L,16894492,16894796,306,569.3,610.9,4548,left
14,1,binary,14,1,trial,16893324.0,16894757.0,1433.0,14,L,16894818,16895006,190,465.7,587.2,4921,left
14,1,binary,15,1,fixationCross,16895441.0,16896957.0,1516.0,15,L,16895216,16895374,160,1203.8,561.1,5201,right
14,1,binary,15,1,trial,16895441.0,16896957.0,1516.0,15,L,16895406,16895602,198,956.0,546.1,5472,NA
14,1,binary,15,1,trial,16895441.0,16896957.0,1516.0,15,L,16895652,16895832,182,1407.4,544.7,5783,right
14,1,binary,15,1,trial,16895441.0,16896957.0,1516.0,15,L,16895902,16896040,140,486.3,553.4,5637,left
14,1,binary,15,1,trial,16895441.0,16896957.0,1516.0,15,L,16896064,16896202,140,466.9,643.9,5535,left
14,1,binary,15,1,trial,16895441.0,16896957.0,1516.0,15,L,16896232,16896364,134,491.6,477.8,5424,left
14,1,binary,15,1,trial,16895441.0,16896957.0,1516.0,15,L,16896432,16896672,242,1383.8,519.0,5353,right
14,1,binary,15,1,trial,16895441.0,16896957.0,1516.0,15,L,16896692,16896888,198,1465.2,536.5,5450,right
14,1,binary,15,1,trial,16895441.0,16896957.0,1516.0,15,L,16896960,16897154,196,496.7,828.0,5792,NA
14,1,binary,16,2,fixationCross,16897657.0,16899673.0,2016.0,16,L,16897410,16897504,96,1234.2,490.6,5646,right
14,1,binary,16,2,trial,16897657.0,16899673.0,2016.0,16,L,16897528,16897712,186,1067.6,540.3,5734,NA
14,1,binary,16,2,trial,16897657.0,16899673.0,2016.0,16,L,16897734,16897902,170,962.0,524.3,5994,NA
14,1,binary,16,2,trial,16897657.0,16899673.0,2016.0,16,L,16897950,16898286,338,1386.1,538.2,5612,right
14,1,binary,16,2,trial,16897657.0,16899673.0,2016.0,16,L,16898368,16898608,242,462.6,634.7,5133,left
14,1,binary,16,2,trial,16897657.0,16899673.0,2016.0,16,L,16898630,16898796,168,388.7,578.9,5111,left
14,1,binary,16,2,trial,16897657.0,16899673.0,2016.0,16,L,16898820,16899052,234,539.0,607.4,5056,left
14,1,binary,16,2,trial,16897657.0,16899673.0,2016.0,16,L,16899126,16899682,558,1494.7,559.3,5117,right
14,1,binary,16,2,trial,16897657.0,16899673.0,2016.0,16,L,16899706,16899912,208,1449.2,473.1,5447,right
14,1,binary,17,2,trial,16900391.0,16901791.0,1400.0,17,L,16900136,16900466,332,804.4,497.3,5798,NA
14,1,binary,17,2,trial,16900391.0,16901791.0,1400.0,17,L,16900490,16900590,102,932.8,503.8,6041,NA
14,1,binary,17,2,trial,16900391.0,16901791.0,1400.0,17,L,16900632,16901030,400,608.1,540.4,5630,left
14,1,binary,17,2,trial,16900391.0,16901791.0,1400.0,17,L,16901098,16901520,424,1420.7,539.9,4557,right
14,1,binary,17,2,trial,16900391.0,16901791.0,1400.0,17,L,16901590,16901848,260,566.5,574.5,4814,left
14,1,binary,17,2,trial,16900391.0,16901791.0,1400.0,17,L,16901868,16902058,192,489.3,541.3,5109,left
14,1,binary,17,2,postResponse,16900391.0,16901791.0,1400.0,17,L,16902104,16902136,34,802.2,548.0,5311,NA
14,1,binary,18,2,fixationCross,16902507.0,16904174.0,1667.0,18,L,16902236,16902354,120,806.7,547.0,5433,NA
14,1,binary,18,2,trial,16902507.0,16904174.0,1667.0,18,L,16902390,16902588,200,1031.3,552.8,5648,NA
14,1,binary,18,2,trial,16902507.0,16904174.0,1667.0,18,L,16902608,16902706,100,978.4,546.5,5881,NA
14,1,binary,18,2,trial,16902507.0,16904174.0,1667.0,18,L,16902934,16903054,122,571.1,544.1,5711,left
14,1,binary,18,2,trial,16902507.0,16904174.0,1667.0,18,L,16903070,16903324,256,515.5,537.9,5484,left
14,1,binary,18,2,trial,16902507.0,16904174.0,1667.0,18,L,16903398,16903654,258,1478.1,522.8,5485,right
14,1,binary,18,2,trial,16902507.0,16904174.0,1667.0,18,L,16903666,16904156,492,1434.4,530.0,5147,right
14,1,binary,18,2,trial,16902507.0,16904174.0,1667.0,18,L,16904228,16904474,248,487.4,526.9,5157,left
14,1,binary,19,2,fixationCross,16904874.0,16906408.0,1534.0,19,L,16904622,16904826,206,728.6,526.0,5737,left
14,1,binary,19,2,trial,16904874.0,16906408.0,1534.0,19,L,16904850,16904956,108,872.7,530.3,5932,NA
14,1,binary,19,2,trial,16904874.0,16906408.0,1534.0,19,L,16904974,16905098,126,943.0,547.1,6068,NA
14,1,binary,19,2,trial,16904874.0,16906408.0,1534.0,19,L,16905150,16905322,174,1368.6,510.9,6112,right
14,1,binary,19,2,trial,16904874.0,16906408.0,1534.0,19,L,16905346,16905490,146,1477.6,520.3,6033,right
14,1,binary,19,2,trial,16904874.0,16906408.0,1534.0,19,L,16905562,16905832,272,519.1,563.3,6010,left
14,1,binary,19,2,trial,16904874.0,16906408.0,1534.0,19,L,16905856,16906056,202,373.3,565.6,5809,left
14,1,binary,19,2,trial,16904874.0,16906408.0,1534.0,19,L,16906142,16906536,396,1465.4,585.1,5930,right
14,1,binary,20,1,trial,16907074.0,16908424.0,1350.0,20,L,16906814,16907074,262,842.4,527.1,6360,NA
14,1,binary,20,1,trial,16907074.0,16908424.0,1350.0,20,L,16907108,16907258,152,649.8,495.3,6481,left
14,1,binary,20,1,trial,16907074.0,16908424.0,1350.0,20,L,16907280,16907454,176,531.0,491.4,6480,left
14,1,binary,20,1,trial,16907074.0,16908424.0,1350.0,20,L,16907522,16907916,396,1456.0,580.4,5135,right
14,1,binary,20,1,trial,16907074.0,16908424.0,1350.0,20,L,16907990,16908656,668,509.3,555.9,5137,left
14,1,binary,21,1,trial,16909124.0,16910591.0,1467.0,21,L,16908868,16909182,316,1069.4,552.8,5342,NA
14,1,binary,21,1,trial,16909124.0,16910591.0,1467.0,21,L,16909206,16909298,94,945.8,524.4,5806,NA
14,1,binary,21,1,trial,16909124.0,16910591.0,1467.0,21,L,16909348,16909570,224,470.7,513.2,6054,left
14,1,binary,21,1,trial,16909124.0,16910591.0,1467.0,21,L,16909586,16909754,170,517.8,518.0,5550,left
14,1,binary,21,1,trial,16909124.0,16910591.0,1467.0,21,L,16909776,16909962,188,527.0,419.9,5204,left
14,1,binary,21,1,trial,16909124.0,16910591.0,1467.0,21,L,16910030,16910324,296,1393.7,566.0,5211,right
14,1,binary,21,1,trial,16909124.0,16910591.0,1467.0,21,L,16910394,16910588,196,596.9,830.5,5252,NA
14,1,binary,21,1,trial,16909124.0,16910591.0,1467.0,21,L,16910638,16910858,222,504.9,496.6,5115,left
14,1,binary,22,2,fixationCross,16911291.0,16912707.0,1416.0,22,L,16911076,16911116,42,956.2,431.7,5704,NA
14,1,binary,22,2,trial,16911291.0,16912707.0,1416.0,22,L,16911126,16911496,372,956.8,485.8,5744,NA
14,1,binary,22,2,trial,16911291.0,16912707.0,1416.0,22,L,16911548,16911716,170,1397.7,510.9,6149,right
14,1,binary,22,2,trial,16911291.0,16912707.0,1416.0,22,L,16911742,16911842,102,1566.8,481.7,5980,right
14,1,binary,22,2,trial,16911291.0,16912707.0,1416.0,22,L,16911914,16912338,426,577.5,542.5,5522,left
14,1,binary,22,2,trial,16911291.0,16912707.0,1416.0,22,L,16912410,16912878,470,1474.8,542.0,5433,right
14,1,binary,22,2,postResponse,16911291.0,16912707.0,1416.0,22,L,16912934,16913056,124,928.2,520.1,5802,NA
14,1,binary,23,2,trial,16913391.0,16914657.0,1266.0,23,L,16913130,16913496,368,931.9,509.7,5868,NA
14,1,binary,23,2,trial,16913391.0,16914657.0,1266.0,23,L,16913538,16913666,130,612.1,528.2,6126,left
14,1,binary,23,2,trial,16913391.0,16914657.0,1266.0,23,L,16913694,16913810,118,408.8,511.7,6147,left
14,1,binary,23,2,trial,16913391.0,16914657.0,1266.0,23,L,16913884,16914116,234,1446.2,544.6,5396,right
14,1,binary,23,2,trial,16913391.0,16914657.0,1266.0,23,L,16914142,16914322,182,1358.5,406.8,5053,right
14,1,binary,23,2,trial,16913391.0,16914657.0,1266.0,23,L,16914336,16914830,496,1304.9,389.6,5188,right
14,1,binary,24,2,fixationCross,16915357.0,16917457.0,2100.0,24,L,16915096,16915128,34,818.4,376.9,5909,NA
14,1,binary,24,2,fixationCross,16915357.0,16917457.0,2100.0,24,L,16915138,16915262,126,812.0,421.3,5716,NA
14,1,binary,24,2,trial,16915357.0,16917457.0,2100.0,24,L,16915288,16915490,204,956.9,512.8,5892,NA
14,1,binary,24,2,trial,16915357.0,16917457.0,2100.0,24,L,16915542,16915874,334,472.2,506.0,5888,left
14,1,binary,24,2,trial,16915357.0,16917457.0,2100.0,24,L,16915894,16916010,118,572.3,535.2,5071,left
14,1,binary,24,2,trial,16915357.0,16917457.0,2100.0,24,L,16916078,16916600,524,1437.2,576.2,4524,right
14,1,binary,24,2,trial,16915357.0,16917457.0,2100.0,24,L,16916672,16916806,136,577.4,520.7,4436,left
14,1,binary,24,2,trial,16915357.0,16917457.0,2100.0,24,L,16916832,16917118,288,446.5,554.3,4472,left
14,1,binary,24,2,trial,16915357.0,16917457.0,2100.0,24,L,16917142,16917534,394,599.8,532.9,4816,left
14,1,binary,24,2,postResponse,16915357.0,16917457.0,2100.0,24,L,16917588,16917804,218,1183.2,559.6,5149,right
14,1,binary,25,2,trial,16918174.0,16919274.0,1100.0,25,L,16918072,16918370,300,915.8,484.1,5777,NA
14,1,binary,25,2,trial,16918174.0,16919274.0,1100.0,25,L,16918420,16918592,174,1351.9,552.9,6059,right
14,1,binary,25,2,trial,16918174.0,16919274.0,1100.0,25,L,16918616,16918772,158,1467.7,615.8,5805,right
14,1,binary,25,2,trial,16918174.0,16919274.0,1100.0,25,L,16918844,16919466,624,504.5,553.0,5128,left
14,1,binary,26,2,fixationCross,16945708.0,16946724.0,1016.0,26,L,16945433,16945595,164,205.5,32.7,5297,NA
14,1,binary,26,2,trial,16945708.0,16946724.0,1016.0,26,L,16945819,16945957,140,1116.8,542.5,5561,NA
14,1,binary,26,2,trial,16945708.0,16946724.0,1016.0,26,L,16946011,16946129,120,547.7,527.5,5788,left
14,1,binary,26,2,trial,16945708.0,16946724.0,1016.0,26,L,16946153,16946259,108,429.1,484.6,5788,left
14,1,binary,26,2,trial,16945708.0,16946724.0,1016.0,26,L,16946329,16946801,474,1418.7,590.9,5074,right
14,1,binary,26,2,postResponse,16945708.0,16946724.0,1016.0,26,L,16946861,16947063,204,634.3,509.8,4751,left
14,1,binary,27,1,trial,16947458.0,16948524.0,1066.0,27,L,16947257,16947611,356,846.7,526.3,5292,NA
14,1,binary,27,1,trial,16947458.0,16948524.0,1066.0,27,L,16947657,16947799,144,457.3,511.2,5793,left
14,1,binary,27,1,trial,16947458.0,16948524.0,1066.0,27,L,16947821,16947971,152,349.8,508.5,5449,left
14,1,binary,27,1,trial,16947458.0,16948524.0,1066.0,27,L,16948047,16948717,672,1429.7,538.2,4786,right
14,1,binary,28,1,fixationCross,16949224.0,16950541.0,1317.0,28,L,16948975,16949001,28,678.0,420.3,5471,left
14,1,binary,28,1,trial,16949224.0,16950541.0,1317.0,28,L,16949009,16949385,378,677.8,485.8,5562,left
14,1,binary,28,1,trial,16949224.0,16950541.0,1317.0,28,L,16949417,16949583,168,511.9,497.2,5942,left
14,1,binary,28,1,trial,16949224.0,16950541.0,1317.0,28,L,16949643,16949871,230,1302.5,580.5,5064,right
14,1,binary,28,1,trial,16949224.0,16950541.0,1317.0,28,L,16949899,16950275,378,1494.9,544.4,4501,right
14,1,binary,28,1,trial,16949224.0,16950541.0,1317.0,28,L,16950347,16950625,280,580.4,574.1,5178,left
14,1,binary,28,1,trial,16949224.0,16950541.0,1317.0,28,L,16950645,16950771,128,517.0,546.4,5443,left
14,1,binary,29,2,trial,16951241.0,16952541.0,1300.0,29,L,16950991,16951275,286,1120.5,509.7,4759,NA
14,1,binary,29,2,trial,16951241.0,16952541.0,1300.0,29,L,16951301,16951419,120,950.1,534.1,5042,NA
14,1,binary,29,2,trial,16951241.0,16952541.0,1300.0,29,L,16951471,16951647,178,420.4,510.3,5468,left
14,1,binary,29,2,trial,16951241.0,16952541.0,1300.0,29,L,16951713,16951997,286,1382.2,600.9,4902,right
14,1,binary,29,2,trial,16951241.0,16952541.0,1300.0,29,L,16952015,16952139,126,1448.6,634.4,4614,right
14,1,binary,29,2,trial,16951241.0,16952541.0,1300.0,29,L,16952213,16952543,332,441.5,547.5,4772,left
14,1,binary,29,2,trial,16951241.0,16952541.0,1300.0,29,L,16952617,16952813,198,1394.4,765.7,5249,NA
14,1,binary,30,2,trial,16953224.0,16954574.0,1350.0,30,L,16953043,16953295,254,876.1,519.7,5641,NA
14,1,binary,30,2,trial,16953224.0,16954574.0,1350.0,30,L,16953313,16953439,128,939.0,536.3,5877,NA
14,1,binary,30,2,trial,16953224.0,16954574.0,1350.0,30,L,16953489,16953741,254,1377.6,562.3,5792,right
14,1,binary,30,2,trial,16953224.0,16954574.0,1350.0,30,L,16953757,16953919,164,1438.8,558.8,5399,right
14,1,binary,30,2,trial,16953224.0,16954574.0,1350.0,30,L,16953993,16954249,258,481.1,571.9,5427,left
14,1,binary,30,2,trial,16953224.0,16954574.0,1350.0,30,L,16954267,16954543,278,431.3,572.7,5336,left
14,1,binary,30,2,trial,16953224.0,16954574.0,1350.0,30,L,16954563,16954765,204,484.7,636.7,5155,left
14,1,binary,31,2,trial,16955307.0,16956457.0,1150.0,31,L,16955023,16955371,350,1090.7,539.1,5575,NA
14,1,binary,31,2,trial,16955307.0,16956457.0,1150.0,31,L,16955395,16955515,122,987.6,532.9,5967,NA
14,1,binary,31,2,trial,16955307.0,16956457.0,1150.0,31,L,16955571,16955825,256,1529.9,573.6,5706,right
14,1,binary,31,2,trial,16955307.0,16956457.0,1150.0,31,L,16955841,16955971,132,1586.9,545.4,5119,right
14,1,binary,31,2,trial,16955307.0,16956457.0,1150.0,31,L,16956045,16956655,612,496.8,576.9,5050,left
14,1,binary,32,2,trial,16957175.0,16958258.0,1083.0,32,L,16956919,16957317,400,1174.5,548.9,5303,NA
14,1,binary,32,2,trial,16957175.0,16958258.0,1083.0,32,L,16957359,16957647,290,1447.7,564.7,5712,right
14,1,binary,32,2,trial,16957175.0,16958258.0,1083.0,32,L,16957721,16958047,328,450.3,594.8,5089,left
14,1,binary,32,2,trial,16957175.0,16958258.0,1083.0,32,L,16958071,16958455,386,598.4,573.1,5016,left
14,1,binary,33,2,trial,16958941.0,16960891.0,1950.0,33,L,16958685,16959005,322,1125.7,555.0,5500,NA
14,1,binary,33,2,trial,16958941.0,16960891.0,1950.0,33,L,16959031,16959119,90,940.6,531.1,5806,NA
14,1,binary,33,2,trial,16958941.0,16960891.0,1950.0,33,L,16959167,16959409,244,515.7,505.6,5869,left
14,1,binary,33,2,trial,16958941.0,16960891.0,1950.0,33,L,16959481,16959801,322,1472.1,549.3,4983,right
14,1,binary,33,2,trial,16958941.0,16960891.0,1950.0,33,L,16959817,16960035,220,1438.9,590.0,4870,right
14,1,binary,33,2,trial,16958941.0,16960891.0,1950.0,33,L,16960053,16960171,120,1476.0,644.0,4944,right
14,1,binary,33,2,trial,16958941.0,16960891.0,1950.0,33,L,16960247,16960665,420,474.2,511.2,5120,left
14,1,binary,33,2,trial,16958941.0,16960891.0,1950.0,33,L,16960675,16961101,428,464.2,498.6,5123,left
14,1,binary,33,2,postResponse,16958941.0,16960891.0,1950.0,33,L,16961187,16961237,52,1294.7,567.3,5414,right
14,1,binary,34,2,fixationCross,16961574.0,16962891.0,1317.0,34,L,16961311,16961399,90,1287.8,568.3,5524,right
14,1,binary,34,2,trial,16961574.0,16962891.0,1317.0,34,L,16961611,16961753,144,1103.0,535.3,5691,NA
14,1,binary,34,2,trial,16961574.0,16962891.0,1317.0,34,L,16961793,16962061,270,1380.3,528.2,5773,right
14,1,binary,34,2,trial,16961574.0,16962891.0,1317.0,34,L,16962135,16962445,312,410.9,485.6,5127,left
14,1,binary,34,2,trial,16961574.0,16962891.0,1317.0,34,L,16962467,16962619,154,363.9,441.3,4756,left
14,1,binary,34,2,trial,16961574.0,16962891.0,1317.0,34,L,16962689,16962855,168,1323.6,527.4,4616,right
14,1,binary,34,2,trial,16961574.0,16962891.0,1317.0,34,L,16962875,16963167,294,1410.9,499.2,4620,right
14,1,binary,35,1,fixationCross,16963574.0,16965125.0,1551.0,35,L,16963311,16963567,258,953.8,504.1,5226,NA
14,1,binary,35,1,trial,16963574.0,16965125.0,1551.0,35,L,16963593,16963743,152,1095.0,554.4,5507,NA
14,1,binary,35,1,trial,16963574.0,16965125.0,1551.0,35,L,16963799,16964033,236,507.9,535.7,5785,left
14,1,binary,35,1,trial,16963574.0,16965125.0,1551.0,35,L,16964051,16964167,118,438.4,550.8,5782,left
14,1,binary,35,1,trial,16963574.0,16965125.0,1551.0,35,L,16964235,16964411,178,1341.7,524.5,5651,right
14,1,binary,35,1,trial,16963574.0,16965125.0,1551.0,35,L,16964435,16964861,428,1364.0,420.4,5590,right
14,1,binary,35,1,trial,16963574.0,16965125.0,1551.0,35,L,16964927,16965333,408,529.2,533.8,5700,left
14,1,binary,36,1,trial,16965808.0,16966892.0,1084.0,36,L,16965585,16965977,394,1052.4,466.7,5939,NA
14,1,binary,36,1,trial,16965808.0,16966892.0,1084.0,36,L,16966031,16966227,198,516.5,521.3,6116,left
14,1,binary,36,1,trial,16965808.0,16966892.0,1084.0,36,L,16966291,16966569,280,1405.9,568.5,5048,right
14,1,binary,36,1,postResponse,16965808.0,16966892.0,1084.0,36,L,16966639,16967225,588,511.6,525.4,4723,left
14,1,binary,37,1,fixationCross,16967575.0,16968724.0,1149.0,37,L,16967325,16967483,160,715.1,503.1,5257,left
14,1,binary,37,1,trial,16967575.0,16968724.0,1149.0,37,L,16967535,16967715,182,1045.0,499.9,5511,NA
14,1,binary,37,1,trial,16967575.0,16968724.0,1149.0,37,L,16967759,16967965,208,1351.7,542.9,5730,right
14,1,binary,37,1,trial,16967575.0,16968724.0,1149.0,37,L,16967989,16968101,114,1428.1,596.0,5425,right
14,1,binary,37,1,trial,16967575.0,16968724.0,1149.0,37,L,16968171,16968389,220,505.8,498.5,4973,left
14,1,binary,37,1,trial,16967575.0,16968724.0,1149.0,37,L,16968411,16968645,236,395.8,461.2,4767,left
14,1,binary,37,1,postResponse,16967575.0,16968724.0,1149.0,37,L,16968715,16969087,374,1338.7,510.4,4654,right
14,1,binary,38,1,fixationCross,16969474.0,16970841.0,1367.0,38,L,16969189,16969427,240,919.8,452.0,5177,NA
14,1,binary,38,1,trial,16969474.0,16970841.0,1367.0,38,L,16969467,16969635,170,1038.9,580.4,5515,NA
14,1,binary,38,1,trial,16969474.0,16970841.0,1367.0,38,L,16969675,16969853,180,1330.9,532.8,5701,right
14,1,binary,38,1,trial,16969474.0,16970841.0,1367.0,38,L,16969891,16969983,94,1535.5,488.8,5488,right
14,1,binary,38,1,trial,16969474.0,16970841.0,1367.0,38,L,16970061,16970363,304,461.9,553.4,5360,left
14,1,binary,38,1,trial,16969474.0,16970841.0,1367.0,38,L,16970377,16970873,498,441.0,592.0,5175,left
14,1,binary,38,1,trial,16969474.0,16970841.0,1367.0,38,L,16970941,16971097,158,1215.8,507.2,5175,right
14,1,binary,39,2,trial,16971524.0,16973174.0,1650.0,39,L,16971361,16971605,246,1018.8,542.9,5508,NA
14,1,binary,39,2,trial,16971524.0,16973174.0,1650.0,39,L,16971627,16971711,86,931.3,524.5,5701,NA
14,1,binary,39,2,trial,16971524.0,16973174.0,1650.0,39,L,16971765,16972245,482,1433.7,540.3,5484,right
14,1,binary,39,2,trial,16971524.0,16973174.0,1650.0,39,L,16972291,16972393,104,987.0,549.2,5152,NA
14,1,binary,39,2,trial,16971524.0,16973174.0,1650.0,39,L,16972445,16972613,170,1437.4,543.0,5133,right
14,1,binary,39,2,trial,16971524.0,16973174.0,1650.0,39,L,16972681,16973435,756,564.8,558.2,5722,left
14,1,binary,40,2,fixationCross,16973858.0,16975508.0,1650.0,40,L,16973597,16973703,108,1378.6,581.5,5389,right
14,1,binary,40,2,trial,16973858.0,16975508.0,1650.0,40,L,16973745,16973929,186,1137.8,555.5,5450,NA
14,1,binary,40,2,trial,16973858.0,16975508.0,1650.0,40,L,16973959,16974077,120,959.1,549.4,5728,NA
14,1,binary,40,2,trial,16973858.0,16975508.0,1650.0,40,L,16974131,16974347,218,1461.0,528.9,5684,right
14,1,binary,40,2,trial,16973858.0,16975508.0,1650.0,40,L,16974369,16974525,158,1539.9,481.3,5337,right
14,1,binary,40,2,trial,16973858.0,16975508.0,1650.0,40,L,16974599,16975063,466,513.3,562.6,5297,left
14,1,binary,40,2,trial,16973858.0,16975508.0,1650.0,40,L,16975087,16975201,116,605.5,497.8,5007,left
14,1,binary,40,2,trial,16973858.0,16975508.0,1650.0,40,L,16975265,16975483,220,1404.2,559.8,4663,right
14,1,binary,40,2,trial,16973858.0,16975508.0,1650.0,40,L,16975503,16975797,296,1416.3,618.4,4853,right
14,1,binary,41,2,fixationCross,16976208.0,16977674.0,1466.0,41,L,16975939,16975979,42,1077.6,541.4,5512,NA
14,1,binary,41,2,trial,16976208.0,16977674.0,1466.0,41,L,16976229,16976267,40,1001.2,526.2,5880,NA
14,1,binary,41,2,trial,16976208.0,16977674.0,1466.0,41,L,16976279,16976337,60,995.5,570.9,5740,NA
14,1,binary,41,2,trial,16976208.0,16977674.0,1466.0,41,L,16976395,16976629,236,449.4,536.2,5873,left
14,1,binary,41,2,trial,16976208.0,16977674.0,1466.0,41,L,16976697,16977015,320,1372.9,592.9,5099,right
14,1,binary,41,2,trial,16976208.0,16977674.0,1466.0,41,L,16977041,16977297,258,1360.6,464.6,4748,right
14,1,binary,41,2,trial,16976208.0,16977674.0,1466.0,41,L,16977335,16977567,234,1432.6,602.0,5174,right
14,1,binary,41,2,postResponse,16976208.0,16977674.0,1466.0,41,L,16977581,16978007,428,1408.1,640.9,5611,right
14,1,binary,42,2,trial,16978358.0,16979375.0,1017.0,42,L,16978099,16978515,418,796.7,507.6,5966,NA
14,1,binary,42,2,trial,16978358.0,16979375.0,1017.0,42,L,16978547,16978741,196,550.8,521.5,6236,left
14,1,binary,42,2,trial,16978358.0,16979375.0,1017.0,42,L,16978811,16979579,770,1454.2,553.4,5458,right
14,1,binary,42,2,postResponse,16978358.0,16979375.0,1017.0,42,L,16979645,16979707,64,790.5,551.4,5534,NA
14,1,binary,43,1,fixationCross,16980058.0,16981624.0,1566.0,43,L,16979977,16980005,30,811.2,476.7,6073,NA
14,1,binary,43,1,trial,16980058.0,16981624.0,1566.0,43,L,16980021,16980233,214,808.8,521.0,5986,NA
14,1,binary,43,1,trial,16980058.0,16981624.0,1566.0,43,L,16980263,16980443,182,631.3,534.1,6169,left
14,1,binary,43,1,trial,16980058.0,16981624.0,1566.0,43,L,16980467,16980769,304,500.1,566.4,5656,left
14,1,binary,43,1,trial,16980058.0,16981624.0,1566.0,43,L,16980835,16981259,426,1375.4,561.7,5145,right
14,1,binary,43,1,trial,16980058.0,16981624.0,1566.0,43,L,16981333,16981877,546,480.7,579.4,5595,left
14,1,binary,44,2,fixationCross,16982325.0,16983625.0,1300.0,44,L,16982049,16982155,108,1250.6,532.1,5699,right
14,1,binary,44,2,trial,16982325.0,16983625.0,1300.0,44,L,16982181,16982415,236,1072.0,564.0,5766,NA
14,1,binary,44,2,trial,16982325.0,16983625.0,1300.0,44,L,16982453,16982565,114,810.8,544.3,6031,NA
14,1,binary,44,2,trial,16982325.0,16983625.0,1300.0,44,L,16982607,16982731,126,509.4,516.4,6158,left
14,1,binary,44,2,trial,16982325.0,16983625.0,1300.0,44,L,16982797,16983025,230,1408.8,617.9,5641,right
14,1,binary,44,2,trial,16982325.0,16983625.0,1300.0,44,L,16983097,16983279,184,463.8,557.4,5465,left
14,1,binary,44,2,trial,16982325.0,16983625.0,1300.0,44,L,16983305,16983841,538,352.4,419.9,5306,left
14,1,binary,44,2,postResponse,16982325.0,16983625.0,1300.0,44,L,16983921,16983971,52,1107.1,606.2,5373,NA
14,1,binary,45,2,trial,16984342.0,16985608.0,1266.0,45,L,16984263,16984497,236,1024.1,581.0,5671,NA
14,1,binary,45,2,trial,16984342.0,16985608.0,1266.0,45,L,16984543,16984715,174,1399.8,585.4,5930,right
14,1,binary,45,2,trial,16984342.0,16985608.0,1266.0,45,L,16984737,16984905,170,1501.8,597.9,5658,right
14,1,binary,45,2,trial,16984342.0,16985608.0,1266.0,45,L,16984975,16985265,292,507.2,610.6,5289,left
14,1,binary,45,2,trial,16984342.0,16985608.0,1266.0,45,L,16985287,16985807,522,409.0,568.8,5420,left
14,1,binary,46,2,fixationCross,16986325.0,16987658.0,1333.0,46,L,16986095,16986255,162,1199.4,555.8,5331,right
14,1,binary,46,2,trial,16986325.0,16987658.0,1333.0,46,L,16986299,16986483,186,954.2,512.4,5552,NA
14,1,binary,46,2,trial,16986325.0,16987658.0,1333.0,46,L,16986529,16986739,212,1328.0,520.9,5796,right
14,1,binary,46,2,trial,16986325.0,16987658.0,1333.0,46,L,16986765,16986945,182,1451.9,606.0,5505,right
14,1,binary,46,2,trial,16986325.0,16987658.0,1333.0,46,L,16986963,16987081,120,1453.4,652.8,5346,right
14,1,binary,46,2,trial,16986325.0,16987658.0,1333.0,46,L,16987151,16987433,284,535.4,554.5,5324,left
14,1,binary,46,2,trial,16986325.0,16987658.0,1333.0,46,L,16987457,16987865,410,444.3,626.6,5491,left
14,1,binary,47,2,fixationCross,16988342.0,16989808.0,1466.0,47,L,16988087,16988277,192,1166.1,481.2,5767,NA
14,1,binary,47,2,trial,16988342.0,16989808.0,1466.0,47,L,16988301,16988499,200,1089.0,556.2,5879,NA
14,1,binary,47,2,trial,16988342.0,16989808.0,1466.0,47,L,16988539,16989017,480,1373.2,564.1,5811,right
14,1,binary,47,2,trial,16988342.0,16989808.0,1466.0,47,L,16989085,16989301,218,550.5,506.8,5343,left
14,1,binary,47,2,trial,16988342.0,16989808.0,1466.0,47,L,16989323,16989839,518,438.5,497.1,5062,left
14,1,binary,47,2,trial,16988342.0,16989808.0,1466.0,47,L,16989855,16990013,160,474.1,523.7,5057,left
14,1,binary,48,1,trial,16990492.0,16992058.0,1566.0,48,L,16990259,16990603,346,993.8,558.8,5405,NA
14,1,binary,48,1,trial,16990492.0,16992058.0,1566.0,48,L,16990637,16990749,114,782.0,536.7,5795,NA
14,1,binary,48,1,trial,16990492.0,16992058.0,1566.0,48,L,16990789,16990979,192,502.6,511.5,5860,left
14,1,binary,48,1,trial,16990492.0,16992058.0,1566.0,48,L,16991045,16991333,290,1342.7,591.4,5534,right
14,1,binary,48,1,trial,16990492.0,16992058.0,1566.0,48,L,16991343,16991369,28,1361.1,613.1,5473,right
14,1,binary,48,1,trial,16990492.0,16992058.0,1566.0,48,L,16991437,16992267,832,480.3,524.8,5720,left
14,1,binary,49,2,trial,16992741.0,16994558.0,1817.0,49,L,16992559,16992763,206,1143.5,525.3,5641,NA
14,1,binary,49,2,trial,16992741.0,16994558.0,1817.0,49,L,16992785,16992937,154,1032.9,519.0,5799,NA
14,1,binary,49,2,trial,16992741.0,16994558.0,1817.0,49,L,16992981,16993213,234,1383.9,481.8,5875,right
14,1,binary,49,2,trial,16992741.0,16994558.0,1817.0,49,L,16993239,16993465,228,1409.9,362.7,5329,right
14,1,binary,49,2,trial,16992741.0,16994558.0,1817.0,49,L,16993485,16993585,102,1441.5,428.1,5052,right
14,1,binary,49,2,trial,16992741.0,16994558.0,1817.0,49,L,16993655,16993919,266,505.0,546.0,5131,left
14,1,binary,49,2,trial,16992741.0,16994558.0,1817.0,49,L,16993941,16994175,236,409.4,523.0,5150,left
14,1,binary,49,2,trial,16992741.0,16994558.0,1817.0,49,L,16994245,16994571,328,1392.9,504.3,4838,right
14,1,binary,49,2,trial,16992741.0,16994558.0,1817.0,49,L,16994593,16994861,270,1429.2,436.0,5089,right
14,1,binary,50,1,trial,16995258.0,16996491.0,1233.0,50,L,16995101,16995387,288,889.7,474.6,5621,NA
14,1,binary,50,1,trial,16995258.0,16996491.0,1233.0,50,L,16995435,16995761,328,514.2,540.5,5756,left
14,1,binary,50,1,trial,16995258.0,16996491.0,1233.0,50,L,16995831,16996029,200,1406.9,581.8,4964,right
14,1,binary,50,1,trial,16995258.0,16996491.0,1233.0,50,L,16996053,16996283,232,1556.4,625.7,4719,right
14,1,binary,50,1,trial,16995258.0,16996491.0,1233.0,50,L,16996297,16996335,40,1576.2,646.9,4787,right
14,1,binary,50,1,trial,16995258.0,16996491.0,1233.0,50,L,16996405,16996743,340,646.2,543.1,4938,left
14,2,continuous,1,11,fixationCross,17091526.0,17094109.0,2583.0,51,L,17091266,17091480,216,858.6,518.9,6071,NA
14,2,continuous,1,11,trial,17091526.0,17094109.0,2583.0,51,L,17091530,17091686,158,1001.2,884.0,6317,likertHorizontal
14,2,continuous,1,11,trial,17091526.0,17094109.0,2583.0,51,L,17091736,17091852,118,1186.5,549.6,6322,right
14,2,continuous,1,11,trial,17091526.0,17094109.0,2583.0,51,L,17091918,17092240,324,447.1,521.1,5777,left
14,2,continuous,1,11,trial,17091526.0,17094109.0,2583.0,51,L,17092312,17092776,466,1436.3,532.1,5127,right
14,2,continuous,1,11,trial,17091526.0,17094109.0,2583.0,51,L,17092838,17093120,284,905.1,764.8,5702,likertHorizontal
14,2,continuous,1,11,trial,17091526.0,17094109.0,2583.0,51,L,17093148,17093440,294,730.3,903.8,6257,NA
14,2,continuous,1,11,trial,17091526.0,17094109.0,2583.0,51,L,17093504,17093984,482,440.6,562.3,6044,left
14,2,continuous,1,11,trial,17091526.0,17094109.0,2583.0,51,L,17094036,17094384,350,563.0,983.0,5335,NA
14,2,continuous,2,60,fixationCross,17094826.0,17096760.0,1934.0,52,L,17094560,17094610,52,789.6,575.2,5540,NA
14,2,continuous,2,60,trial,17094826.0,17096760.0,1934.0,52,L,17094834,17094992,160,978.9,489.4,5928,NA
14,2,continuous,2,60,trial,17094826.0,17096760.0,1934.0,52,L,17095040,17095204,166,1333.7,524.4,6118,right
14,2,continuous,2,60,trial,17094826.0,17096760.0,1934.0,52,L,17095228,17095388,162,1433.2,500.3,5969,right
14,2,continuous,2,60,trial,17094826.0,17096760.0,1934.0,52,L,17095452,17095828,378,611.8,517.2,5439,left
14,2,continuous,2,60,trial,17094826.0,17096760.0,1934.0,52,L,17095842,17096070,230,617.6,490.1,5124,left
14,2,continuous,2,60,trial,17094826.0,17096760.0,1934.0,52,L,17096134,17096414,282,1359.5,563.2,4931,right
14,2,continuous,2,60,trial,17094826.0,17096760.0,1934.0,52,L,17096464,17096740,278,1121.2,930.5,5360,likertHorizontal
14,2,continuous,2,60,trial,17094826.0,17096760.0,1934.0,52,L,17096760,17097042,284,1066.4,961.5,5879,likertHorizontal
14,2,continuous,3,57,trial,17097442.0,17098876.0,1434.0,53,L,17097170,17097620,452,933.4,541.2,6148,NA
14,2,continuous,3,57,trial,17097442.0,17098876.0,1434.0,53,L,17097668,17097760,94,560.2,562.1,6393,left
14,2,continuous,3,57,trial,17097442.0,17098876.0,1434.0,53,L,17097778,17097982,206,472.2,575.1,5953,left
14,2,continuous,3,57,trial,17097442.0,17098876.0,1434.0,53,L,17098050,17098268,220,1352.8,598.5,5148,right
14,2,continuous,3,57,trial,17097442.0,17098876.0,1434.0,53,L,17098294,17098786,494,1501.8,587.0,5028,right
14,2,continuous,3,57,trial,17097442.0,17098876.0,1434.0,53,L,17098840,17099130,292,1020.9,1009.7,5746,likertHorizontal
14,2,continuous,4,68,trial,17099593.0,17101243.0,1650.0,54,L,17099338,17099656,320,973.2,466.8,5986,NA
14,2,continuous,4,68,trial,17099593.0,17101243.0,1650.0,54,L,17099676,17099786,112,931.9,501.8,6300,NA
14,2,continuous,4,68,trial,17099593.0,17101243.0,1650.0,54,L,17099834,17100030,198,1361.1,511.7,6179,right
14,2,continuous,4,68,trial,17099593.0,17101243.0,1650.0,54,L,17100110,17100338,230,476.7,557.0,5322,left
14,2,continuous,4,68,trial,17099593.0,17101243.0,1650.0,54,L,17100356,17100716,362,548.5,572.1,5002,left
14,2,continuous,4,68,trial,17099593.0,17101243.0,1650.0,54,L,17100790,17101452,664,1306.2,518.4,5264,right
14,2,continuous,5,26,trial,17101943.0,17103376.0,1433.0,55,L,17101672,17102106,436,901.3,510.5,5491,NA
14,2,continuous,5,26,trial,17101943.0,17103376.0,1433.0,55,L,17102144,17102242,100,649.1,493.1,6012,left
14,2,continuous,5,26,trial,17101943.0,17103376.0,1433.0,55,L,17102268,17102512,246,461.3,533.7,5595,left
14,2,continuous,5,26,trial,17101943.0,17103376.0,1433.0,55,L,17102588,17102792,206,1393.7,531.7,4890,right
14,2,continuous,5,26,trial,17101943.0,17103376.0,1433.0,55,L,17102812,17103040,230,1464.7,492.5,4709,right
14,2,continuous,5,26,trial,17101943.0,17103376.0,1433.0,55,L,17103090,17103288,200,1014.1,664.2,4870,NA
14,2,continuous,5,26,trial,17101943.0,17103376.0,1433.0,55,L,17103342,17103628,288,512.4,601.6,5265,left
14,2,continuous,6,9,trial,17104076.0,17106760.0,2684.0,56,L,17103832,17104150,320,1004.0,509.4,5572,NA
14,2,continuous,6,9,trial,17104076.0,17106760.0,2684.0,56,L,17104164,17104262,100,962.7,522.2,5815,NA
14,2,continuous,6,9,trial,17104076.0,17106760.0,2684.0,56,L,17104312,17104540,230,1384.0,555.3,5828,right
14,2,continuous,6,9,trial,17104076.0,17106760.0,2684.0,56,L,17104614,17104854,242,441.4,558.4,5205,left
14,2,continuous,6,9,postResponse,17104076.0,17106760.0,2684.0,56,L,17104872,17107106,2236,401.8,520.7,5738,left
14,2,continuous,7,22,trial,17107443.0,17109277.0,1834.0,57,L,17107310,17107506,198,1014.1,509.9,6215,NA
14,2,continuous,7,22,trial,17107443.0,17109277.0,1834.0,57,L,17107526,17107662,138,921.0,507.1,6336,NA
14,2,continuous,7,22,trial,17107443.0,17109277.0,1834.0,57,L,17107710,17107856,148,1295.2,511.4,6484,right
14,2,continuous,7,22,trial,17107443.0,17109277.0,1834.0,57,L,17107920,17108064,146,501.6,507.2,6171,left
14,2,continuous,7,22,trial,17107443.0,17109277.0,1834.0,57,L,17108084,17108242,160,437.5,566.6,5882,left
14,2,continuous,7,22,trial,17107443.0,17109277.0,1834.0,57,L,17108258,17108662,406,471.0,615.3,5619,left
14,2,continuous,7,22,trial,17107443.0,17109277.0,1834.0,57,L,17108686,17109268,584,427.5,524.3,5502,left
14,2,continuous,7,22,trial,17107443.0,17109277.0,1834.0,57,L,17109340,17109578,240,1284.5,504.1,5862,right
14,2,continuous,8,66,trial,17109976.0,17111926.0,1950.0,58,L,17109770,17110064,296,872.3,504.6,5966,NA
14,2,continuous,8,66,trial,17109976.0,17111926.0,1950.0,58,L,17110082,17110166,86,933.5,505.6,6212,NA
14,2,continuous,8,66,trial,17109976.0,17111926.0,1950.0,58,L,17110228,17110384,158,1360.5,499.5,6018,right
14,2,continuous,8,66,trial,17109976.0,17111926.0,1950.0,58,L,17110396,17110560,166,1350.6,494.5,5365,right
14,2,continuous,8,66,trial,17109976.0,17111926.0,1950.0,58,L,17110626,17110812,188,535.7,524.7,4827,left
14,2,continuous,8,66,trial,17109976.0,17111926.0,1950.0,58,L,17110826,17110970,146,492.4,521.8,4700,left
14,2,continuous,8,66,trial,17109976.0,17111926.0,1950.0,58,L,17111040,17111300,262,1393.3,475.1,4827,right
14,2,continuous,8,66,trial,17109976.0,17111926.0,1950.0,58,L,17111316,17111806,492,1338.1,457.7,4797,right
14,2,continuous,8,66,trial,17109976.0,17111926.0,1950.0,58,L,17111864,17112132,270,1114.3,980.2,5142,likertHorizontal
14,2,continuous,9,87,trial,17112626.0,17114160.0,1534.0,59,L,17112382,17112762,382,949.6,469.5,5482,NA
14,2,continuous,9,87,trial,17112626.0,17114160.0,1534.0,59,L,17112796,17112834,40,806.0,482.0,5892,NA
14,2,continuous,9,87,trial,17112626.0,17114160.0,1534.0,59,L,17112890,17113148,260,1422.0,530.2,5613,right
14,2,continuous,9,87,trial,17112626.0,17114160.0,1534.0,59,L,17113170,17113344,176,1454.8,427.5,5042,right
14,2,continuous,9,87,trial,17112626.0,17114160.0,1534.0,59,L,17113416,17113784,370,492.4,528.0,4968,left
14,2,continuous,9,87,trial,17112626.0,17114160.0,1534.0,59,L,17113806,17114372,568,387.7,478.7,5445,left
14,2,continuous,9,87,postResponse,17112626.0,17114160.0,1534.0,59,L,17114442,17114504,64,958.7,542.0,5822,NA
14,2,continuous,10,16,trial,17114859.0,17118377.0,3518.0,60,L,17114632,17114886,256,1383.3,461.2,5963,right
14,2,continuous,10,16,trial,17114859.0,17118377.0,3518.0,60,L,17114920,17115032,114,1122.4,484.5,6209,NA
14,2,continuous,10,16,trial,17114859.0,17118377.0,3518.0,60,L,17115076,17115204,130,1424.8,464.6,6311,right
14,2,continuous,10,16,trial,17114859.0,17118377.0,3518.0,60,L,17115218,17115364,148,1393.0,470.7,6062,right
14,2,continuous,10,16,trial,17114859.0,17118377.0,3518.0,60,L,17115432,17115588,158,517.8,555.9,5577,left
14,2,continuous,10,16,trial,17114859.0,17118377.0,3518.0,60,L,17115604,17115756,154,555.0,578.8,5302,left
14,2,continuous,10,16,trial,17114859.0,17118377.0,3518.0,60,L,17115784,17116130,348,384.3,489.1,5042,left
14,2,continuous,10,16,trial,17114859.0,17118377.0,3518.0,60,L,17116152,17116446,296,483.3,547.9,5035,left
14,2,continuous,10,16,trial,17114859.0,17118377.0,3518.0,60,L,17116518,17116654,138,1380.3,527.3,5316,right
14,2,continuous,10,16,trial,17114859.0,17118377.0,3518.0,60,L,17116668,17117020,354,1393.9,474.2,5304,right
14,2,continuous,10,16,trial,17114859.0,17118377.0,3518.0,60,L,17117042,17117220,180,1430.6,552.9,5191,right
14,2,continuous,10,16,trial,17114859.0,17118377.0,3518.0,60,L,17117242,17117392,152,1392.4,479.0,5269,right
14,2,continuous,10,16,trial,17114859.0,17118377.0,3518.0,60,L,17117454,17117598,146,646.0,537.5,5531,left
14,2,continuous,10,16,trial,17114859.0,17118377.0,3518.0,60,L,17117616,17117980,366,573.8,569.0,5576,left
14,2,continuous,10,16,postResponse,17114859.0,17118377.0,3518.0,60,L,17118002,17118698,698,491.0,541.3,5412,left
14,2,continuous,11,33,trial,17119060.0,17120526.0,1466.0,61,L,17118940,17119194,256,975.8,514.8,5638,NA
14,2,continuous,11,33,trial,17119060.0,17120526.0,1466.0,61,L,17119242,17119488,248,1358.6,572.7,5827,right
14,2,continuous,11,33,trial,17119060.0,17120526.0,1466.0,61,L,17119554,17119810,258,524.1,563.2,5327,left
14,2,continuous,11,33,trial,17119060.0,17120526.0,1466.0,61,L,17119838,17120740,904,316.8,554.2,4974,left
14,2,continuous,11,33,postResponse,17119060.0,17120526.0,1466.0,61,L,17120818,17120868,52,1029.7,508.6,5395,NA
14,2,continuous,12,67,trial,17121243.0,17125093.0,3850.0,62,L,17120968,17121296,330,1032.0,513.7,5571,NA
14,2,continuous,12,67,trial,17121243.0,17125093.0,3850.0,62,L,17121316,17121454,140,960.2,512.2,5909,NA
14,2,continuous,12,67,trial,17121243.0,17125093.0,3850.0,62,L,17121504,17121724,222,1384.0,555.6,5719,right
14,2,continuous,12,67,trial,17121243.0,17125093.0,3850.0,62,L,17121796,17122076,282,488.9,548.7,4981,left
14,2,continuous,12,67,trial,17121243.0,17125093.0,3850.0,62,L,17122098,17122300,204,452.2,647.4,4664,left
14,2,continuous,12,67,trial,17121243.0,17125093.0,3850.0,62,L,17122316,17122524,210,500.8,678.7,4758,left
14,2,continuous,12,67,trial,17121243.0,17125093.0,3850.0,62,L,17122598,17122908,312,1396.8,634.6,4890,right
14,2,continuous,12,67,trial,17121243.0,17125093.0,3850.0,62,L,17122982,17123204,224,446.0,634.8,5137,left
14,2,continuous,12,67,trial,17121243.0,17125093.0,3850.0,62,L,17123222,17123820,600,505.9,661.0,5258,left
14,2,continuous,12,67,trial,17121243.0,17125093.0,3850.0,62,L,17123902,17125052,1152,1460.4,635.1,5359,right
14,2,continuous,12,67,trial,17121243.0,17125093.0,3850.0,62,L,17125070,17125300,232,1447.6,605.1,5051,right
14,2,continuous,13,11,fixationCross,17125793.0,17128093.0,2300.0,63,L,17125568,17125610,44,822.1,462.3,5351,NA
14,2,continuous,13,11,trial,17125793.0,17128093.0,2300.0,63,L,17125618,17125960,344,810.5,504.6,5479,NA
14,2,continuous,13,11,trial,17125793.0,17128093.0,2300.0,63,L,17125998,17126158,162,580.2,518.2,5888,left
14,2,continuous,13,11,trial,17125793.0,17128093.0,2300.0,63,L,17126178,17126284,108,504.1,545.7,5718,left
14,2,continuous,13,11,trial,17125793.0,17128093.0,2300.0,63,L,17126354,17126536,184,1417.9,561.3,5337,right
14,2,continuous,13,11,trial,17125793.0,17128093.0,2300.0,63,L,17126558,17126832,276,1357.1,531.3,5096,right
14,2,continuous,13,11,trial,17125793.0,17128093.0,2300.0,63,L,17126864,17127036,174,1568.7,500.0,5262,right
14,2,continuous,13,11,trial,17125793.0,17128093.0,2300.0,63,L,17127078,17127334,258,1337.6,478.4,5413,right
14,2,continuous,13,11,trial,17125793.0,17128093.0,2300.0,63,L,17127348,17127514,168,1296.5,465.3,5430,right
14,2,continuous,13,11,trial,17125793.0,17128093.0,2300.0,63,L,17127572,17127970,400,638.7,531.0,5754,left
14,2,continuous,13,11,trial,17125793.0,17128093.0,2300.0,63,L,17127996,17128354,360,510.4,522.8,6014,left
14,2,continuous,14,16,trial,17128809.0,17132277.0,3468.0,64,L,17128630,17128950,322,976.2,458.1,5654,NA
14,2,continuous,14,16,trial,17128809.0,17132277.0,3468.0,64,L,17128998,17129248,252,1327.9,523.7,5775,right
14,2,continuous,14,16,trial,17128809.0,17132277.0,3468.0,64,L,17129284,17129548,266,1499.3,546.5,5064,right
14,2,continuous,14,16,trial,17128809.0,17132277.0,3468.0,64,L,17129626,17129794,170,540.5,509.0,5007,left
14,2,continuous,14,16,trial,17128809.0,17132277.0,3468.0,64,L,17129820,17129980,162,375.1,583.9,5057,left
14,2,continuous,14,16,trial,17128809.0,17132277.0,3468.0,64,L,17130000,17130326,328,295.4,635.0,5011,left
14,2,continuous,14,16,trial,17128809.0,17132277.0,3468.0,64,L,17130344,17130618,276,242.2,612.9,4812,left
14,2,continuous,14,16,trial,17128809.0,17132277.0,3468.0,64,L,17130850,17130884,36,350.0,575.9,4936,left
14,2,continuous,14,16,trial,17128809.0,17132277.0,3468.0,64,L,17130958,17131164,208,1343.4,532.9,5056,right
14,2,continuous,14,16,trial,17128809.0,17132277.0,3468.0,64,L,17131190,17131402,214,1454.8,552.4,5232,right
14,2,continuous,14,16,trial,17128809.0,17132277.0,3468.0,64,L,17131418,17131588,172,1512.6,544.9,5171,right
14,2,continuous,14,16,trial,17128809.0,17132277.0,3468.0,64,L,17131658,17132200,544,622.0,583.4,5114,left
14,2,continuous,14,16,trial,17128809.0,17132277.0,3468.0,64,L,17132232,17132534,304,372.7,587.6,5515,left
14,2,continuous,15,76,trial,17132959.0,17135210.0,2251.0,65,L,17132842,17133026,186,1252.7,606.1,5438,right
14,2,continuous,15,76,trial,17132959.0,17135210.0,2251.0,65,L,17133062,17133182,122,1021.9,537.0,5721,NA
14,2,continuous,15,76,trial,17132959.0,17135210.0,2251.0,65,L,17133228,17133362,136,1387.4,473.8,5851,right
14,2,continuous,15,76,trial,17132959.0,17135210.0,2251.0,65,L,17133402,17133586,186,1612.5,465.5,5338,right
14,2,continuous,15,76,trial,17132959.0,17135210.0,2251.0,65,L,17133598,17133694,98,1638.5,454.4,4996,right
14,2,continuous,15,76,trial,17132959.0,17135210.0,2251.0,65,L,17133736,17133844,110,1332.5,494.1,4857,right
14,2,continuous,15,76,trial,17132959.0,17135210.0,2251.0,65,L,17133908,17134052,146,522.7,513.5,4938,left
14,2,continuous,15,76,trial,17132959.0,17135210.0,2251.0,65,L,17134064,17134456,394,484.3,514.8,5114,left
14,2,continuous,15,76,trial,17132959.0,17135210.0,2251.0,65,L,17134536,17134852,318,1532.8,488.8,5193,right
14,2,continuous,15,76,trial,17132959.0,17135210.0,2251.0,65,L,17134900,17134998,100,1225.9,656.0,5301,right
14,2,continuous,15,76,trial,17132959.0,17135210.0,2251.0,65,L,17135044,17135234,192,1133.2,971.2,5467,likertHorizontal
14,2,continuous,15,76,trial,17132959.0,17135210.0,2251.0,65,L,17135290,17135418,130,1191.0,513.7,5543,right
14,2,continuous,15,76,postResponse,17132959.0,17135210.0,2251.0,65,L,17135464,17135556,94,804.2,476.7,5607,NA
14,2,continuous,16,22,trial,17135910.0,17137693.0,1783.0,66,L,17135632,17135922,292,807.8,485.1,5624,NA
14,2,continuous,16,22,trial,17135910.0,17137693.0,1783.0,66,L,17135948,17136096,150,958.4,541.8,5907,NA
14,2,continuous,16,22,trial,17135910.0,17137693.0,1783.0,66,L,17136146,17136306,162,504.2,514.3,6090,left
14,2,continuous,16,22,trial,17135910.0,17137693.0,1783.0,66,L,17136328,17136552,226,373.5,526.0,5493,left
14,2,continuous,16,22,trial,17135910.0,17137693.0,1783.0,66,L,17136574,17136728,156,457.9,546.3,4987,left
14,2,continuous,16,22,trial,17135910.0,17137693.0,1783.0,66,L,17136800,17137048,250,1417.5,570.3,4739,right
14,2,continuous,16,22,trial,17135910.0,17137693.0,1783.0,66,L,17137086,17137340,256,1625.9,625.6,4868,right
14,2,continuous,16,22,trial,17135910.0,17137693.0,1783.0,66,L,17137380,17137612,234,1358.2,476.0,5297,right
14,2,continuous,16,22,trial,17135910.0,17137693.0,1783.0,66,L,17137686,17137968,284,463.5,521.2,5560,left
14,2,continuous,17,100,fixationCross,17138426.0,17139743.0,1317.0,67,L,17138206,17138238,34,1102.0,476.8,5325,NA
14,2,continuous,17,100,trial,17138426.0,17139743.0,1317.0,67,L,17138246,17138482,238,1116.7,519.9,5220,NA
14,2,continuous,17,100,trial,17138426.0,17139743.0,1317.0,67,L,17138506,17138614,110,967.1,528.2,5553,NA
14,2,continuous,17,100,trial,17138426.0,17139743.0,1317.0,67,L,17138664,17138838,176,563.4,488.6,5781,left
14,2,continuous,17,100,trial,17138426.0,17139743.0,1317.0,67,L,17138904,17139262,360,1432.4,612.1,5117,right
14,2,continuous,17,100,trial,17138426.0,17139743.0,1317.0,67,L,17139328,17139552,226,614.8,568.7,4958,left
14,2,continuous,17,100,trial,17138426.0,17139743.0,1317.0,67,L,17139588,17140020,434,390.9,573.9,5256,left
14,2,continuous,18,70,trial,17140460.0,17142143.0,1683.0,68,L,17140260,17140534,276,1031.4,512.5,5778,NA
14,2,continuous,18,70,trial,17140460.0,17142143.0,1683.0,68,L,17140556,17140686,132,946.3,505.6,6079,NA
14,2,continuous,18,70,trial,17140460.0,17142143.0,1683.0,68,L,17140736,17140960,226,492.8,485.7,6040,left
14,2,continuous,18,70,trial,17140460.0,17142143.0,1683.0,68,L,17140976,17141224,250,472.3,480.6,5677,left
14,2,continuous,18,70,trial,17140460.0,17142143.0,1683.0,68,L,17141244,17141356,114,470.4,430.9,5511,left
14,2,continuous,18,70,trial,17140460.0,17142143.0,1683.0,68,L,17141428,17141800,374,1389.9,591.3,5475,right
14,2,continuous,18,70,trial,17140460.0,17142143.0,1683.0,68,L,17141826,17142124,300,1485.5,531.4,5309,right
14,2,continuous,18,70,trial,17140460.0,17142143.0,1683.0,68,L,17142152,17142422,272,1445.7,414.4,5142,right
14,2,continuous,19,18,fixationCross,17142827.0,17144576.0,1749.0,69,L,17142630,17142654,26,761.6,496.7,5511,NA
14,2,continuous,19,18,trial,17142827.0,17144576.0,1749.0,69,L,17142666,17142964,300,759.1,552.2,5459,NA
14,2,continuous,19,18,trial,17142827.0,17144576.0,1749.0,69,L,17142994,17143248,256,517.3,503.0,5773,left
14,2,continuous,19,18,trial,17142827.0,17144576.0,1749.0,69,L,17143272,17143484,214,398.4,470.7,5405,left
14,2,continuous,19,18,trial,17142827.0,17144576.0,1749.0,69,L,17143506,17143710,206,487.9,401.3,5184,left
14,2,continuous,19,18,trial,17142827.0,17144576.0,1749.0,69,L,17143784,17144010,228,1468.8,571.3,5009,right
14,2,continuous,19,18,postResponse,17142827.0,17144576.0,1749.0,69,L,17144032,17144922,892,1364.1,560.0,5435,right
14,2,continuous,20,1,trial,17145243.0,17148244.0,3001.0,70,L,17145092,17145334,244,1032.7,512.7,5824,NA
14,2,continuous,20,1,trial,17145243.0,17148244.0,3001.0,70,L,17145376,17145522,148,724.2,511.1,5994,left
14,2,continuous,20,1,trial,17145243.0,17148244.0,3001.0,70,L,17145580,17145998,420,1375.2,524.7,5335,right
14,2,continuous,20,1,trial,17145243.0,17148244.0,3001.0,70,L,17146022,17146394,374,1493.9,581.8,4853,right
14,2,continuous,20,1,trial,17145243.0,17148244.0,3001.0,70,L,17146466,17146640,176,548.1,641.7,5306,left
14,2,continuous,20,1,trial,17145243.0,17148244.0,3001.0,70,L,17146658,17146906,250,491.2,593.2,5431,left
14,2,continuous,20,1,trial,17145243.0,17148244.0,3001.0,70,L,17146974,17147228,256,1344.9,531.4,5369,right
14,2,continuous,20,1,trial,17145243.0,17148244.0,3001.0,70,L,17147254,17147418,166,1491.2,571.8,5424,right
14,2,continuous,20,1,trial,17145243.0,17148244.0,3001.0,70,L,17147498,17147704,208,455.6,668.0,5772,left
14,2,continuous,20,1,trial,17145243.0,17148244.0,3001.0,70,L,17147728,17148060,334,555.5,602.0,5959,left
14,2,continuous,20,1,postResponse,17145243.0,17148244.0,3001.0,70,L,17148078,17148562,486,507.7,595.7,6248,left
14,2,continuous,21,68,trial,17148943.0,17151010.0,2067.0,71,L,17148806,17149022,218,1608.9,499.0,6127,right
14,2,continuous,21,68,trial,17148943.0,17151010.0,2067.0,71,L,17149066,17149260,196,1221.6,538.5,6290,right
14,2,continuous,21,68,trial,17148943.0,17151010.0,2067.0,71,L,17149286,17149710,426,1372.7,526.1,5874,right
14,2,continuous,21,68,trial,17148943.0,17151010.0,2067.0,71,L,17149742,17149870,130,1186.2,504.9,5711,right
14,2,continuous,21,68,trial,17148943.0,17151010.0,2067.0,71,L,17149930,17150178,250,498.4,540.8,5844,left
14,2,continuous,21,68,trial,17148943.0,17151010.0,2067.0,71,L,17150190,17150366,178,464.5,538.1,5765,left
14,2,continuous,21,68,trial,17148943.0,17151010.0,2067.0,71,L,17150436,17150910,476,1361.7,545.2,5241,right
14,2,continuous,21,68,trial,17148943.0,17151010.0,2067.0,71,L,17150928,17151308,382,1430.5,500.1,5725,right
14,2,continuous,22,29,trial,17151743.0,17153093.0,1350.0,72,L,17151542,17151788,248,1044.5,492.1,6136,NA
14,2,continuous,22,29,trial,17151743.0,17153093.0,1350.0,72,L,17151808,17151902,96,951.3,499.5,6263,NA
14,2,continuous,22,29,trial,17151743.0,17153093.0,1350.0,72,L,17151956,17152180,226,505.5,501.3,6127,left
14,2,continuous,22,29,trial,17151743.0,17153093.0,1350.0,72,L,17152250,17152424,176,1428.3,551.2,4955,right
14,2,continuous,22,29,trial,17151743.0,17153093.0,1350.0,72,L,17152442,17152636,196,1349.3,569.8,4565,right
14,2,continuous,22,29,trial,17151743.0,17153093.0,1350.0,72,L,17152704,17153386,684,498.8,528.3,4816,left
14,2,continuous,23,22,trial,17153776.0,17155861.0,2085.0,73,L,17153596,17153936,342,1122.5,516.1,5211,NA
14,2,continuous,23,22,trial,17153776.0,17155861.0,2085.0,73,L,17153974,17154220,248,1364.0,524.8,5570,right
14,2,continuous,23,22,trial,17153776.0,17155861.0,2085.0,73,L,17154242,17154430,190,1396.1,611.3,5027,right
14,2,continuous,23,22,trial,17153776.0,17155861.0,2085.0,73,L,17154494,17154764,272,624.5,551.2,4697,left
14,2,continuous,23,22,trial,17153776.0,17155861.0,2085.0,73,L,17154782,17155074,294,606.8,499.5,4600,left
14,2,continuous,23,22,trial,17153776.0,17155861.0,2085.0,73,L,17155140,17155324,186,1382.9,607.5,4549,right
14,2,continuous,23,22,trial,17153776.0,17155861.0,2085.0,73,L,17155336,17156092,758,1397.3,621.2,4772,right
14,2,continuous,24,17,fixationCross,17156576.0,17158010.0,1434.0,74,L,17156312,17156334,24,848.4,441.3,5322,NA
14,2,continuous,24,17,trial,17156576.0,17158010.0,1434.0,74,L,17156346,17156748,404,846.4,493.4,5389,NA
14,2,continuous,24,17,trial,17156576.0,17158010.0,1434.0,74,L,17156792,17156936,146,574.4,570.1,5811,left
14,2,continuous,24,17,trial,17156576.0,17158010.0,1434.0,74,L,17156960,17157256,298,499.3,644.7,5454,left
14,2,continuous,24,17,trial,17156576.0,17158010.0,1434.0,74,L,17157326,17157628,304,1400.1,572.9,4777,right
14,2,continuous,24,17,trial,17156576.0,17158010.0,1434.0,74,L,17157646,17158220,576,1446.2,580.1,5207,right
14,2,continuous,24,17,postResponse,17156576.0,17158010.0,1434.0,74,L,17158286,17158358,74,857.9,506.0,5867,NA
14,2,continuous,25,15,trial,17158677.0,17160660.0,1983.0,75,L,17158670,17158698,30,924.5,481.4,6003,NA
14,2,continuous,25,15,trial,17158677.0,17160660.0,1983.0,75,L,17158710,17158828,120,923.4,517.3,5887,NA
14,2,continuous,25,15,trial,17158677.0,17160660.0,1983.0,75,L,17158878,17159078,202,510.0,543.9,6096,left
14,2,continuous,25,15,trial,17158677.0,17160660.0,1983.0,75,L,17159094,17159238,146,464.8,588.0,5940,left
14,2,continuous,25,15,trial,17158677.0,17160660.0,1983.0,75,L,17159310,17159662,354,1436.7,613.9,4954,right
14,2,continuous,25,15,trial,17158677.0,17160660.0,1983.0,75,L,17159680,17159838,160,1362.3,584.5,4750,right
14,2,continuous,25,15,trial,17158677.0,17160660.0,1983.0,75,L,17159914,17160254,342,422.8,573.1,5179,left
14,2,continuous,25,15,trial,17158677.0,17160660.0,1983.0,75,L,17160282,17160932,652,626.6,595.8,5397,left
14,2,continuous,26,38,fixationCross,17185160.0,17186694.0,1534.0,76,L,17184914,17185090,178,625.4,-46.7,4940,NA
14,2,continuous,26,38,trial,17185160.0,17186694.0,1534.0,76,L,17185158,17185340,184,919.3,556.6,5150,NA
14,2,continuous,26,38,trial,17185160.0,17186694.0,1534.0,76,L,17185390,17185614,226,1370.6,569.2,5408,right
14,2,continuous,26,38,trial,17185160.0,17186694.0,1534.0,76,L,17185686,17185818,134,458.0,507.1,5395,left
14,2,continuous,26,38,trial,17185160.0,17186694.0,1534.0,76,L,17185840,17186112,274,337.1,466.8,5417,left
14,2,continuous,26,38,trial,17185160.0,17186694.0,1534.0,76,L,17186156,17186344,190,650.5,577.2,5073,left
14,2,continuous,26,38,trial,17185160.0,17186694.0,1534.0,76,L,17186402,17186984,584,1321.8,592.7,5024,right
14,2,continuous,27,18,trial,17187410.0,17188560.0,1150.0,77,L,17187138,17187500,364,971.9,549.3,5733,NA
14,2,continuous,27,18,trial,17187410.0,17188560.0,1150.0,77,L,17187584,17187748,166,435.6,522.8,5791,left
14,2,continuous,27,18,trial,17187410.0,17188560.0,1150.0,77,L,17187768,17188048,282,344.9,530.8,5352,left
14,2,continuous,27,18,trial,17187410.0,17188560.0,1150.0,77,L,17188120,17188570,452,1294.4,562.4,4817,right
14,2,continuous,27,18,trial,17187410.0,17188560.0,1150.0,77,L,17188616,17188808,194,963.3,619.5,5342,NA
14,2,continuous,28,1,fixationCross,17189261.0,17191427.0,2166.0,78,L,17189044,17189062,20,766.2,440.3,5814,NA
14,2,continuous,28,1,trial,17189261.0,17191427.0,2166.0,78,L,17189070,17189422,354,762.8,478.9,5925,NA
14,2,continuous,28,1,trial,17189261.0,17191427.0,2166.0,78,L,17189458,17189638,182,567.6,545.6,6218,left
14,2,continuous,28,1,trial,17189261.0,17191427.0,2166.0,78,L,17189720,17190144,426,1432.5,584.6,4949,right
14,2,continuous,28,1,trial,17189261.0,17191427.0,2166.0,78,L,17190162,17190262,102,1489.7,558.5,4594,right
14,2,continuous,28,1,trial,17189261.0,17191427.0,2166.0,78,L,17190336,17190524,190,518.3,609.2,4910,left
14,2,continuous,28,1,trial,17189261.0,17191427.0,2166.0,78,L,17190546,17190940,396,415.4,559.5,5025,left
14,2,continuous,28,1,trial,17189261.0,17191427.0,2166.0,78,L,17190966,17191678,714,567.4,629.0,4615,left
14,2,continuous,29,78,fixationCross,17192127.0,17193827.0,1700.0,79,L,17191918,17191944,28,856.2,444.7,5458,NA
14,2,continuous,29,78,trial,17192127.0,17193827.0,1700.0,79,L,17191958,17192282,326,871.6,480.7,5598,NA
14,2,continuous,29,78,trial,17192127.0,17193827.0,1700.0,79,L,17192338,17192468,132,1392.8,519.4,5929,right
14,2,continuous,29,78,trial,17192127.0,17193827.0,1700.0,79,L,17192492,17192702,212,1463.7,610.1,5408,right
14,2,continuous,29,78,trial,17192127.0,17193827.0,1700.0,79,L,17192778,17192990,214,462.5,572.7,4971,left
14,2,continuous,29,78,trial,17192127.0,17193827.0,1700.0,79,L,17193012,17193340,330,577.4,612.9,4953,left
14,2,continuous,29,78,trial,17192127.0,17193827.0,1700.0,79,L,17193350,17193408,60,618.3,611.4,4910,left
14,2,continuous,29,78,trial,17192127.0,17193827.0,1700.0,79,L,17193484,17194072,590,1451.2,623.2,4901,right
14,2,continuous,30,52,fixationCross,17194527.0,17197943.0,3416.0,80,L,17194294,17194388,96,976.4,538.9,5371,NA
14,2,continuous,30,52,trial,17194527.0,17197943.0,3416.0,80,L,17194418,17194664,248,757.9,549.4,5554,NA
14,2,continuous,30,52,trial,17194527.0,17197943.0,3416.0,80,L,17194704,17194888,186,496.2,521.9,5805,left
14,2,continuous,30,52,trial,17194527.0,17197943.0,3416.0,80,L,17194902,17195188,288,463.7,570.1,5314,left
14,2,continuous,30,52,trial,17194527.0,17197943.0,3416.0,80,L,17195256,17195474,220,1364.8,575.2,4996,right
14,2,continuous,30,52,trial,17194527.0,17197943.0,3416.0,80,L,17195500,17195934,436,1465.2,448.7,4945,right
14,2,continuous,30,52,trial,17194527.0,17197943.0,3416.0,80,L,17195972,17196184,214,1618.9,591.7,4903,right
14,2,continuous,30,52,trial,17194527.0,17197943.0,3416.0,80,L,17196268,17196670,404,518.9,553.1,5098,left
14,2,continuous,30,52,trial,17194527.0,17197943.0,3416.0,80,L,17196688,17196956,270,448.5,591.7,5236,left
14,2,continuous,30,52,trial,17194527.0,17197943.0,3416.0,80,L,17196980,17197340,362,597.1,553.2,5366,left
14,2,continuous,30,52,postResponse,17194527.0,17197943.0,3416.0,80,L,17197408,17198294,888,1307.5,601.0,5211,right
14,2,continuous,31,38,fixationCross,17198643.0,17199877.0,1234.0,81,L,17198514,17198640,128,1132.0,493.5,5758,NA
14,2,continuous,31,38,trial,17198643.0,17199877.0,1234.0,81,L,17198688,17198810,124,813.2,470.4,5938,NA
14,2,continuous,31,38,trial,17198643.0,17199877.0,1234.0,81,L,17198858,17199000,144,412.5,449.9,6187,left
14,2,continuous,31,38,trial,17198643.0,17199877.0,1234.0,81,L,17199014,17199144,132,395.8,442.5,6035,left
14,2,continuous,31,38,trial,17198643.0,17199877.0,1234.0,81,L,17199216,17200096,882,1414.8,509.0,5090,right
14,2,continuous,32,33,fixationCross,17200594.0,17201844.0,1250.0,82,L,17200334,17200572,240,823.7,562.7,5514,NA
14,2,continuous,32,33,trial,17200594.0,17201844.0,1250.0,82,L,17200596,17200748,154,712.5,500.9,5658,left
14,2,continuous,32,33,trial,17200594.0,17201844.0,1250.0,82,L,17200788,17201028,242,419.3,515.0,5660,left
14,2,continuous,32,33,trial,17200594.0,17201844.0,1250.0,82,L,17201098,17201380,284,1391.7,584.5,4695,right
14,2,continuous,32,33,trial,17200594.0,17201844.0,1250.0,82,L,17201400,17202060,662,1463.5,538.1,4656,right
14,2,continuous,33,30,fixationCross,17202560.0,17204061.0,1501.0,83,L,17202290,17202502,214,782.2,481.9,5379,NA
14,2,continuous,33,30,trial,17202560.0,17204061.0,1501.0,83,L,17202528,17202712,186,626.3,469.4,5668,left
14,2,continuous,33,30,trial,17202560.0,17204061.0,1501.0,83,L,17202738,17202868,132,471.9,509.2,5867,left
14,2,continuous,33,30,trial,17202560.0,17204061.0,1501.0,83,L,17202886,17203014,130,469.6,590.3,5607,left
14,2,continuous,33,30,trial,17202560.0,17204061.0,1501.0,83,L,17203082,17203274,194,1348.7,535.7,4839,right
14,2,continuous,33,30,trial,17202560.0,17204061.0,1501.0,83,L,17203308,17203992,686,1538.8,513.7,4787,right
14,2,continuous,33,30,trial,17202560.0,17204061.0,1501.0,83,L,17204074,17204294,222,579.4,600.1,5593,left
14,2,continuous,34,23,trial,17204744.0,17208277.0,3533.0,84,L,17204560,17204896,338,941.3,458.0,5515,NA
14,2,continuous,34,23,trial,17204744.0,17208277.0,3533.0,84,L,17204944,17205170,228,533.2,508.3,6050,left
14,2,continuous,34,23,trial,17204744.0,17208277.0,3533.0,84,L,17205190,17205398,210,515.7,591.9,5738,left
14,2,continuous,34,23,trial,17204744.0,17208277.0,3533.0,84,L,17205470,17205764,296,1455.7,571.9,5345,right
14,2,continuous,34,23,trial,17204744.0,17208277.0,3533.0,84,L,17205788,17206506,720,1367.5,483.6,5050,right
14,2,continuous,34,23,trial,17204744.0,17208277.0,3533.0,84,L,17206574,17206806,234,531.1,611.9,5483,left
14,2,continuous,34,23,trial,17204744.0,17208277.0,3533.0,84,L,17206824,17207078,256,597.4,597.9,5652,left
14,2,continuous,34,23,trial,17204744.0,17208277.0,3533.0,84,L,17207096,17207204,110,568.7,553.2,5447,left
14,2,continuous,34,23,trial,17204744.0,17208277.0,3533.0,84,L,17207268,17207592,326,1301.2,531.9,5339,right
14,2,continuous,34,23,trial,17204744.0,17208277.0,3533.0,84,L,17207608,17207756,150,1340.9,561.8,5501,right
14,2,continuous,34,23,trial,17204744.0,17208277.0,3533.0,84,L,17207810,17207982,174,845.1,916.8,5814,likertHorizontal
14,2,continuous,34,23,trial,17204744.0,17208277.0,3533.0,84,L,17208010,17208274,266,678.0,930.6,5989,NA
14,2,continuous,34,23,postResponse,17204744.0,17208277.0,3533.0,84,L,17208334,17208612,280,950.6,450.5,5908,NA
14,2,continuous,35,29,trial,17208977.0,17212178.0,3201.0,85,L,17208864,17209142,280,1282.4,564.4,6168,right
14,2,continuous,35,29,trial,17208977.0,17212178.0,3201.0,85,L,17209170,17209356,188,1359.9,413.0,6256,right
14,2,continuous,35,29,trial,17208977.0,17212178.0,3201.0,85,L,17209418,17209682,266,576.1,566.3,5642,left
14,2,continuous,35,29,trial,17208977.0,17212178.0,3201.0,85,L,17209700,17209850,152,485.1,566.1,5348,left
14,2,continuous,35,29,trial,17208977.0,17212178.0,3201.0,85,L,17209926,17210280,356,1474.8,542.5,4978,right
14,2,continuous,35,29,trial,17208977.0,17212178.0,3201.0,85,L,17210300,17210578,280,1383.8,526.6,5322,right
14,2,continuous,35,29,trial,17208977.0,17212178.0,3201.0,85,L,17210604,17210794,192,1506.2,467.6,5656,right
14,2,continuous,35,29,trial,17208977.0,17212178.0,3201.0,85,L,17210818,17210968,152,1363.5,433.7,5747,right
14,2,continuous,35,29,trial,17208977.0,17212178.0,3201.0,85,L,17210978,17211058,82,1349.4,420.6,5741,right
14,2,continuous,35,29,trial,17208977.0,17212178.0,3201.0,85,L,17211122,17211302,182,606.2,511.7,5791,left
14,2,continuous,35,29,trial,17208977.0,17212178.0,3201.0,85,L,17211320,17211448,130,535.2,531.2,5725,left
14,2,continuous,35,29,trial,17208977.0,17212178.0,3201.0,85,L,17211500,17211862,364,970.9,955.4,5683,likertHorizontal
14,2,continuous,35,29,trial,17208977.0,17212178.0,3201.0,85,L,17211918,17212396,480,603.4,520.8,5805,left
14,2,continuous,36,73,fixationCross,17212877.0,17214494.0,1617.0,86,L,17212674,17212836,164,1097.4,478.7,5897,NA
14,2,continuous,36,73,trial,17212877.0,17214494.0,1617.0,86,L,17212860,17213040,182,1053.4,586.3,6018,NA
14,2,continuous,36,73,trial,17212877.0,17214494.0,1617.0,86,L,17213088,17213238,152,656.1,512.6,6201,left
14,2,continuous,36,73,trial,17212877.0,17214494.0,1617.0,86,L,17213260,17213416,158,542.9,523.6,5733,left
14,2,continuous,36,73,trial,17212877.0,17214494.0,1617.0,86,L,17213484,17213902,420,1471.3,526.2,4919,right
14,2,continuous,36,73,trial,17212877.0,17214494.0,1617.0,86,L,17213978,17214742,766,520.0,509.3,5092,left
14,2,continuous,37,70,trial,17215161.0,17218494.0,3333.0,87,L,17215012,17215228,218,1327.1,503.9,5452,right
14,2,continuous,37,70,trial,17215161.0,17218494.0,3333.0,87,L,17215258,17215362,106,1165.3,501.9,5721,NA
14,2,continuous,37,70,trial,17215161.0,17218494.0,3333.0,87,L,17215408,17215674,268,1481.9,526.0,5672,right
14,2,continuous,37,70,trial,17215161.0,17218494.0,3333.0,87,L,17215742,17215940,200,596.7,539.6,5068,left
14,2,continuous,37,70,trial,17215161.0,17218494.0,3333.0,87,L,17215980,17216142,164,549.2,721.7,5013,left
14,2,continuous,37,70,trial,17215161.0,17218494.0,3333.0,87,L,17216152,17216394,244,571.2,699.4,5036,left
14,2,continuous,37,70,trial,17215161.0,17218494.0,3333.0,87,L,17216442,17216672,232,348.4,439.1,4969,left
14,2,continuous,37,70,trial,17215161.0,17218494.0,3333.0,87,L,17216684,17216876,194,349.2,462.0,5013,left
14,2,continuous,37,70,trial,17215161.0,17218494.0,3333.0,87,L,17216906,17217064,160,561.1,483.3,5017,left
14,2,continuous,37,70,trial,17215161.0,17218494.0,3333.0,87,L,17217134,17217374,242,1419.5,534.0,4976,right
14,2,continuous,37,70,trial,17215161.0,17218494.0,3333.0,87,L,17217396,17218008,614,1541.9,551.4,5018,right
14,2,continuous,37,70,trial,17215161.0,17218494.0,3333.0,87,L,17218034,17218292,260,1414.7,612.3,5202,right
14,2,continuous,37,70,trial,17215161.0,17218494.0,3333.0,87,L,17218312,17218476,166,1355.8,664.6,5298,right
14,2,continuous,37,70,postResponse,17215161.0,17218494.0,3333.0,87,L,17218544,17218822,280,617.8,485.7,5236,left
14,2,continuous,38,96,trial,17219177.0,17220927.0,1750.0,88,L,17219074,17219276,204,1025.4,531.0,5208,NA
14,2,continuous,38,96,trial,17219177.0,17220927.0,1750.0,88,L,17219330,17219566,238,504.6,509.2,5654,left
14,2,continuous,38,96,trial,17219177.0,17220927.0,1750.0,88,L,17219590,17219752,164,608.7,473.7,5587,left
14,2,continuous,38,96,trial,17219177.0,17220927.0,1750.0,88,L,17219818,17219978,162,1403.5,559.7,4840,right
14,2,continuous,38,96,postResponse,17219177.0,17220927.0,1750.0,88,L,17219994,17221274,1282,1357.0,590.9,4918,right
14,2,continuous,39,19,fixationCross,17221628.0,17223761.0,2133.0,89,L,17221536,17221566,32,990.7,501.1,5818,NA
14,2,continuous,39,19,trial,17221628.0,17223761.0,2133.0,89,L,17221576,17221708,134,993.9,540.1,5705,NA
14,2,continuous,39,19,trial,17221628.0,17223761.0,2133.0,89,L,17221748,17221818,72,706.5,516.6,5852,left
14,2,continuous,39,19,trial,17221628.0,17223761.0,2133.0,89,L,17221846,17222050,206,498.7,511.6,6014,left
14,2,continuous,39,19,trial,17221628.0,17223761.0,2133.0,89,L,17222068,17222274,208,425.1,548.9,5532,left
14,2,continuous,39,19,trial,17221628.0,17223761.0,2133.0,89,L,17222348,17222650,304,1449.9,553.1,5143,right
14,2,continuous,39,19,trial,17221628.0,17223761.0,2133.0,89,L,17222678,17223016,340,1525.3,437.8,5215,right
14,2,continuous,39,19,trial,17221628.0,17223761.0,2133.0,89,L,17223040,17223266,228,1443.5,527.0,5117,right
14,2,continuous,39,19,trial,17221628.0,17223761.0,2133.0,89,L,17223342,17223554,214,523.9,512.6,5154,left
14,2,continuous,39,19,trial,17221628.0,17223761.0,2133.0,89,L,17223576,17223966,392,440.5,575.0,5401,left
14,2,continuous,40,79,fixationCross,17224477.0,17227094.0,2617.0,90,L,17224222,17224380,160,1287.7,495.9,5593,right
14,2,continuous,40,79,trial,17224477.0,17227094.0,2617.0,90,L,17224402,17224666,266,1176.9,514.6,5828,NA
14,2,continuous,40,79,trial,17224477.0,17227094.0,2617.0,90,L,17224690,17224898,210,1336.0,513.9,5955,right
14,2,continuous,40,79,trial,17224477.0,17227094.0,2617.0,90,L,17224958,17225132,176,598.3,540.6,5247,left
14,2,continuous,40,79,trial,17224477.0,17227094.0,2617.0,90,L,17225154,17225966,814,488.2,526.6,4826,left
14,2,continuous,40,79,trial,17224477.0,17227094.0,2617.0,90,L,17226038,17226314,278,1335.2,548.9,4572,right
14,2,continuous,40,79,trial,17224477.0,17227094.0,2617.0,90,L,17226332,17226486,156,1411.8,544.8,4706,right
14,2,continuous,40,79,trial,17224477.0,17227094.0,2617.0,90,L,17226512,17226908,398,1522.2,471.7,4885,right
14,2,continuous,40,79,trial,17224477.0,17227094.0,2617.0,90,L,17226964,17227148,186,1243.8,936.6,5222,NA
14,2,continuous,40,79,trial,17224477.0,17227094.0,2617.0,90,L,17227204,17227382,180,1430.1,470.7,5383,right
14,2,continuous,41,47,trial,17227794.0,17230144.0,2350.0,91,L,17227608,17227834,228,1092.0,491.8,5531,NA
14,2,continuous,41,47,trial,17227794.0,17230144.0,2350.0,91,L,17227862,17227956,96,934.4,511.4,5819,NA
14,2,continuous,41,47,trial,17227794.0,17230144.0,2350.0,91,L,17228004,17228512,510,539.6,515.9,5650,left
14,2,continuous,41,47,trial,17227794.0,17230144.0,2350.0,91,L,17228582,17228858,278,1420.7,541.4,4960,right
14,2,continuous,41,47,trial,17227794.0,17230144.0,2350.0,91,L,17228874,17229104,232,1366.4,555.8,4944,right
14,2,continuous,41,47,trial,17227794.0,17230144.0,2350.0,91,L,17229172,17229394,224,622.5,574.2,4939,left
14,2,continuous,41,47,trial,17227794.0,17230144.0,2350.0,91,L,17229416,17229598,184,516.0,562.1,5076,left
14,2,continuous,41,47,trial,17227794.0,17230144.0,2350.0,91,L,17229652,17230072,422,888.8,926.6,5444,likertHorizontal
14,2,continuous,41,47,trial,17227794.0,17230144.0,2350.0,91,L,17230122,17230410,290,862.3,654.6,5601,NA
14,2,continuous,42,33,trial,17230844.0,17233311.0,2467.0,92,L,17230624,17230920,298,1117.6,534.7,5625,NA
14,2,continuous,42,33,trial,17230844.0,17233311.0,2467.0,92,L,17230956,17231046,92,906.4,526.2,5823,NA
14,2,continuous,42,33,trial,17230844.0,17233311.0,2467.0,92,L,17231088,17231258,172,592.8,504.3,5837,left
14,2,continuous,42,33,trial,17230844.0,17233311.0,2467.0,92,L,17231280,17231480,202,485.0,525.3,5350,left
14,2,continuous,42,33,trial,17230844.0,17233311.0,2467.0,92,L,17231552,17231846,296,1444.0,607.2,4855,right
14,2,continuous,42,33,trial,17230844.0,17233311.0,2467.0,92,L,17231870,17232068,200,1546.3,523.4,4851,right
14,2,continuous,42,33,trial,17230844.0,17233311.0,2467.0,92,L,17232082,17232210,130,1572.8,563.2,4960,right
14,2,continuous,42,33,trial,17230844.0,17233311.0,2467.0,92,L,17232288,17232432,146,567.1,513.5,5144,left
14,2,continuous,42,33,trial,17230844.0,17233311.0,2467.0,92,L,17232448,17232548,102,618.2,492.2,5133,left
14,2,continuous,42,33,trial,17230844.0,17233311.0,2467.0,92,L,17232564,17233526,964,660.3,471.4,5078,left
14,2,continuous,43,15,trial,17234028.0,17235660.0,1632.0,93,L,17233830,17234162,334,934.2,511.5,5450,NA
14,2,continuous,43,15,trial,17234028.0,17235660.0,1632.0,93,L,17234216,17234394,180,497.5,484.4,5782,left
14,2,continuous,43,15,trial,17234028.0,17235660.0,1632.0,93,L,17234414,17234502,90,586.0,501.6,5537,left
14,2,continuous,43,15,trial,17234028.0,17235660.0,1632.0,93,L,17234526,17234678,154,490.7,452.9,5202,left
14,2,continuous,43,15,trial,17234028.0,17235660.0,1632.0,93,L,17234690,17234790,102,472.7,425.4,4979,left
14,2,continuous,43,15,trial,17234028.0,17235660.0,1632.0,93,L,17234862,17235124,264,1435.8,531.2,4804,right
14,2,continuous,43,15,trial,17234028.0,17235660.0,1632.0,93,L,17235138,17235370,234,1476.9,532.6,4817,right
14,2,continuous,43,15,trial,17234028.0,17235660.0,1632.0,93,L,17235442,17235678,238,570.6,541.7,4791,left
14,2,continuous,43,15,trial,17234028.0,17235660.0,1632.0,93,L,17235698,17235870,174,491.1,489.0,4918,left
14,2,continuous,44,35,trial,17236327.0,17240061.0,3734.0,94,L,17236188,17236472,286,948.7,512.8,5398,NA
14,2,continuous,44,35,trial,17236327.0,17240061.0,3734.0,94,L,17236520,17236658,140,1349.0,520.7,5593,right
14,2,continuous,44,35,trial,17236327.0,17240061.0,3734.0,94,L,17236680,17236854,176,1478.8,535.1,5189,right
14,2,continuous,44,35,trial,17236327.0,17240061.0,3734.0,94,L,17236870,17237268,400,1536.2,558.5,4657,right
14,2,continuous,44,35,trial,17236327.0,17240061.0,3734.0,94,L,17237348,17237576,230,481.4,483.8,4741,left
14,2,continuous,44,35,trial,17236327.0,17240061.0,3734.0,94,L,17237600,17238076,478,453.9,598.1,4850,left
14,2,continuous,44,35,trial,17236327.0,17240061.0,3734.0,94,L,17238100,17238246,148,493.4,520.6,4924,left
14,2,continuous,44,35,trial,17236327.0,17240061.0,3734.0,94,L,17238322,17238530,210,1448.1,597.5,4878,right
14,2,continuous,44,35,trial,17236327.0,17240061.0,3734.0,94,L,17238550,17238802,254,1543.5,570.8,4996,right
14,2,continuous,44,35,trial,17236327.0,17240061.0,3734.0,94,L,17238820,17239288,470,1486.3,537.6,4992,right
14,2,continuous,44,35,trial,17236327.0,17240061.0,3734.0,94,L,17239364,17240230,868,512.3,480.5,5241,left
14,2,continuous,45,58,trial,17240778.0,17242944.0,2166.0,95,L,17240536,17240850,316,1013.5,510.9,5334,NA
14,2,continuous,45,58,trial,17240778.0,17242944.0,2166.0,95,L,17240868,17240962,96,935.4,527.6,5563,NA
14,2,continuous,45,58,trial,17240778.0,17242944.0,2166.0,95,L,17241014,17241182,170,453.9,531.3,5609,left
14,2,continuous,45,58,trial,17240778.0,17242944.0,2166.0,95,L,17241250,17241438,190,1368.4,495.1,5190,right
14,2,continuous,45,58,trial,17240778.0,17242944.0,2166.0,95,L,17241460,17241614,156,1414.7,527.5,5059,right
14,2,continuous,45,58,trial,17240778.0,17242944.0,2166.0,95,L,17241690,17241864,176,432.1,542.4,5012,left
14,2,continuous,45,58,trial,17240778.0,17242944.0,2166.0,95,L,17241886,17242072,188,493.9,469.7,4948,left
14,2,continuous,45,58,trial,17240778.0,17242944.0,2166.0,95,L,17242084,17242552,470,511.5,434.7,5126,left
14,2,continuous,45,58,trial,17240778.0,17242944.0,2166.0,95,L,17242620,17242880,262,1375.9,490.3,5070,right
14,2,continuous,45,58,trial,17240778.0,17242944.0,2166.0,95,L,17242902,17243186,286,1463.4,518.9,5119,right
14,2,continuous,46,1,trial,17243645.0,17245561.0,1916.0,96,L,17243450,17243682,234,1133.4,520.9,5378,NA
14,2,continuous,46,1,trial,17243645.0,17245561.0,1916.0,96,L,17243714,17243824,112,932.1,503.6,5648,NA
14,2,continuous,46,1,trial,17243645.0,17245561.0,1916.0,96,L,17243874,17244220,348,516.4,474.7,5762,left
14,2,continuous,46,1,trial,17243645.0,17245561.0,1916.0,96,L,17244242,17244416,176,467.3,553.2,5599,left
14,2,continuous,46,1,trial,17243645.0,17245561.0,1916.0,96,L,17244484,17244674,192,1334.4,536.8,5399,right
14,2,continuous,46,1,trial,17243645.0,17245561.0,1916.0,96,L,17244694,17245074,382,1385.5,562.8,5162,right
14,2,continuous,46,1,trial,17243645.0,17245561.0,1916.0,96,L,17245146,17245740,596,494.8,484.7,5127,left
14,2,continuous,47,41,trial,17246227.0,17249744.0,3517.0,97,L,17246030,17246392,364,1059.3,461.2,5849,NA
14,2,continuous,47,41,trial,17246227.0,17249744.0,3517.0,97,L,17246442,17246776,336,1470.0,526.3,5931,right
14,2,continuous,47,41,trial,17246227.0,17249744.0,3517.0,97,L,17246846,17247296,452,571.8,523.2,5173,left
14,2,continuous,47,41,trial,17246227.0,17249744.0,3517.0,97,L,17247316,17247504,190,537.6,464.2,5035,left
14,2,continuous,47,41,trial,17246227.0,17249744.0,3517.0,97,L,17247518,17247662,146,549.3,437.3,5002,left
14,2,continuous,47,41,trial,17246227.0,17249744.0,3517.0,97,L,17247734,17247936,204,1485.4,481.3,5137,right
14,2,continuous,47,41,trial,17246227.0,17249744.0,3517.0,97,L,17247956,17248058,104,1564.6,453.2,5123,right
14,2,continuous,47,41,trial,17246227.0,17249744.0,3517.0,97,L,17248120,17248356,238,929.6,911.9,5278,likertHorizontal
14,2,continuous,47,41,trial,17246227.0,17249744.0,3517.0,97,L,17248424,17248578,156,1374.2,498.9,5235,right
14,2,continuous,47,41,trial,17246227.0,17249744.0,3517.0,97,L,17248648,17248956,310,532.0,470.1,5394,left
14,2,continuous,47,41,trial,17246227.0,17249744.0,3517.0,97,L,17248972,17249480,510,551.9,428.9,5214,left
14,2,continuous,47,41,trial,17246227.0,17249744.0,3517.0,97,L,17249502,17249998,498,507.8,504.5,5265,left
14,2,continuous,48,63,fixationCross,17250428.0,17253762.0,3334.0,98,L,17250212,17250318,108,1209.7,550.2,5221,right
14,2,continuous,48,63,trial,17250428.0,17253762.0,3334.0,98,L,17250362,17250590,230,963.8,514.9,5425,NA
14,2,continuous,48,63,trial,17250428.0,17253762.0,3334.0,98,L,17250642,17250844,204,503.6,513.6,5674,left
14,2,continuous,48,63,trial,17250428.0,17253762.0,3334.0,98,L,17250912,17251174,264,1396.5,538.4,4972,right
14,2,continuous,48,63,trial,17250428.0,17253762.0,3334.0,98,L,17251250,17251486,238,449.8,495.8,4780,left
14,2,continuous,48,63,trial,17250428.0,17253762.0,3334.0,98,L,17251508,17251812,306,334.0,516.2,4743,left
14,2,continuous,48,63,trial,17250428.0,17253762.0,3334.0,98,L,17251834,17252058,226,448.9,486.3,5010,left
14,2,continuous,48,63,trial,17250428.0,17253762.0,3334.0,98,L,17252134,17252368,236,1337.8,498.0,5173,right
14,2,continuous,48,63,trial,17250428.0,17253762.0,3334.0,98,L,17252390,17252740,352,1444.8,510.0,5122,right
14,2,continuous,48,63,trial,17250428.0,17253762.0,3334.0,98,L,17252820,17253074,256,443.3,510.7,4925,left
14,2,continuous,48,63,trial,17250428.0,17253762.0,3334.0,98,L,17253092,17253478,388,373.0,522.6,5001,left
14,2,continuous,48,63,trial,17250428.0,17253762.0,3334.0,98,L,17253522,17253726,206,654.6,536.9,5175,left
14,2,continuous,48,63,trial,17250428.0,17253762.0,3334.0,98,L,17253788,17254000,214,1281.3,491.1,5171,right
14,2,continuous,49,98,fixationCross,17254461.0,17256695.0,2234.0,99,L,17254270,17254428,160,990.2,502.7,5291,NA
14,2,continuous,49,98,trial,17254461.0,17256695.0,2234.0,99,L,17254456,17254612,158,785.6,476.3,5460,NA
14,2,continuous,49,98,trial,17254461.0,17256695.0,2234.0,99,L,17254654,17254874,222,481.3,500.3,5642,left
14,2,continuous,49,98,trial,17254461.0,17256695.0,2234.0,99,L,17254896,17255148,254,389.5,516.4,5097,left
14,2,continuous,49,98,trial,17254461.0,17256695.0,2234.0,99,L,17255226,17255502,278,1457.8,517.1,4747,right
14,2,continuous,49,98,trial,17254461.0,17256695.0,2234.0,99,L,17255526,17255708,184,1494.7,430.9,4833,right
14,2,continuous,49,98,trial,17254461.0,17256695.0,2234.0,99,L,17255764,17255916,154,1150.3,843.1,5293,likertHorizontal
14,2,continuous,49,98,trial,17254461.0,17256695.0,2234.0,99,L,17255972,17256256,286,695.0,577.6,5709,left
14,2,continuous,49,98,trial,17254461.0,17256695.0,2234.0,99,L,17256336,17256542,208,1433.0,990.4,5854,NA
14,2,continuous,49,98,trial,17254461.0,17256695.0,2234.0,99,L,17256598,17256948,352,1212.7,553.7,5751,right
14,2,continuous,50,66,trial,17257411.0,17259945.0,2534.0,100,L,17257188,17257424,238,1169.9,548.8,5848,NA
14,2,continuous,50,66,trial,17257411.0,17259945.0,2534.0,100,L,17257454,17257598,146,1290.5,532.0,6069,right
14,2,continuous,50,66,trial,17257411.0,17259945.0,2534.0,100,L,17257636,17257966,332,1524.7,515.8,5992,right
14,2,continuous,50,66,trial,17257411.0,17259945.0,2534.0,100,L,17257988,17258288,302,1611.1,498.8,5511,right
14,2,continuous,50,66,trial,17257411.0,17259945.0,2534.0,100,L,17258310,17258444,136,1519.5,504.8,5566,right
14,2,continuous,50,66,trial,17257411.0,17259945.0,2534.0,100,L,17258522,17258848,328,539.1,574.4,5913,left
14,2,continuous,50,66,trial,17257411.0,17259945.0,2534.0,100,L,17258866,17259014,150,598.4,568.9,5850,left
14,2,continuous,50,66,trial,17257411.0,17259945.0,2534.0,100,L,17259088,17259462,376,1498.8,516.3,5263,right
14,2,continuous,50,66,trial,17257411.0,17259945.0,2534.0,100,L,17259518,17259728,212,1000.7,910.1,5595,likertHorizontal
14,2,continuous,50,66,trial,17257411.0,17259945.0,2534.0,100,L,17259786,17260144,360,1434.0,598.5,5627,right
14,3,valuation,1,6,trial,17317411.0,17320029.0,2618.0,101,L,17317163,17317571,410,856.0,647.6,6617,NA
14,3,valuation,1,6,trial,17317411.0,17320029.0,2618.0,101,L,17317651,17317737,88,613.8,542.1,6558,likertVertical
14,3,valuation,1,6,trial,17317411.0,17320029.0,2618.0,101,L,17317773,17317961,190,555.4,386.1,6131,likertVertical
14,3,valuation,1,6,trial,17317411.0,17320029.0,2618.0,101,L,17317989,17318127,140,645.3,271.2,5755,likertVertical
14,3,valuation,1,6,trial,17317411.0,17320029.0,2618.0,101,L,17318195,17318463,270,1388.2,635.0,5571,right
14,3,valuation,1,6,trial,17317411.0,17320029.0,2618.0,101,L,17318485,17318803,320,1481.2,631.4,5260,right
14,3,valuation,1,6,trial,17317411.0,17320029.0,2618.0,101,L,17318869,17318943,76,792.6,854.1,5345,likertHorizontal
14,3,valuation,1,6,trial,17317411.0,17320029.0,2618.0,101,L,17318967,17319179,214,615.6,829.8,5350,likertVertical
14,3,valuation,1,6,trial,17317411.0,17320029.0,2618.0,101,L,17319237,17319619,384,498.5,405.8,5539,likertVertical
14,3,valuation,1,6,trial,17317411.0,17320029.0,2618.0,101,L,17319635,17320113,480,499.8,350.0,5837,likertVertical
14,3,valuation,1,6,trial,17317411.0,17320029.0,2618.0,101,L,17320139,17320247,110,607.4,275.7,5720,likertVertical
14,3,valuation,2,5,trial,17320695.0,17322278.0,1583.0,102,L,17320495,17320781,288,1178.8,484.2,5728,NA
14,3,valuation,2,5,trial,17320695.0,17322278.0,1583.0,102,L,17320811,17320871,62,1036.1,530.5,6143,NA
14,3,valuation,2,5,trial,17320695.0,17322278.0,1583.0,102,L,17320919,17321211,294,1409.1,571.9,6076,right
14,3,valuation,2,5,trial,17320695.0,17322278.0,1583.0,102,L,17321287,17321591,306,506.0,555.6,5082,likertVertical
14,3,valuation,2,5,trial,17320695.0,17322278.0,1583.0,102,L,17321613,17322157,546,518.7,448.6,5231,likertVertical
14,3,valuation,2,5,trial,17320695.0,17322278.0,1583.0,102,L,17322229,17322581,354,1365.9,555.6,5724,right
14,3,valuation,3,7,fixationCross,17322945.0,17324096.0,1151.0,103,L,17322717,17322895,180,1199.4,566.9,5216,right
14,3,valuation,3,7,trial,17322945.0,17324096.0,1151.0,103,L,17322931,17323161,232,1374.6,589.8,5402,right
14,3,valuation,3,7,trial,17322945.0,17324096.0,1151.0,103,L,17323187,17323327,142,1519.9,556.0,5711,right
14,3,valuation,3,7,trial,17322945.0,17324096.0,1151.0,103,L,17323403,17323609,208,581.4,408.5,5602,likertVertical
14,3,valuation,3,7,trial,17322945.0,17324096.0,1151.0,103,L,17323635,17323981,348,526.3,300.4,5387,likertVertical
14,3,valuation,3,7,trial,17322945.0,17324096.0,1151.0,103,L,17323997,17324119,124,503.6,268.8,5759,likertVertical
14,3,valuation,3,7,postResponse,17322945.0,17324096.0,1151.0,103,L,17324285,17324463,180,1467.3,495.7,6175,right
14,3,valuation,4,4,trial,17324795.0,17326579.0,1784.0,104,L,17324537,17324855,320,1460.0,508.5,6272,right
14,3,valuation,4,4,trial,17324795.0,17326579.0,1784.0,104,L,17324893,17324993,102,1218.4,541.0,6343,right
14,3,valuation,4,4,trial,17324795.0,17326579.0,1784.0,104,L,17325019,17325229,212,1366.5,553.9,6210,right
14,3,valuation,4,4,trial,17324795.0,17326579.0,1784.0,104,L,17325297,17325485,190,542.1,454.7,5444,likertVertical
14,3,valuation,4,4,trial,17324795.0,17326579.0,1784.0,104,L,17325511,17325749,240,471.9,595.9,5338,likertVertical
14,3,valuation,4,4,trial,17324795.0,17326579.0,1784.0,104,L,17325781,17325869,90,556.6,641.0,5603,likertVertical
14,3,valuation,4,4,trial,17324795.0,17326579.0,1784.0,104,L,17325899,17325959,62,611.6,741.1,5808,likertVertical
14,3,valuation,4,4,trial,17324795.0,17326579.0,1784.0,104,L,17326027,17326273,248,1342.2,490.4,5839,right
14,3,valuation,4,4,trial,17324795.0,17326579.0,1784.0,104,L,17326341,17326481,142,545.7,534.5,5841,likertVertical
14,3,valuation,4,4,trial,17324795.0,17326579.0,1784.0,104,L,17326501,17326521,22,511.6,541.8,5705,likertVertical
14,3,valuation,4,4,trial,17324795.0,17326579.0,1784.0,104,L,17326601,17326871,272,1420.2,491.8,5621,right
14,3,valuation,5,4,trial,17327245.0,17328595.0,1350.0,105,L,17326987,17327323,338,1293.1,516.1,5934,right
14,3,valuation,5,4,trial,17327245.0,17328595.0,1350.0,105,L,17327357,17327433,78,1094.3,529.9,6182,NA
14,3,valuation,5,4,trial,17327245.0,17328595.0,1350.0,105,L,17327479,17327653,176,1434.4,491.0,6202,right
14,3,valuation,5,4,trial,17327245.0,17328595.0,1350.0,105,L,17327681,17327889,210,1303.8,406.8,5765,right
14,3,valuation,5,4,trial,17327245.0,17328595.0,1350.0,105,L,17327963,17328137,176,480.2,635.6,5648,likertVertical
14,3,valuation,5,4,trial,17327245.0,17328595.0,1350.0,105,L,17328149,17328283,136,510.5,630.0,5696,likertVertical
14,3,valuation,5,4,trial,17327245.0,17328595.0,1350.0,105,L,17328305,17328505,202,524.3,542.0,5842,likertVertical
14,3,valuation,5,4,trial,17327245.0,17328595.0,1350.0,105,L,17328575,17328903,330,1354.7,439.0,5654,right
14,3,valuation,6,5,trial,17329262.0,17330662.0,1400.0,106,L,17329031,17329449,420,1376.4,519.8,5880,right
14,3,valuation,6,5,trial,17329262.0,17330662.0,1400.0,106,L,17329469,17329783,316,1333.0,491.5,5803,right
14,3,valuation,6,5,trial,17329262.0,17330662.0,1400.0,106,L,17329853,17330007,156,513.8,587.7,4910,likertVertical
14,3,valuation,6,5,trial,17329262.0,17330662.0,1400.0,106,L,17330021,17330159,140,493.6,551.4,4740,likertVertical
14,3,valuation,6,5,trial,17329262.0,17330662.0,1400.0,106,L,17330183,17330537,356,501.1,444.7,4963,likertVertical
14,3,valuation,6,5,trial,17329262.0,17330662.0,1400.0,106,L,17330547,17330669,124,475.9,430.4,5353,likertVertical
14,3,valuation,6,5,postResponse,17329262.0,17330662.0,1400.0,106,L,17330907,17331007,102,1231.0,428.1,5498,right
14,3,valuation,7,6,fixationCross,17331328.0,17332612.0,1284.0,107,L,17331081,17331127,48,1228.4,424.8,5578,right
14,3,valuation,7,6,trial,17331328.0,17332612.0,1284.0,107,L,17331153,17331397,246,1325.0,501.4,5881,right
14,3,valuation,7,6,trial,17331328.0,17332612.0,1284.0,107,L,17331425,17331565,142,1192.6,517.9,6185,right
14,3,valuation,7,6,trial,17331328.0,17332612.0,1284.0,107,L,17331591,17331779,190,1376.1,478.6,6084,right
14,3,valuation,7,6,trial,17331328.0,17332612.0,1284.0,107,L,17331849,17331963,116,549.0,488.5,5535,likertVertical
14,3,valuation,7,6,trial,17331328.0,17332612.0,1284.0,107,L,17331977,17332275,300,506.5,461.1,5271,likertVertical
14,3,valuation,7,6,trial,17331328.0,17332612.0,1284.0,107,L,17332297,17332521,226,508.6,360.3,5450,likertVertical
14,3,valuation,7,6,postResponse,17331328.0,17332612.0,1284.0,107,L,17332589,17332943,356,1397.2,478.7,5652,right
14,3,valuation,8,4,trial,17333295.0,17334745.0,1450.0,108,L,17333043,17333591,550,1401.8,556.0,5692,right
14,3,valuation,8,4,trial,17333295.0,17334745.0,1450.0,108,L,17333611,17333715,106,1432.0,532.7,5928,right
14,3,valuation,8,4,trial,17333295.0,17334745.0,1450.0,108,L,17333787,17333905,120,548.2,469.5,5294,likertVertical
14,3,valuation,8,4,trial,17333295.0,17334745.0,1450.0,108,L,17333919,17334315,398,504.0,454.5,4991,likertVertical
14,3,valuation,8,4,trial,17333295.0,17334745.0,1450.0,108,L,17334341,17334949,610,499.4,512.5,5830,likertVertical
14,3,valuation,9,4,trial,17335428.0,17337212.0,1784.0,109,L,17335213,17335591,380,1207.9,560.6,5698,right
14,3,valuation,9,4,trial,17335428.0,17337212.0,1784.0,109,L,17335631,17335779,150,1439.8,514.1,6032,right
14,3,valuation,9,4,trial,17335428.0,17337212.0,1784.0,109,L,17335805,17335877,74,1578.1,502.7,5895,right
14,3,valuation,9,4,trial,17335428.0,17337212.0,1784.0,109,L,17335951,17336247,298,525.2,549.9,5419,likertVertical
14,3,valuation,9,4,trial,17335428.0,17337212.0,1784.0,109,L,17336263,17336407,146,490.1,585.0,5403,likertVertical
14,3,valuation,9,4,trial,17335428.0,17337212.0,1784.0,109,L,17336429,17336751,324,513.1,634.7,5658,likertVertical
14,3,valuation,9,4,trial,17335428.0,17337212.0,1784.0,109,L,17336773,17337043,272,473.3,557.1,6020,likertVertical
14,3,valuation,9,4,trial,17335428.0,17337212.0,1784.0,109,L,17337053,17337203,152,481.7,536.7,6001,likertVertical
14,3,valuation,9,4,trial,17335428.0,17337212.0,1784.0,109,L,17337273,17337435,164,1330.3,492.3,5760,right
14,3,valuation,10,4,fixationCross,17337895.0,17339262.0,1367.0,110,L,17337667,17337815,150,1347.4,559.7,5910,right
14,3,valuation,10,4,trial,17337895.0,17339262.0,1367.0,110,L,17337837,17338081,246,1452.3,551.2,6132,right
14,3,valuation,10,4,trial,17337895.0,17339262.0,1367.0,110,L,17338101,17338255,156,1399.8,552.4,6301,right
14,3,valuation,10,4,trial,17337895.0,17339262.0,1367.0,110,L,17338273,17338575,304,1451.9,606.6,5521,right
14,3,valuation,10,4,trial,17337895.0,17339262.0,1367.0,110,L,17338597,17338805,210,1569.4,589.5,4994,right
14,3,valuation,10,4,trial,17337895.0,17339262.0,1367.0,110,L,17338837,17339091,256,1337.8,572.0,4991,right
14,3,valuation,10,4,trial,17337895.0,17339262.0,1367.0,110,L,17339161,17339291,132,519.0,560.7,5057,likertVertical
