participantNo,block,task,blockTrial,response,trialStage,trialStartTime,trialFinishTime,rt,trial,eye,fixStart,fixEnd,fixLength,fixPosX,fixPosY,dilation,aoi
48,1,binary,1,1,fixationCross,4962238.0,4980871.0,18633.0,1,R,4951924,4952342,420,959.4,446.1,5458,NA
48,1,binary,1,1,fixationCross,4962238.0,4980871.0,18633.0,1,R,4952364,4952446,84,987.2,538.4,5666,NA
48,1,binary,1,1,fixationCross,4962238.0,4980871.0,18633.0,1,R,4952818,4953114,298,983.6,541.3,6115,NA
48,1,binary,1,1,fixationCross,4962238.0,4980871.0,18633.0,1,R,4953562,4953688,128,1023.2,549.1,6244,NA
48,1,binary,1,1,fixationCross,4962238.0,4980871.0,18633.0,1,R,4953788,4953812,26,983.4,548.9,6215,NA
48,1,binary,1,1,fixationCross,4962238.0,4980871.0,18633.0,1,R,4953972,4954036,66,984.8,521.7,6280,NA
48,1,binary,1,1,fixationCross,4962238.0,4980871.0,18633.0,1,R,4954198,4954220,24,989.5,488.9,6437,NA
48,1,binary,1,1,fixationCross,4962238.0,4980871.0,18633.0,1,R,4954240,4955244,1006,974.9,541.5,5917,NA
48,1,binary,1,1,fixationCross,4962238.0,4980871.0,18633.0,1,R,4955420,4955864,446,972.4,539.5,5650,NA
48,1,binary,1,1,fixationCross,4962238.0,4980871.0,18633.0,1,R,4956050,4956438,390,971.4,528.2,5642,NA
48,1,binary,1,1,fixationCross,4962238.0,4980871.0,18633.0,1,R,4956510,4956646,138,280.8,100.5,5716,NA
48,1,binary,1,1,fixationCross,4962238.0,4980871.0,18633.0,1,R,4956912,4957072,162,916.4,426.6,5352,NA
48,1,binary,1,1,fixationCross,4962238.0,4980871.0,18633.0,1,R,4957260,4957444,186,1021.3,522.4,5230,NA
48,1,binary,1,1,fixationCross,4962238.0,4980871.0,18633.0,1,R,4957466,4957720,256,943.8,536.9,5634,NA
48,1,binary,1,1,fixationCross,4962238.0,4980871.0,18633.0,1,R,4957930,4958204,276,998.7,528.2,5832,NA
48,1,binary,1,1,fixationCross,4962238.0,4980871.0,18633.0,1,R,4958278,4958360,84,1737.8,808.8,5793,NA
48,1,binary,1,1,fixationCross,4962238.0,4980871.0,18633.0,1,R,4958550,4960146,1598,962.7,540.1,5536,NA
48,1,binary,1,1,fixationCross,4962238.0,4980871.0,18633.0,1,R,4960214,4960298,86,1647.0,476.8,4903,right
48,1,binary,1,1,fixationCross,4962238.0,4980871.0,18633.0,1,R,4960352,4960484,134,986.3,496.3,5273,NA
48,1,binary,1,1,fixationCross,4962238.0,4980871.0,18633.0,1,R,4960510,4960548,40,984.0,499.2,5418,NA
48,1,binary,1,1,fixationCross,4962238.0,4980871.0,18633.0,1,R,4960572,4961484,914,964.0,528.3,5779,NA
48,1,binary,1,1,trial,4962238.0,4980871.0,18633.0,1,R,4961604,4962460,858,962.8,532.4,5901,NA
48,1,binary,1,1,trial,4962238.0,4980871.0,18633.0,1,R,4962504,4962712,210,1434.3,509.4,5276,right
48,1,binary,1,1,trial,4962238.0,4980871.0,18633.0,1,R,4962776,4962978,204,434.7,524.3,4907,left
48,1,binary,1,1,trial,4962238.0,4980871.0,18633.0,1,R,4962992,4963140,150,441.5,560.1,4692,left
48,1,binary,1,1,trial,4962238.0,4980871.0,18633.0,1,R,4963150,4963452,304,449.9,584.6,4534,left
48,1,binary,1,1,trial,4962238.0,4980871.0,18633.0,1,R,4963476,4963692,218,556.4,490.7,4373,left
48,1,binary,1,1,trial,4962238.0,4980871.0,18633.0,1,R,4963748,4963876,130,464.0,966.2,4314,NA
48,1,binary,1,1,trial,4962238.0,4980871.0,18633.0,1,R,4963888,4964006,120,473.4,996.9,4326,NA
48,1,binary,1,1,trial,4962238.0,4980871.0,18633.0,1,R,4964062,4964550,490,401.2,508.0,4550,left
48,1,binary,1,1,trial,4962238.0,4980871.0,18633.0,1,R,4964570,4964836,268,484.6,531.2,4815,left
48,1,binary,1,1,trial,4962238.0,4980871.0,18633.0,1,R,4964862,4965086,226,377.2,485.7,4822,left
48,1,binary,1,1,trial,4962238.0,4980871.0,18633.0,1,R,4965106,4965370,266,439.1,543.6,4889,left
48,1,binary,1,1,trial,4962238.0,4980871.0,18633.0,1,R,4965508,4965746,240,516.2,492.1,4691,left
48,1,binary,1,1,trial,4962238.0,4980871.0,18633.0,1,R,4965772,4966238,468,445.2,564.1,4951,left
48,1,binary,1,1,trial,4962238.0,4980871.0,18633.0,1,R,4966250,4966536,288,462.2,589.3,4767,left
48,1,binary,1,1,trial,4962238.0,4980871.0,18633.0,1,R,4966560,4967224,666,537.9,492.6,4345,left
48,1,binary,1,1,trial,4962238.0,4980871.0,18633.0,1,R,4967242,4967422,182,629.4,536.3,4545,left
48,1,binary,1,1,trial,4962238.0,4980871.0,18633.0,1,R,4967444,4967630,188,528.0,517.6,4815,left
48,1,binary,1,1,trial,4962238.0,4980871.0,18633.0,1,R,4967690,4967858,170,986.1,1006.3,5131,likertHorizontal
48,1,binary,1,1,trial,4962238.0,4980871.0,18633.0,1,R,4967868,4969102,1236,975.6,977.5,5097,likertHorizontal
48,1,binary,1,1,trial,4962238.0,4980871.0,18633.0,1,R,4969150,4969260,112,516.4,959.2,5372,NA
48,1,binary,1,1,trial,4962238.0,4980871.0,18633.0,1,R,4969436,4969596,162,524.6,755.4,4942,NA
48,1,binary,1,1,trial,4962238.0,4980871.0,18633.0,1,R,4969622,4970256,636,451.4,612.4,4732,left
48,1,binary,1,1,trial,4962238.0,4980871.0,18633.0,1,R,4970266,4970460,196,424.1,601.3,4722,left
48,1,binary,1,1,trial,4962238.0,4980871.0,18633.0,1,R,4970470,4970692,224,449.0,602.4,4884,left
48,1,binary,1,1,trial,4962238.0,4980871.0,18633.0,1,R,4970728,4970958,232,267.8,498.5,5053,left
48,1,binary,1,1,trial,4962238.0,4980871.0,18633.0,1,R,4970980,4971172,194,182.6,529.5,5184,NA
48,1,binary,1,1,trial,4962238.0,4980871.0,18633.0,1,R,4971204,4971552,350,467.7,558.3,5154,left
48,1,binary,1,1,trial,4962238.0,4980871.0,18633.0,1,R,4971564,4971806,244,468.0,585.7,5267,left
48,1,binary,1,1,trial,4962238.0,4980871.0,18633.0,1,R,4971862,4972050,190,982.6,931.5,5537,likertHorizontal
48,1,binary,1,1,trial,4962238.0,4980871.0,18633.0,1,R,4972062,4972246,186,984.8,967.9,5616,likertHorizontal
48,1,binary,1,1,trial,4962238.0,4980871.0,18633.0,1,R,4972312,4972602,292,508.1,532.1,5643,left
48,1,binary,1,1,trial,4962238.0,4980871.0,18633.0,1,R,4972658,4972792,136,972.2,1002.7,5608,likertHorizontal
48,1,binary,1,1,trial,4962238.0,4980871.0,18633.0,1,R,4972804,4972986,184,988.5,993.2,5471,likertHorizontal
48,1,binary,1,1,trial,4962238.0,4980871.0,18633.0,1,R,4973096,4973140,46,988.8,999.5,5287,likertHorizontal
48,1,binary,1,1,trial,4962238.0,4980871.0,18633.0,1,R,4973246,4973286,42,977.2,977.8,5141,likertHorizontal
48,1,binary,1,1,trial,4962238.0,4980871.0,18633.0,1,R,4973314,4973338,26,977.4,976.0,5127,likertHorizontal
48,1,binary,1,1,trial,4962238.0,4980871.0,18633.0,1,R,4973388,4973510,124,979.2,976.3,5178,likertHorizontal
48,1,binary,1,1,trial,4962238.0,4980871.0,18633.0,1,R,4973664,4973702,40,976.5,973.9,5398,likertHorizontal
48,1,binary,1,1,trial,4962238.0,4980871.0,18633.0,1,R,4973994,4974786,794,966.0,974.9,5364,likertHorizontal
48,1,binary,1,1,trial,4962238.0,4980871.0,18633.0,1,R,4974834,4975144,312,480.0,983.2,5304,NA
48,1,binary,1,1,trial,4962238.0,4980871.0,18633.0,1,R,4975212,4975532,322,429.3,450.0,5256,left
48,1,binary,1,1,trial,4962238.0,4980871.0,18633.0,1,R,4975554,4976090,538,408.1,513.7,5087,left
48,1,binary,1,1,trial,4962238.0,4980871.0,18633.0,1,R,4976104,4976718,616,380.3,542.0,5250,left
48,1,binary,1,1,trial,4962238.0,4980871.0,18633.0,1,R,4976738,4977528,792,454.1,561.2,5100,left
48,1,binary,1,1,trial,4962238.0,4980871.0,18633.0,1,R,4977550,4978292,744,581.0,538.6,5367,left
48,1,binary,1,1,trial,4962238.0,4980871.0,18633.0,1,R,4978368,4978574,208,1245.0,815.3,5549,NA
48,1,binary,1,1,trial,4962238.0,4980871.0,18633.0,1,R,4978626,4978696,72,1248.3,818.4,5642,NA
48,1,binary,1,1,trial,4962238.0,4980871.0,18633.0,1,R,4978718,4978822,106,1251.6,817.9,5666,NA
48,1,binary,1,1,trial,4962238.0,4980871.0,18633.0,1,R,4978858,4978886,30,1415.3,933.2,5687,NA
48,1,binary,1,1,trial,4962238.0,4980871.0,18633.0,1,R,4978912,4978948,38,1414.1,931.2,5716,NA
48,1,binary,1,1,trial,4962238.0,4980871.0,18633.0,1,R,4979004,4979402,400,646.8,493.6,5861,left
48,1,binary,1,1,trial,4962238.0,4980871.0,18633.0,1,R,4979540,4979614,76,1390.2,923.5,5821,NA
48,1,binary,1,1,trial,4962238.0,4980871.0,18633.0,1,R,4979634,4979666,34,1451.5,951.7,5814,NA
48,1,binary,1,1,trial,4962238.0,4980871.0,18633.0,1,R,4979692,4979816,126,1450.7,947.8,5880,NA
48,1,binary,1,1,trial,4962238.0,4980871.0,18633.0,1,R,4979866,4979942,78,1315.5,516.0,5961,right
48,1,binary,1,1,trial,4962238.0,4980871.0,18633.0,1,R,4980020,4980136,118,1313.6,517.6,6066,right
48,1,binary,1,1,trial,4962238.0,4980871.0,18633.0,1,R,4980170,4980222,54,1392.8,555.2,5978,right
48,1,binary,1,1,trial,4962238.0,4980871.0,18633.0,1,R,4980278,4980446,170,542.1,892.2,5978,NA
48,1,binary,1,1,trial,4962238.0,4980871.0,18633.0,1,R,4980466,4980742,278,490.9,934.0,5921,NA
48,1,binary,1,1,trial,4962238.0,4980871.0,18633.0,1,R,4980752,4981130,380,497.3,948.2,5992,NA
48,1,binary,1,1,postResponse,4962238.0,4980871.0,18633.0,1,R,4981194,4981236,44,704.7,402.3,5855,left
48,1,binary,2,2,fixationCross,4991605.0,5001004.0,9399.0,2,R,4981336,4981458,124,702.4,415.9,5763,left
48,1,binary,2,2,fixationCross,4991605.0,5001004.0,9399.0,2,R,4981606,4981790,186,649.7,325.0,5804,NA
48,1,binary,2,2,fixationCross,4991605.0,5001004.0,9399.0,2,R,4981870,4981904,36,933.6,488.0,6108,NA
48,1,binary,2,2,fixationCross,4991605.0,5001004.0,9399.0,2,R,4982160,4982346,188,404.9,376.6,6300,left
48,1,binary,2,2,fixationCross,4991605.0,5001004.0,9399.0,2,R,4982596,4982616,22,896.2,453.7,5943,NA
48,1,binary,2,2,fixationCross,4991605.0,5001004.0,9399.0,2,R,4982650,4983006,358,980.8,528.6,5880,NA
48,1,binary,2,2,fixationCross,4991605.0,5001004.0,9399.0,2,R,4983238,4984716,1480,973.1,531.4,6151,NA
48,1,binary,2,2,fixationCross,4991605.0,5001004.0,9399.0,2,R,4984878,4985660,784,978.3,521.6,6214,NA
48,1,binary,2,2,fixationCross,4991605.0,5001004.0,9399.0,2,R,4985678,4985806,130,925.4,478.2,6192,NA
48,1,binary,2,2,fixationCross,4991605.0,5001004.0,9399.0,2,R,4985824,4986124,302,977.0,513.2,6088,NA
48,1,binary,2,2,fixationCross,4991605.0,5001004.0,9399.0,2,R,4986198,4986328,132,233.6,248.1,6074,NA
48,1,binary,2,2,fixationCross,4991605.0,5001004.0,9399.0,2,R,4986382,4986540,160,915.9,479.7,6062,NA
48,1,binary,2,2,fixationCross,4991605.0,5001004.0,9399.0,2,R,4986564,4987150,588,971.9,514.6,5844,NA
48,1,binary,2,2,fixationCross,4991605.0,5001004.0,9399.0,2,R,4987324,4987740,418,960.4,507.9,6067,NA
48,1,binary,2,2,fixationCross,4991605.0,5001004.0,9399.0,2,R,4987816,4987850,36,187.6,92.8,6049,NA
48,1,binary,2,2,fixationCross,4991605.0,5001004.0,9399.0,2,R,4987866,4988046,182,196.6,142.6,5979,NA
48,1,binary,2,2,fixationCross,4991605.0,5001004.0,9399.0,2,R,4988114,4988280,168,955.8,490.3,5741,NA
48,1,binary,2,2,fixationCross,4991605.0,5001004.0,9399.0,2,R,4988292,4988732,442,968.8,533.4,5597,NA
48,1,binary,2,2,fixationCross,4991605.0,5001004.0,9399.0,2,R,4988790,4988918,130,383.9,492.0,5878,left
48,1,binary,2,2,fixationCross,4991605.0,5001004.0,9399.0,2,R,4988966,4989616,652,967.8,539.2,6032,NA
48,1,binary,2,2,fixationCross,4991605.0,5001004.0,9399.0,2,R,4989796,4990306,512,963.0,539.3,6197,NA
48,1,binary,2,2,fixationCross,4991605.0,5001004.0,9399.0,2,R,4990484,4990518,36,948.0,510.5,6099,NA
48,1,binary,2,2,fixationCross,4991605.0,5001004.0,9399.0,2,R,4990592,4990838,248,950.0,470.4,6048,NA
48,1,binary,2,2,fixationCross,4991605.0,5001004.0,9399.0,2,R,4990858,4990878,22,956.0,519.0,6104,NA
48,1,binary,2,2,trial,4991605.0,5001004.0,9399.0,2,R,4991156,4991794,640,954.4,542.9,6000,NA
48,1,binary,2,2,trial,4991605.0,5001004.0,9399.0,2,R,4991826,4991846,22,953.3,528.6,6075,NA
48,1,binary,2,2,trial,4991605.0,5001004.0,9399.0,2,R,4991892,4992310,420,474.5,556.5,5521,left
48,1,binary,2,2,trial,4991605.0,5001004.0,9399.0,2,R,4992368,4993072,706,976.2,989.6,4664,likertHorizontal
48,1,binary,2,2,trial,4991605.0,5001004.0,9399.0,2,R,4993248,4993362,116,969.6,939.5,4772,likertHorizontal
48,1,binary,2,2,trial,4991605.0,5001004.0,9399.0,2,R,4993410,4993646,238,484.9,667.7,4888,left
48,1,binary,2,2,trial,4991605.0,5001004.0,9399.0,2,R,4993696,4993874,180,950.9,912.4,4915,likertHorizontal
48,1,binary,2,2,trial,4991605.0,5001004.0,9399.0,2,R,4993888,4995078,1192,971.0,956.9,5305,likertHorizontal
48,1,binary,2,2,trial,4991605.0,5001004.0,9399.0,2,R,4995388,4995432,46,971.1,963.8,5854,likertHorizontal
48,1,binary,2,2,trial,4991605.0,5001004.0,9399.0,2,R,4995452,4996972,1522,975.7,970.4,5368,likertHorizontal
48,1,binary,2,2,trial,4991605.0,5001004.0,9399.0,2,R,4997026,4997046,22,1432.5,756.4,4998,NA
48,1,binary,2,2,trial,4991605.0,5001004.0,9399.0,2,R,4997104,4997248,146,1423.9,764.7,5193,NA
48,1,binary,2,2,trial,4991605.0,5001004.0,9399.0,2,R,4997352,4997472,122,1355.4,678.1,5388,right
48,1,binary,2,2,trial,4991605.0,5001004.0,9399.0,2,R,4997520,4997698,180,993.7,940.7,5340,likertHorizontal
48,1,binary,2,2,trial,4991605.0,5001004.0,9399.0,2,R,4997708,4998868,1162,968.8,953.0,5684,likertHorizontal
48,1,binary,2,2,trial,4991605.0,5001004.0,9399.0,2,R,4999110,4999240,132,1512.7,502.9,5727,right
48,1,binary,2,2,trial,4991605.0,5001004.0,9399.0,2,R,4999260,4999816,558,1549.2,452.2,5284,right
48,1,binary,2,2,trial,4991605.0,5001004.0,9399.0,2,R,4999922,5000010,90,1601.8,432.5,4688,right
48,1,binary,2,2,trial,4991605.0,5001004.0,9399.0,2,R,5000020,5000064,46,1562.7,437.4,4773,right
48,1,binary,2,2,trial,4991605.0,5001004.0,9399.0,2,R,5000108,5000176,70,1556.1,434.2,4908,right
48,1,binary,2,2,trial,4991605.0,5001004.0,9399.0,2,R,5000256,5000282,28,1549.0,436.5,5088,right
48,1,binary,2,2,trial,4991605.0,5001004.0,9399.0,2,R,5000364,5000424,62,1546.6,439.4,5244,right
48,1,binary,2,2,trial,4991605.0,5001004.0,9399.0,2,R,5000622,5000690,70,1549.7,449.0,5409,right
48,1,binary,2,2,trial,4991605.0,5001004.0,9399.0,2,R,5000856,5000906,52,1553.7,454.7,5480,right
48,1,binary,2,2,trial,4991605.0,5001004.0,9399.0,2,R,5000984,5001018,36,1551.6,453.2,5561,right
48,1,binary,2,2,trial,4991605.0,5001004.0,9399.0,2,R,5001090,5001216,128,1558.2,452.8,5622,right
48,1,binary,2,2,postResponse,4991605.0,5001004.0,9399.0,2,R,5001296,5001328,34,1560.7,454.7,5719,right
48,1,binary,3,1,fixationCross,5011738.0,5026922.0,15184.0,3,R,5001470,5001780,312,609.2,326.7,6083,NA
48,1,binary,3,1,fixationCross,5011738.0,5026922.0,15184.0,3,R,5001894,5001976,84,971.1,452.4,6225,NA
48,1,binary,3,1,fixationCross,5011738.0,5026922.0,15184.0,3,R,5002016,5002050,36,971.9,455.5,6223,NA
48,1,binary,3,1,fixationCross,5011738.0,5026922.0,15184.0,3,R,5002094,5002114,22,973.2,456.2,6216,NA
48,1,binary,3,1,fixationCross,5011738.0,5026922.0,15184.0,3,R,5002140,5002208,70,972.0,462.7,6224,NA
48,1,binary,3,1,fixationCross,5011738.0,5026922.0,15184.0,3,R,5002444,5002534,92,1000.3,514.7,6299,NA
48,1,binary,3,1,fixationCross,5011738.0,5026922.0,15184.0,3,R,5002546,5003138,594,965.2,526.8,6307,NA
48,1,binary,3,1,fixationCross,5011738.0,5026922.0,15184.0,3,R,5003324,5003766,444,965.0,514.5,6128,NA
48,1,binary,3,1,fixationCross,5011738.0,5026922.0,15184.0,3,R,5003788,5003850,64,960.1,523.4,6322,NA
48,1,binary,3,1,fixationCross,5011738.0,5026922.0,15184.0,3,R,5003872,5003914,44,960.9,524.4,6383,NA
48,1,binary,3,1,fixationCross,5011738.0,5026922.0,15184.0,3,R,5003978,5004240,264,960.8,523.9,6379,NA
48,1,binary,3,1,fixationCross,5011738.0,5026922.0,15184.0,3,R,5004434,5004550,118,976.2,512.4,6175,NA
48,1,binary,3,1,fixationCross,5011738.0,5026922.0,15184.0,3,R,5004560,5004978,420,946.1,526.0,6324,NA
48,1,binary,3,1,fixationCross,5011738.0,5026922.0,15184.0,3,R,5005182,5005724,544,958.4,519.0,6367,NA
48,1,binary,3,1,fixationCross,5011738.0,5026922.0,15184.0,3,R,5005932,5006488,558,962.4,518.4,6326,NA
48,1,binary,3,1,fixationCross,5011738.0,5026922.0,15184.0,3,R,5006504,5006618,116,909.6,512.8,6276,NA
48,1,binary,3,1,fixationCross,5011738.0,5026922.0,15184.0,3,R,5006634,5006770,138,959.5,527.4,6183,NA
48,1,binary,3,1,fixationCross,5011738.0,5026922.0,15184.0,3,R,5006978,5007160,184,866.1,418.8,6164,NA
48,1,binary,3,1,fixationCross,5011738.0,5026922.0,15184.0,3,R,5007192,5007540,350,958.3,517.3,6420,NA
48,1,binary,3,1,fixationCross,5011738.0,5026922.0,15184.0,3,R,5007740,5008068,330,962.6,518.0,6194,NA
48,1,binary,3,1,fixationCross,5011738.0,5026922.0,15184.0,3,R,5008728,5008876,150,921.7,538.9,5411,NA
48,1,binary,3,1,fixationCross,5011738.0,5026922.0,15184.0,3,R,5008888,5009286,400,955.3,542.2,5688,NA
48,1,binary,3,1,fixationCross,5011738.0,5026922.0,15184.0,3,R,5009470,5010078,610,958.2,514.1,6045,NA
48,1,binary,3,1,fixationCross,5011738.0,5026922.0,15184.0,3,R,5010288,5010466,180,951.1,487.9,6224,NA
48,1,binary,3,1,fixationCross,5011738.0,5026922.0,15184.0,3,R,5010482,5010720,240,952.0,527.7,6301,NA
48,1,binary,3,1,fixationCross,5011738.0,5026922.0,15184.0,3,R,5010932,5011266,336,950.5,541.5,6331,NA
48,1,binary,3,1,fixationCross,5011738.0,5026922.0,15184.0,3,R,5011478,5011624,148,964.6,504.0,6254,NA
48,1,binary,3,1,trial,5011738.0,5026922.0,15184.0,3,R,5011636,5011954,320,935.5,516.2,6264,NA
48,1,binary,3,1,trial,5011738.0,5026922.0,15184.0,3,R,5011996,5012228,234,467.5,534.7,6057,left
48,1,binary,3,1,trial,5011738.0,5026922.0,15184.0,3,R,5012252,5012466,216,516.6,443.6,5312,left
48,1,binary,3,1,trial,5011738.0,5026922.0,15184.0,3,R,5012528,5013214,688,947.9,965.6,4931,likertHorizontal
48,1,binary,3,1,trial,5011738.0,5026922.0,15184.0,3,R,5013274,5013436,164,1456.1,562.5,4846,right
48,1,binary,3,1,trial,5011738.0,5026922.0,15184.0,3,R,5013494,5013530,38,1540.6,546.3,4746,right
48,1,binary,3,1,trial,5011738.0,5026922.0,15184.0,3,R,5013754,5013840,88,983.8,897.2,4726,likertHorizontal
48,1,binary,3,1,trial,5011738.0,5026922.0,15184.0,3,R,5013890,5013982,94,455.9,676.0,4823,left
48,1,binary,3,1,trial,5011738.0,5026922.0,15184.0,3,R,5014210,5015082,874,967.6,960.8,5262,likertHorizontal
48,1,binary,3,1,trial,5011738.0,5026922.0,15184.0,3,R,5015144,5015492,350,581.2,555.8,4895,left
48,1,binary,3,1,trial,5011738.0,5026922.0,15184.0,3,R,5015538,5016278,742,954.4,956.0,4624,likertHorizontal
48,1,binary,3,1,trial,5011738.0,5026922.0,15184.0,3,R,5016474,5016722,250,334.3,476.1,4877,left
48,1,binary,3,1,trial,5011738.0,5026922.0,15184.0,3,R,5016750,5017548,800,518.1,428.1,4717,left
48,1,binary,3,1,trial,5011738.0,5026922.0,15184.0,3,R,5017612,5017750,140,986.9,1005.2,4928,likertHorizontal
48,1,binary,3,1,trial,5011738.0,5026922.0,15184.0,3,R,5017764,5018008,246,942.0,982.0,5116,likertHorizontal
48,1,binary,3,1,trial,5011738.0,5026922.0,15184.0,3,R,5018076,5018334,260,471.2,526.3,5504,left
48,1,binary,3,1,trial,5011738.0,5026922.0,15184.0,3,R,5018358,5018992,636,536.6,435.7,5455,left
48,1,binary,3,1,trial,5011738.0,5026922.0,15184.0,3,R,5019052,5019234,184,919.8,916.9,5710,likertHorizontal
48,1,binary,3,1,trial,5011738.0,5026922.0,15184.0,3,R,5019250,5019422,174,966.7,950.8,5820,likertHorizontal
48,1,binary,3,1,trial,5011738.0,5026922.0,15184.0,3,R,5019654,5020258,606,957.7,979.6,5892,likertHorizontal
48,1,binary,3,1,trial,5011738.0,5026922.0,15184.0,3,R,5020274,5020498,226,993.0,952.5,5499,likertHorizontal
48,1,binary,3,1,trial,5011738.0,5026922.0,15184.0,3,R,5020508,5021058,552,968.3,963.0,5474,likertHorizontal
48,1,binary,3,1,trial,5011738.0,5026922.0,15184.0,3,R,5021274,5021616,344,965.8,947.3,5288,likertHorizontal
48,1,binary,3,1,trial,5011738.0,5026922.0,15184.0,3,R,5021626,5022498,874,968.9,965.1,5717,likertHorizontal
48,1,binary,3,1,trial,5011738.0,5026922.0,15184.0,3,R,5022690,5022712,24,865.7,914.9,6092,likertHorizontal
48,1,binary,3,1,trial,5011738.0,5026922.0,15184.0,3,R,5022732,5022782,52,869.2,959.9,5943,likertHorizontal
48,1,binary,3,1,trial,5011738.0,5026922.0,15184.0,3,R,5022800,5023132,334,955.2,970.6,6039,likertHorizontal
48,1,binary,3,1,trial,5011738.0,5026922.0,15184.0,3,R,5023400,5023808,410,970.6,969.3,5750,likertHorizontal
48,1,binary,3,1,trial,5011738.0,5026922.0,15184.0,3,R,5024026,5024318,294,482.4,510.6,5533,left
48,1,binary,3,1,trial,5011738.0,5026922.0,15184.0,3,R,5024340,5024894,556,547.7,436.6,4856,left
48,1,binary,3,1,trial,5011738.0,5026922.0,15184.0,3,R,5024952,5025192,242,908.3,901.3,4717,likertHorizontal
48,1,binary,3,1,trial,5011738.0,5026922.0,15184.0,3,R,5025244,5025452,210,469.0,592.6,5010,left
48,1,binary,3,1,trial,5011738.0,5026922.0,15184.0,3,R,5025530,5025600,72,902.2,845.0,5202,likertHorizontal
48,1,binary,3,1,trial,5011738.0,5026922.0,15184.0,3,R,5025650,5025894,246,385.8,482.6,5179,left
48,1,binary,3,1,trial,5011738.0,5026922.0,15184.0,3,R,5026066,5026322,258,648.5,578.8,5287,left
48,1,binary,3,1,trial,5011738.0,5026922.0,15184.0,3,R,5026374,5026484,112,988.7,914.0,5666,likertHorizontal
48,1,binary,3,1,trial,5011738.0,5026922.0,15184.0,3,R,5026532,5027168,638,499.6,934.6,5971,NA
48,1,binary,3,1,postResponse,5011738.0,5026922.0,15184.0,3,R,5027234,5027268,36,759.5,398.4,5608,NA
48,1,binary,4,1,fixationCross,5037621.0,5046655.0,9034.0,4,R,5027372,5027430,60,753.4,401.2,5589,NA
48,1,binary,4,1,fixationCross,5037621.0,5046655.0,9034.0,4,R,5027452,5027514,64,749.5,403.9,5639,NA
48,1,binary,4,1,fixationCross,5037621.0,5046655.0,9034.0,4,R,5027590,5027786,198,180.5,76.0,5691,NA
48,1,binary,4,1,fixationCross,5037621.0,5046655.0,9034.0,4,R,5027850,5028022,174,914.3,353.6,5852,NA
48,1,binary,4,1,fixationCross,5037621.0,5046655.0,9034.0,4,R,5028190,5028352,164,985.7,460.3,5940,NA
48,1,binary,4,1,fixationCross,5037621.0,5046655.0,9034.0,4,R,5028374,5028564,192,931.9,516.6,6201,NA
48,1,binary,4,1,fixationCross,5037621.0,5046655.0,9034.0,4,R,5028572,5029076,506,954.7,525.0,6400,NA
48,1,binary,4,1,fixationCross,5037621.0,5046655.0,9034.0,4,R,5029262,5029354,94,940.7,505.5,6194,NA
48,1,binary,4,1,fixationCross,5037621.0,5046655.0,9034.0,4,R,5029364,5030340,978,952.1,525.0,6229,NA
48,1,binary,4,1,fixationCross,5037621.0,5046655.0,9034.0,4,R,5030528,5031108,582,954.9,535.7,6279,NA
48,1,binary,4,1,fixationCross,5037621.0,5046655.0,9034.0,4,R,5031320,5031412,94,987.4,517.1,6207,NA
48,1,binary,4,1,fixationCross,5037621.0,5046655.0,9034.0,4,R,5031426,5031750,326,953.3,525.9,6153,NA
48,1,binary,4,1,fixationCross,5037621.0,5046655.0,9034.0,4,R,5031806,5031930,126,476.2,469.7,6223,left
48,1,binary,4,1,fixationCross,5037621.0,5046655.0,9034.0,4,R,5031974,5032248,276,922.4,504.5,6081,NA
48,1,binary,4,1,fixationCross,5037621.0,5046655.0,9034.0,4,R,5032260,5032330,72,959.0,527.6,5835,NA
48,1,binary,4,1,fixationCross,5037621.0,5046655.0,9034.0,4,R,5032538,5032716,180,965.0,514.6,5898,NA
48,1,binary,4,1,fixationCross,5037621.0,5046655.0,9034.0,4,R,5032726,5033000,276,942.5,516.7,6112,NA
48,1,binary,4,1,fixationCross,5037621.0,5046655.0,9034.0,4,R,5033078,5033246,170,212.0,36.0,5915,NA
48,1,binary,4,1,fixationCross,5037621.0,5046655.0,9034.0,4,R,5033522,5033546,26,934.8,420.8,5315,NA
48,1,binary,4,1,fixationCross,5037621.0,5046655.0,9034.0,4,R,5033572,5033678,108,936.2,431.7,5169,NA
48,1,binary,4,1,fixationCross,5037621.0,5046655.0,9034.0,4,R,5033706,5033742,38,935.5,440.5,5092,NA
48,1,binary,4,1,fixationCross,5037621.0,5046655.0,9034.0,4,R,5033772,5033796,26,933.2,450.6,5065,NA
48,1,binary,4,1,fixationCross,5037621.0,5046655.0,9034.0,4,R,5034004,5034172,170,625.3,366.4,5448,left
48,1,binary,4,1,fixationCross,5037621.0,5046655.0,9034.0,4,R,5034226,5034514,290,55.9,105.6,5692,NA
48,1,binary,4,1,fixationCross,5037621.0,5046655.0,9034.0,4,R,5034868,5034968,102,987.6,487.6,5076,NA
48,1,binary,4,1,fixationCross,5037621.0,5046655.0,9034.0,4,R,5035026,5035110,86,945.5,517.3,5062,NA
48,1,binary,4,1,fixationCross,5037621.0,5046655.0,9034.0,4,R,5035132,5035574,444,946.7,523.9,5399,NA
48,1,binary,4,1,fixationCross,5037621.0,5046655.0,9034.0,4,R,5035782,5035904,124,1000.5,522.7,5837,NA
48,1,binary,4,1,fixationCross,5037621.0,5046655.0,9034.0,4,R,5035922,5036590,670,944.5,528.4,5971,NA
48,1,binary,4,1,fixationCross,5037621.0,5046655.0,9034.0,4,R,5036642,5036832,192,481.8,483.8,5979,left
48,1,binary,4,1,fixationCross,5037621.0,5046655.0,9034.0,4,R,5036888,5037084,198,926.6,510.3,5952,NA
48,1,binary,4,1,trial,5037621.0,5046655.0,9034.0,4,R,5037300,5037844,546,949.6,544.2,6215,NA
48,1,binary,4,1,trial,5037621.0,5046655.0,9034.0,4,R,5037890,5038186,298,463.4,631.0,5838,left
48,1,binary,4,1,trial,5037621.0,5046655.0,9034.0,4,R,5038240,5038372,134,987.9,921.8,5330,likertHorizontal
48,1,binary,4,1,trial,5037621.0,5046655.0,9034.0,4,R,5038424,5038602,180,963.4,965.4,5123,likertHorizontal
48,1,binary,4,1,trial,5037621.0,5046655.0,9034.0,4,R,5038782,5038944,164,1504.3,542.2,4992,right
48,1,binary,4,1,trial,5037621.0,5046655.0,9034.0,4,R,5038966,5039202,238,1608.7,522.1,4920,right
48,1,binary,4,1,trial,5037621.0,5046655.0,9034.0,4,R,5039214,5039444,232,1627.4,488.5,4621,right
48,1,binary,4,1,trial,5037621.0,5046655.0,9034.0,4,R,5039522,5040250,730,433.7,506.3,4379,left
48,1,binary,4,1,trial,5037621.0,5046655.0,9034.0,4,R,5040262,5040480,220,426.1,474.0,4497,left
48,1,binary,4,1,trial,5037621.0,5046655.0,9034.0,4,R,5040756,5040998,244,1514.1,513.9,4588,right
48,1,binary,4,1,trial,5037621.0,5046655.0,9034.0,4,R,5041056,5041464,410,1590.6,485.2,4684,right
48,1,binary,4,1,trial,5037621.0,5046655.0,9034.0,4,R,5041516,5041552,38,1587.7,487.0,4768,right
48,1,binary,4,1,trial,5037621.0,5046655.0,9034.0,4,R,5041808,5042308,502,431.7,513.4,5094,left
48,1,binary,4,1,trial,5037621.0,5046655.0,9034.0,4,R,5042330,5042644,316,441.6,452.7,4806,left
48,1,binary,4,1,trial,5037621.0,5046655.0,9034.0,4,R,5042734,5043016,284,1551.9,482.0,4388,right
48,1,binary,4,1,trial,5037621.0,5046655.0,9034.0,4,R,5043032,5043052,22,1615.0,481.2,4331,right
48,1,binary,4,1,trial,5037621.0,5046655.0,9034.0,4,R,5043242,5043632,392,1616.1,496.9,4543,right
48,1,binary,4,1,trial,5037621.0,5046655.0,9034.0,4,R,5043648,5044006,360,1644.8,540.8,5068,right
48,1,binary,4,1,trial,5037621.0,5046655.0,9034.0,4,R,5044040,5044346,308,1421.4,514.0,5272,right
48,1,binary,4,1,trial,5037621.0,5046655.0,9034.0,4,R,5044412,5044956,546,484.1,525.1,4801,left
48,1,binary,4,1,trial,5037621.0,5046655.0,9034.0,4,R,5044974,5045132,160,427.7,514.8,4482,left
48,1,binary,4,1,trial,5037621.0,5046655.0,9034.0,4,R,5045308,5045522,216,427.6,1004.5,4539,NA
48,1,binary,4,1,trial,5037621.0,5046655.0,9034.0,4,R,5045540,5046004,466,494.4,1003.3,5066,NA
48,1,binary,4,1,trial,5037621.0,5046655.0,9034.0,4,R,5046028,5046072,46,433.0,919.2,5446,NA
48,1,binary,4,1,postResponse,5037621.0,5046655.0,9034.0,4,R,5046344,5047028,686,437.8,508.2,5144,left
48,1,binary,5,2,fixationCross,5057372.0,5062272.0,4900.0,5,R,5047102,5047366,266,811.9,471.8,4806,NA
48,1,binary,5,2,fixationCross,5057372.0,5062272.0,4900.0,5,R,5047414,5047548,136,349.4,356.5,4950,left
48,1,binary,5,2,fixationCross,5057372.0,5062272.0,4900.0,5,R,5047604,5047632,30,954.1,508.4,5195,NA
48,1,binary,5,2,fixationCross,5057372.0,5062272.0,4900.0,5,R,5047754,5047822,70,959.7,518.4,5373,NA
48,1,binary,5,2,fixationCross,5057372.0,5062272.0,4900.0,5,R,5047858,5047904,48,959.7,522.8,5452,NA
48,1,binary,5,2,fixationCross,5057372.0,5062272.0,4900.0,5,R,5048102,5048772,672,957.0,538.1,5920,NA
48,1,binary,5,2,fixationCross,5057372.0,5062272.0,4900.0,5,R,5048850,5049006,158,139.0,80.1,5888,NA
48,1,binary,5,2,fixationCross,5057372.0,5062272.0,4900.0,5,R,5049068,5049168,102,976.8,493.5,5830,NA
48,1,binary,5,2,fixationCross,5057372.0,5062272.0,4900.0,5,R,5049196,5049250,56,981.2,503.6,5589,NA
48,1,binary,5,2,fixationCross,5057372.0,5062272.0,4900.0,5,R,5049292,5049672,382,962.1,542.6,5480,NA
48,1,binary,5,2,fixationCross,5057372.0,5062272.0,4900.0,5,R,5049866,5049996,132,971.1,541.1,5844,NA
48,1,binary,5,2,fixationCross,5057372.0,5062272.0,4900.0,5,R,5050024,5050094,72,962.2,536.8,5945,NA
48,1,binary,5,2,fixationCross,5057372.0,5062272.0,4900.0,5,R,5050228,5050276,50,943.2,540.8,6123,NA
48,1,binary,5,2,fixationCross,5057372.0,5062272.0,4900.0,5,R,5050564,5050594,32,955.5,544.3,6120,NA
48,1,binary,5,2,fixationCross,5057372.0,5062272.0,4900.0,5,R,5050828,5050902,76,1081.3,471.7,5998,NA
48,1,binary,5,2,fixationCross,5057372.0,5062272.0,4900.0,5,R,5050926,5050950,26,1079.8,472.5,6026,NA
48,1,binary,5,2,fixationCross,5057372.0,5062272.0,4900.0,5,R,5051010,5051170,162,958.7,518.8,6159,NA
48,1,binary,5,2,fixationCross,5057372.0,5062272.0,4900.0,5,R,5051242,5051272,32,952.0,517.2,6263,NA
48,1,binary,5,2,fixationCross,5057372.0,5062272.0,4900.0,5,R,5051454,5051574,122,1014.3,508.3,6304,NA
48,1,binary,5,2,fixationCross,5057372.0,5062272.0,4900.0,5,R,5051616,5051826,212,951.9,532.3,6339,NA
48,1,binary,5,2,fixationCross,5057372.0,5062272.0,4900.0,5,R,5051882,5051910,30,948.1,532.3,6336,NA
48,1,binary,5,2,fixationCross,5057372.0,5062272.0,4900.0,5,R,5051934,5051970,38,946.6,532.9,6332,NA
48,1,binary,5,2,fixationCross,5057372.0,5062272.0,4900.0,5,R,5052254,5052290,38,961.9,535.8,6159,NA
48,1,binary,5,2,fixationCross,5057372.0,5062272.0,4900.0,5,R,5052338,5052366,30,962.3,536.1,6105,NA
48,1,binary,5,2,fixationCross,5057372.0,5062272.0,4900.0,5,R,5052448,5052478,32,961.4,540.8,6046,NA
48,1,binary,5,2,fixationCross,5057372.0,5062272.0,4900.0,5,R,5052506,5052606,102,955.5,539.7,5998,NA
48,1,binary,5,2,fixationCross,5057372.0,5062272.0,4900.0,5,R,5052634,5052858,226,949.5,538.6,6008,NA
48,1,binary,5,2,fixationCross,5057372.0,5062272.0,4900.0,5,R,5053030,5053106,78,1100.1,587.9,6038,NA
48,1,binary,5,2,fixationCross,5057372.0,5062272.0,4900.0,5,R,5053126,5053364,240,1170.8,624.8,6081,NA
48,1,binary,5,2,fixationCross,5057372.0,5062272.0,4900.0,5,R,5053418,5053478,62,1174.0,624.0,6230,NA
48,1,binary,5,2,fixationCross,5057372.0,5062272.0,4900.0,5,R,5053538,5053568,32,1174.8,625.1,6304,NA
48,1,binary,5,2,fixationCross,5057372.0,5062272.0,4900.0,5,R,5053594,5053638,46,1177.0,625.8,6323,NA
48,1,binary,5,2,fixationCross,5057372.0,5062272.0,4900.0,5,R,5053664,5053692,30,1177.7,630.7,6318,NA
48,1,binary,5,2,fixationCross,5057372.0,5062272.0,4900.0,5,R,5053764,5053824,62,1182.4,636.0,6203,NA
48,1,binary,5,2,fixationCross,5057372.0,5062272.0,4900.0,5,R,5053850,5053904,56,1183.0,635.6,6101,NA
48,1,binary,5,2,fixationCross,5057372.0,5062272.0,4900.0,5,R,5054156,5054214,60,1169.1,627.4,5964,NA
48,1,binary,5,2,fixationCross,5057372.0,5062272.0,4900.0,5,R,5054226,5055568,1344,1189.2,644.0,5769,right
48,1,binary,5,2,fixationCross,5057372.0,5062272.0,4900.0,5,R,5055754,5055834,82,912.5,537.0,5734,NA
48,1,binary,5,2,fixationCross,5057372.0,5062272.0,4900.0,5,R,5055856,5055998,144,988.6,545.7,5811,NA
48,1,binary,5,2,fixationCross,5057372.0,5062272.0,4900.0,5,R,5056026,5056252,228,1165.7,618.9,5909,NA
48,1,binary,5,2,fixationCross,5057372.0,5062272.0,4900.0,5,R,5056268,5056446,180,1105.4,624.4,5851,NA
48,1,binary,5,2,fixationCross,5057372.0,5062272.0,4900.0,5,R,5056474,5056668,196,948.0,558.1,5654,NA
48,1,binary,5,2,trial,5057372.0,5062272.0,4900.0,5,R,5056684,5057600,918,964.2,529.5,5118,NA
48,1,binary,5,2,trial,5057372.0,5062272.0,4900.0,5,R,5057646,5057834,190,473.8,531.4,5174,left
48,1,binary,5,2,trial,5057372.0,5062272.0,4900.0,5,R,5057858,5058074,218,445.1,441.7,4862,left
48,1,binary,5,2,trial,5057372.0,5062272.0,4900.0,5,R,5058136,5058296,162,1358.2,522.6,4496,right
48,1,binary,5,2,trial,5057372.0,5062272.0,4900.0,5,R,5058310,5058530,222,1365.8,559.9,4352,right
48,1,binary,5,2,trial,5057372.0,5062272.0,4900.0,5,R,5058578,5058784,208,1355.1,577.9,4303,right
48,1,binary,5,2,trial,5057372.0,5062272.0,4900.0,5,R,5058994,5059172,180,509.8,482.9,4240,left
48,1,binary,5,2,trial,5057372.0,5062272.0,4900.0,5,R,5059194,5059334,142,437.8,437.1,4234,left
48,1,binary,5,2,trial,5057372.0,5062272.0,4900.0,5,R,5059372,5059456,86,426.6,428.8,4171,left
48,1,binary,5,2,trial,5057372.0,5062272.0,4900.0,5,R,5059526,5059552,28,423.9,422.6,4072,left
48,1,binary,5,2,trial,5057372.0,5062272.0,4900.0,5,R,5059572,5059748,178,380.3,382.6,3998,left
48,1,binary,5,2,trial,5057372.0,5062272.0,4900.0,5,R,5059942,5060022,82,1403.5,975.0,3952,NA
48,1,binary,5,2,trial,5057372.0,5062272.0,4900.0,5,R,5060086,5060112,28,1427.8,538.3,3978,right
48,1,binary,5,2,trial,5057372.0,5062272.0,4900.0,5,R,5060376,5060652,278,1370.2,559.2,4358,right
48,1,binary,5,2,trial,5057372.0,5062272.0,4900.0,5,R,5060832,5061140,310,486.6,469.7,4489,left
48,1,binary,5,2,trial,5057372.0,5062272.0,4900.0,5,R,5061164,5061608,446,390.4,415.6,4479,left
48,1,binary,5,2,trial,5057372.0,5062272.0,4900.0,5,R,5061680,5061738,60,1420.6,660.1,4215,right
48,1,binary,5,2,trial,5057372.0,5062272.0,4900.0,5,R,5061944,5062008,66,1411.9,660.5,4149,right
48,1,binary,5,2,trial,5057372.0,5062272.0,4900.0,5,R,5062046,5062126,82,1409.9,662.7,4165,right
48,1,binary,5,2,trial,5057372.0,5062272.0,4900.0,5,R,5062238,5062276,40,1358.3,606.2,4256,right
48,1,binary,5,2,trial,5057372.0,5062272.0,4900.0,5,R,5062382,5062404,24,1359.8,606.6,4333,right
48,1,binary,5,2,trial,5057372.0,5062272.0,4900.0,5,R,5062442,5062508,68,1358.8,608.1,4344,right
48,1,binary,6,1,fixationCross,5062955.0,5067655.0,4700.0,6,R,5062702,5062708,8,1006.2,401.5,4405,NA
48,1,binary,6,1,trial,5062955.0,5067655.0,4700.0,6,R,5062726,5062962,238,998.1,420.3,4490,NA
48,1,binary,6,1,trial,5062955.0,5067655.0,4700.0,6,R,5063148,5063212,66,905.6,499.5,5124,NA
48,1,binary,6,1,trial,5062955.0,5067655.0,4700.0,6,R,5063254,5063416,164,439.4,535.9,5356,left
48,1,binary,6,1,trial,5062955.0,5067655.0,4700.0,6,R,5063426,5063696,272,464.7,533.6,5162,left
48,1,binary,6,1,trial,5062955.0,5067655.0,4700.0,6,R,5063842,5063862,22,1432.3,565.8,4448,right
48,1,binary,6,1,trial,5062955.0,5067655.0,4700.0,6,R,5063930,5063950,22,1437.9,566.4,4343,right
48,1,binary,6,1,trial,5062955.0,5067655.0,4700.0,6,R,5063984,5064006,24,1439.9,568.0,4298,right
48,1,binary,6,1,trial,5062955.0,5067655.0,4700.0,6,R,5064046,5064082,38,1573.4,630.2,4225,right
48,1,binary,6,1,trial,5062955.0,5067655.0,4700.0,6,R,5064206,5064288,84,1575.5,628.1,4142,right
48,1,binary,6,1,trial,5062955.0,5067655.0,4700.0,6,R,5064442,5064522,82,1472.9,609.2,4037,right
48,1,binary,6,1,trial,5062955.0,5067655.0,4700.0,6,R,5064546,5064572,28,1471.1,606.6,3987,right
48,1,binary,6,1,trial,5062955.0,5067655.0,4700.0,6,R,5064730,5065930,1202,431.3,519.6,3910,left
48,1,binary,6,1,trial,5062955.0,5067655.0,4700.0,6,R,5065988,5066182,196,490.5,1049.5,3974,NA
48,1,binary,6,1,trial,5062955.0,5067655.0,4700.0,6,R,5066226,5066322,98,983.5,979.5,3945,likertHorizontal
48,1,binary,6,1,trial,5062955.0,5067655.0,4700.0,6,R,5066526,5066772,248,360.3,508.2,4297,left
48,1,binary,6,1,trial,5062955.0,5067655.0,4700.0,6,R,5066842,5067018,178,1466.8,551.1,4344,right
48,1,binary,6,1,trial,5062955.0,5067655.0,4700.0,6,R,5067088,5067302,216,527.3,952.2,4257,NA
48,1,binary,6,1,trial,5062955.0,5067655.0,4700.0,6,R,5067324,5067444,122,437.9,969.4,4238,NA
48,1,binary,6,1,postResponse,5062955.0,5067655.0,4700.0,6,R,5067494,5068000,508,427.3,511.7,4403,left
48,1,binary,7,1,trial,5068355.0,5071739.0,3384.0,7,R,5068188,5068550,364,1026.7,349.9,4737,NA
48,1,binary,7,1,trial,5068355.0,5071739.0,3384.0,7,R,5068606,5068926,322,481.7,523.1,4954,left
48,1,binary,7,1,trial,5068355.0,5071739.0,3384.0,7,R,5068940,5069068,130,522.1,518.4,4460,left
48,1,binary,7,1,trial,5068355.0,5071739.0,3384.0,7,R,5069132,5069306,176,1500.4,480.5,3991,right
48,1,binary,7,1,trial,5068355.0,5071739.0,3384.0,7,R,5069372,5069460,90,1504.3,483.3,3782,right
48,1,binary,7,1,trial,5068355.0,5071739.0,3384.0,7,R,5069470,5069542,74,1469.7,483.1,3744,right
48,1,binary,7,1,trial,5068355.0,5071739.0,3384.0,7,R,5069674,5069714,42,1470.9,484.2,3717,right
48,1,binary,7,1,trial,5068355.0,5071739.0,3384.0,7,R,5069724,5069840,118,1499.8,473.0,3725,right
48,1,binary,7,1,trial,5068355.0,5071739.0,3384.0,7,R,5069862,5070196,336,1502.7,482.7,3768,right
48,1,binary,7,1,trial,5068355.0,5071739.0,3384.0,7,R,5070336,5070408,74,1545.8,447.8,3939,right
48,1,binary,7,1,trial,5068355.0,5071739.0,3384.0,7,R,5070480,5070656,178,419.5,556.3,4421,left
48,1,binary,7,1,trial,5068355.0,5071739.0,3384.0,7,R,5070674,5070918,246,486.3,542.6,4401,left
48,1,binary,7,1,trial,5068355.0,5071739.0,3384.0,7,R,5070952,5071294,344,262.9,620.3,3945,left
48,1,binary,7,1,trial,5068355.0,5071739.0,3384.0,7,R,5071324,5071728,406,500.1,540.4,3756,left
48,1,binary,7,1,postResponse,5068355.0,5071739.0,3384.0,7,R,5071740,5072084,346,491.8,520.0,4089,left
48,1,binary,8,2,fixationCross,5072439.0,5074688.0,2249.0,8,R,5072160,5072208,50,492.7,525.3,4309,left
48,1,binary,8,2,trial,5072439.0,5074688.0,2249.0,8,R,5072386,5072536,152,1263.8,450.0,4566,right
48,1,binary,8,2,trial,5072439.0,5074688.0,2249.0,8,R,5072582,5072610,30,1264.7,448.8,4732,right
48,1,binary,8,2,trial,5072439.0,5074688.0,2249.0,8,R,5072664,5073096,434,467.2,532.3,4793,left
48,1,binary,8,2,trial,5072439.0,5074688.0,2249.0,8,R,5073160,5073560,402,1481.0,545.7,4008,right
48,1,binary,8,2,trial,5072439.0,5074688.0,2249.0,8,R,5073628,5073690,64,1470.4,559.4,3870,right
48,1,binary,8,2,trial,5072439.0,5074688.0,2249.0,8,R,5073766,5073964,200,434.8,508.0,3863,left
48,1,binary,8,2,postResponse,5072439.0,5074688.0,2249.0,8,R,5074138,5075036,900,1429.3,561.0,4092,right
48,1,binary,9,1,trial,5075439.0,5080088.0,4649.0,9,R,5075246,5075442,198,469.6,374.4,4921,left
48,1,binary,9,1,trial,5075439.0,5080088.0,4649.0,9,R,5075486,5075684,200,960.4,490.2,5166,NA
48,1,binary,9,1,trial,5075439.0,5080088.0,4649.0,9,R,5075734,5075988,256,502.1,551.5,5275,left
48,1,binary,9,1,trial,5075439.0,5080088.0,4649.0,9,R,5076004,5076106,104,466.5,569.6,5024,left
48,1,binary,9,1,trial,5075439.0,5080088.0,4649.0,9,R,5076168,5076614,448,1377.7,569.5,4717,right
48,1,binary,9,1,trial,5075439.0,5080088.0,4649.0,9,R,5076678,5077024,348,500.9,482.3,5073,left
48,1,binary,9,1,trial,5075439.0,5080088.0,4649.0,9,R,5077208,5077464,258,1390.0,540.3,4681,right
48,1,binary,9,1,trial,5075439.0,5080088.0,4649.0,9,R,5077482,5077868,388,1316.7,545.6,4732,right
48,1,binary,9,1,trial,5075439.0,5080088.0,4649.0,9,R,5077930,5078134,206,457.8,558.6,4640,left
48,1,binary,9,1,trial,5075439.0,5080088.0,4649.0,9,R,5078150,5078388,240,513.0,563.4,4436,left
48,1,binary,9,1,trial,5075439.0,5080088.0,4649.0,9,R,5078524,5078752,230,1590.6,541.9,3953,right
48,1,binary,9,1,trial,5075439.0,5080088.0,4649.0,9,R,5078782,5078886,106,1408.8,547.4,4005,right
48,1,binary,9,1,trial,5075439.0,5080088.0,4649.0,9,R,5079326,5079452,128,448.6,504.0,4553,left
48,1,binary,9,1,trial,5075439.0,5080088.0,4649.0,9,R,5079498,5079638,142,455.4,509.3,4706,left
48,1,binary,9,1,trial,5075439.0,5080088.0,4649.0,9,R,5079662,5080328,668,362.0,588.2,4440,left
48,1,binary,10,1,trial,5080788.0,5090072.0,9284.0,10,R,5080510,5080814,306,1187.4,477.9,4682,right
48,1,binary,10,1,trial,5080788.0,5090072.0,9284.0,10,R,5080850,5081004,156,893.6,527.6,5150,NA
48,1,binary,10,1,trial,5080788.0,5090072.0,9284.0,10,R,5081052,5081256,206,418.0,578.1,5135,left
48,1,binary,10,1,trial,5080788.0,5090072.0,9284.0,10,R,5081402,5081442,42,1418.0,555.1,4339,right
48,1,binary,10,1,trial,5080788.0,5090072.0,9284.0,10,R,5081670,5081846,178,427.4,605.9,3916,left
48,1,binary,10,1,trial,5080788.0,5090072.0,9284.0,10,R,5081860,5082260,402,401.9,634.1,3668,left
48,1,binary,10,1,trial,5080788.0,5090072.0,9284.0,10,R,5082284,5082520,238,330.4,566.8,3688,left
48,1,binary,10,1,trial,5080788.0,5090072.0,9284.0,10,R,5082556,5083106,552,428.3,708.6,3984,left
48,1,binary,10,1,trial,5080788.0,5090072.0,9284.0,10,R,5083174,5083208,36,1407.5,563.6,4314,right
48,1,binary,10,1,trial,5080788.0,5090072.0,9284.0,10,R,5083372,5083432,62,1406.5,572.2,4205,right
48,1,binary,10,1,trial,5080788.0,5090072.0,9284.0,10,R,5083640,5083884,246,584.9,470.6,4021,left
48,1,binary,10,1,trial,5080788.0,5090072.0,9284.0,10,R,5083948,5084426,480,1460.8,504.4,3746,right
48,1,binary,10,1,trial,5080788.0,5090072.0,9284.0,10,R,5084448,5084602,156,1472.8,528.3,3667,right
48,1,binary,10,1,trial,5080788.0,5090072.0,9284.0,10,R,5084660,5084932,274,1475.2,527.5,3620,right
48,1,binary,10,1,trial,5080788.0,5090072.0,9284.0,10,R,5084956,5085304,350,1359.7,509.2,3627,right
48,1,binary,10,1,trial,5080788.0,5090072.0,9284.0,10,R,5085374,5085776,404,417.5,580.6,3934,left
48,1,binary,10,1,trial,5080788.0,5090072.0,9284.0,10,R,5085798,5086184,388,426.7,475.3,4212,left
48,1,binary,10,1,trial,5080788.0,5090072.0,9284.0,10,R,5086210,5086510,302,364.4,587.6,4595,left
48,1,binary,10,1,trial,5080788.0,5090072.0,9284.0,10,R,5086786,5087144,360,1415.2,548.2,4559,right
48,1,binary,10,1,trial,5080788.0,5090072.0,9284.0,10,R,5087170,5087202,34,1419.0,552.6,4645,right
48,1,binary,10,1,trial,5080788.0,5090072.0,9284.0,10,R,5087258,5087518,262,1418.5,556.3,4666,right
48,1,binary,10,1,trial,5080788.0,5090072.0,9284.0,10,R,5087592,5087812,222,291.2,556.9,4963,left
48,1,binary,10,1,trial,5080788.0,5090072.0,9284.0,10,R,5087832,5087978,148,383.0,572.0,4928,left
48,1,binary,10,1,trial,5080788.0,5090072.0,9284.0,10,R,5088126,5088168,44,1416.4,571.7,4591,right
48,1,binary,10,1,trial,5080788.0,5090072.0,9284.0,10,R,5088352,5088436,86,1420.9,590.5,4543,right
48,1,binary,10,1,trial,5080788.0,5090072.0,9284.0,10,R,5088456,5088552,98,1443.3,543.9,4622,right
48,1,binary,10,1,trial,5080788.0,5090072.0,9284.0,10,R,5088606,5088972,368,1459.0,527.1,4205,right
48,1,binary,10,1,trial,5080788.0,5090072.0,9284.0,10,R,5089050,5089380,332,376.9,585.2,3850,left
48,1,binary,10,1,trial,5080788.0,5090072.0,9284.0,10,R,5089540,5090092,554,406.5,566.2,4132,left
48,1,binary,10,1,postResponse,5080788.0,5090072.0,9284.0,10,R,5090106,5090420,316,397.0,598.6,4697,left
48,1,binary,11,1,trial,5090756.0,5093689.0,2933.0,11,R,5090642,5090844,204,1193.1,414.1,4600,right
48,1,binary,11,1,trial,5090756.0,5093689.0,2933.0,11,R,5090894,5091114,222,576.4,526.8,4814,left
48,1,binary,11,1,trial,5090756.0,5093689.0,2933.0,11,R,5091144,5091452,310,414.2,567.2,4748,left
48,1,binary,11,1,trial,5090756.0,5093689.0,2933.0,11,R,5091512,5091706,196,1376.2,513.6,4179,right
48,1,binary,11,1,trial,5090756.0,5093689.0,2933.0,11,R,5091728,5091890,164,1321.0,430.5,3921,right
48,1,binary,11,1,trial,5090756.0,5093689.0,2933.0,11,R,5091930,5091998,70,1660.0,527.8,3765,right
48,1,binary,11,1,trial,5090756.0,5093689.0,2933.0,11,R,5092020,5092060,42,1663.4,540.0,3736,right
48,1,binary,11,1,trial,5090756.0,5093689.0,2933.0,11,R,5092084,5092216,134,1663.4,542.1,3734,right
48,1,binary,11,1,trial,5090756.0,5093689.0,2933.0,11,R,5092288,5092618,332,420.7,628.6,3970,left
48,1,binary,11,1,trial,5090756.0,5093689.0,2933.0,11,R,5092644,5092838,196,643.5,625.1,3878,left
48,1,binary,11,1,trial,5090756.0,5093689.0,2933.0,11,R,5092906,5092992,88,1562.2,555.0,3678,right
48,1,binary,11,1,trial,5090756.0,5093689.0,2933.0,11,R,5093156,5093640,486,369.5,539.7,3952,left
48,1,binary,11,1,trial,5090756.0,5093689.0,2933.0,11,R,5093672,5093898,228,536.0,634.0,4012,left
48,1,binary,12,1,fixationCross,5094406.0,5097739.0,3333.0,12,R,5094240,5094282,44,1073.5,473.6,4552,NA
48,1,binary,12,1,trial,5094406.0,5097739.0,3333.0,12,R,5094304,5094436,134,1072.4,478.4,4709,NA
48,1,binary,12,1,trial,5094406.0,5097739.0,3333.0,12,R,5094648,5094682,36,582.3,559.3,5165,left
48,1,binary,12,1,trial,5094406.0,5097739.0,3333.0,12,R,5094718,5094764,48,579.7,563.3,5109,left
48,1,binary,12,1,trial,5094406.0,5097739.0,3333.0,12,R,5094786,5094806,22,582.4,562.9,4992,left
48,1,binary,12,1,trial,5094406.0,5097739.0,3333.0,12,R,5094938,5094972,36,1433.1,570.6,4632,right
48,1,binary,12,1,trial,5094406.0,5097739.0,3333.0,12,R,5094994,5095068,76,1441.9,584.0,4511,right
48,1,binary,12,1,trial,5094406.0,5097739.0,3333.0,12,R,5095106,5095130,26,1448.7,583.9,4370,right
48,1,binary,12,1,trial,5094406.0,5097739.0,3333.0,12,R,5095324,5095358,36,1483.4,626.8,4162,right
48,1,binary,12,1,trial,5094406.0,5097739.0,3333.0,12,R,5095444,5095566,124,1327.2,466.6,4177,right
48,1,binary,12,1,trial,5094406.0,5097739.0,3333.0,12,R,5095624,5095908,286,472.1,519.1,4362,left
48,1,binary,12,1,trial,5094406.0,5097739.0,3333.0,12,R,5095928,5096216,290,565.9,539.1,4387,left
48,1,binary,12,1,trial,5094406.0,5097739.0,3333.0,12,R,5096370,5096718,350,461.5,976.0,4359,NA
48,1,binary,12,1,trial,5094406.0,5097739.0,3333.0,12,R,5096774,5097368,596,466.9,480.4,4659,left
48,1,binary,12,1,trial,5094406.0,5097739.0,3333.0,12,R,5097572,5098030,460,1359.8,567.9,4455,right
48,1,binary,13,1,fixationCross,5098439.0,5107739.0,9300.0,13,R,5098160,5098370,212,655.7,395.8,4551,left
48,1,binary,13,1,trial,5098439.0,5107739.0,9300.0,13,R,5098498,5098604,108,940.2,595.3,4742,NA
48,1,binary,13,1,trial,5098439.0,5107739.0,9300.0,13,R,5098654,5098778,126,445.2,552.4,4900,left
48,1,binary,13,1,trial,5098439.0,5107739.0,9300.0,13,R,5098802,5098956,156,382.5,468.0,4746,left
48,1,binary,13,1,trial,5098439.0,5107739.0,9300.0,13,R,5098970,5099096,128,338.1,487.4,4516,left
48,1,binary,13,1,trial,5098439.0,5107739.0,9300.0,13,R,5099236,5099480,246,1422.5,553.6,4274,right
48,1,binary,13,1,trial,5098439.0,5107739.0,9300.0,13,R,5099502,5099772,272,1436.1,481.5,4220,right
48,1,binary,13,1,trial,5098439.0,5107739.0,9300.0,13,R,5099888,5099936,50,445.1,465.5,4282,left
48,1,binary,13,1,trial,5098439.0,5107739.0,9300.0,13,R,5100018,5100128,112,339.7,488.4,4239,left
48,1,binary,13,1,trial,5098439.0,5107739.0,9300.0,13,R,5100288,5100326,40,345.4,479.5,4117,left
48,1,binary,13,1,trial,5098439.0,5107739.0,9300.0,13,R,5100440,5100464,26,396.7,427.3,3995,left
48,1,binary,13,1,trial,5098439.0,5107739.0,9300.0,13,R,5100674,5100972,300,1452.4,527.4,3767,right
48,1,binary,13,1,trial,5098439.0,5107739.0,9300.0,13,R,5100988,5101340,354,1457.5,480.9,3960,right
48,1,binary,13,1,trial,5098439.0,5107739.0,9300.0,13,R,5101366,5101662,298,1284.6,473.0,3945,right
48,1,binary,13,1,trial,5098439.0,5107739.0,9300.0,13,R,5101828,5102096,270,1530.6,485.2,3981,right
48,1,binary,13,1,trial,5098439.0,5107739.0,9300.0,13,R,5102112,5102190,80,1467.3,502.0,4234,right
48,1,binary,13,1,trial,5098439.0,5107739.0,9300.0,13,R,5102262,5102468,208,389.7,471.1,4409,left
48,1,binary,13,1,trial,5098439.0,5107739.0,9300.0,13,R,5102484,5102910,428,334.3,473.9,4130,left
48,1,binary,13,1,trial,5098439.0,5107739.0,9300.0,13,R,5102930,5103222,294,405.0,430.7,3821,left
48,1,binary,13,1,trial,5098439.0,5107739.0,9300.0,13,R,5103236,5103394,160,367.6,436.4,3797,left
48,1,binary,13,1,trial,5098439.0,5107739.0,9300.0,13,R,5103406,5103766,362,344.2,465.6,3921,left
48,1,binary,13,1,trial,5098439.0,5107739.0,9300.0,13,R,5103842,5104044,204,1443.6,700.1,3951,right
48,1,binary,13,1,trial,5098439.0,5107739.0,9300.0,13,R,5104070,5104306,238,1471.1,598.1,4013,right
48,1,binary,13,1,trial,5098439.0,5107739.0,9300.0,13,R,5104326,5104618,294,1457.0,513.8,4098,right
48,1,binary,13,1,trial,5098439.0,5107739.0,9300.0,13,R,5104634,5105054,422,1459.3,454.2,4090,right
48,1,binary,13,1,trial,5098439.0,5107739.0,9300.0,13,R,5105078,5105466,390,1310.8,472.4,4028,right
48,1,binary,13,1,trial,5098439.0,5107739.0,9300.0,13,R,5105528,5105706,180,503.5,513.3,4237,left
48,1,binary,13,1,trial,5098439.0,5107739.0,9300.0,13,R,5105730,5105946,218,365.0,485.6,4278,left
48,1,binary,13,1,trial,5098439.0,5107739.0,9300.0,13,R,5105960,5106206,248,318.0,477.9,4100,left
48,1,binary,13,1,trial,5098439.0,5107739.0,9300.0,13,R,5106258,5106506,250,380.5,425.7,3905,left
48,1,binary,13,1,trial,5098439.0,5107739.0,9300.0,13,R,5106706,5106862,158,366.3,460.8,3945,left
48,1,binary,13,1,trial,5098439.0,5107739.0,9300.0,13,R,5106876,5107972,1098,333.5,478.8,4313,left
48,1,binary,14,2,trial,5108473.0,5112173.0,3700.0,14,R,5108184,5108496,314,1259.0,447.0,4644,right
48,1,binary,14,2,trial,5108473.0,5112173.0,3700.0,14,R,5108534,5108660,128,898.4,505.3,4949,NA
48,1,binary,14,2,trial,5108473.0,5112173.0,3700.0,14,R,5108710,5108870,162,457.3,528.2,5082,left
48,1,binary,14,2,trial,5108473.0,5112173.0,3700.0,14,R,5108894,5109060,168,400.3,451.5,4917,left
48,1,binary,14,2,trial,5108473.0,5112173.0,3700.0,14,R,5109070,5109202,134,380.6,437.2,4603,left
48,1,binary,14,2,trial,5108473.0,5112173.0,3700.0,14,R,5109268,5109480,214,1491.9,597.1,4166,right
48,1,binary,14,2,trial,5108473.0,5112173.0,3700.0,14,R,5109494,5109798,306,1455.8,588.3,4087,right
48,1,binary,14,2,trial,5108473.0,5112173.0,3700.0,14,R,5109818,5110086,270,1456.2,529.0,4155,right
48,1,binary,14,2,trial,5108473.0,5112173.0,3700.0,14,R,5110158,5110326,170,423.4,475.2,4209,left
48,1,binary,14,2,trial,5108473.0,5112173.0,3700.0,14,R,5110342,5110652,312,393.2,428.1,4125,left
48,1,binary,14,2,trial,5108473.0,5112173.0,3700.0,14,R,5110676,5111068,394,516.8,450.1,3901,left
48,1,binary,14,2,trial,5108473.0,5112173.0,3700.0,14,R,5111134,5111280,148,1503.9,526.5,3823,right
48,1,binary,14,2,trial,5108473.0,5112173.0,3700.0,14,R,5111296,5112090,796,1453.2,563.2,3860,right
48,1,binary,14,2,postResponse,5108473.0,5112173.0,3700.0,14,R,5112254,5112504,252,1472.6,562.0,4021,right
48,1,binary,15,2,trial,5112840.0,5116189.0,3349.0,15,R,5112578,5112868,292,512.0,426.1,4596,left
48,1,binary,15,2,trial,5112840.0,5116189.0,3349.0,15,R,5112906,5113032,128,981.1,521.0,4841,NA
48,1,binary,15,2,trial,5112840.0,5116189.0,3349.0,15,R,5113084,5113262,180,509.5,542.4,4814,left
48,1,binary,15,2,trial,5112840.0,5116189.0,3349.0,15,R,5113322,5113506,186,1522.6,520.7,4431,right
48,1,binary,15,2,trial,5112840.0,5116189.0,3349.0,15,R,5113524,5113764,242,1575.3,503.1,4303,right
48,1,binary,15,2,trial,5112840.0,5116189.0,3349.0,15,R,5113912,5114310,400,465.0,517.7,4687,left
48,1,binary,15,2,trial,5112840.0,5116189.0,3349.0,15,R,5114324,5114568,246,475.5,556.0,4549,left
48,1,binary,15,2,trial,5112840.0,5116189.0,3349.0,15,R,5114582,5114758,178,442.1,570.3,4214,left
48,1,binary,15,2,trial,5112840.0,5116189.0,3349.0,15,R,5114926,5115140,216,1502.6,516.3,3970,right
48,1,binary,15,2,trial,5112840.0,5116189.0,3349.0,15,R,5115162,5115600,440,1584.1,501.6,4256,right
48,1,binary,15,2,trial,5112840.0,5116189.0,3349.0,15,R,5115622,5115756,136,1463.9,501.5,4300,right
48,1,binary,15,2,trial,5112840.0,5116189.0,3349.0,15,R,5115780,5115972,194,1459.5,499.6,4435,right
48,1,binary,15,2,trial,5112840.0,5116189.0,3349.0,15,R,5116010,5116386,378,1570.6,506.1,4721,right
48,1,binary,16,1,trial,5116872.0,5119890.0,3018.0,16,R,5116612,5116938,328,681.3,432.9,5260,left
48,1,binary,16,1,trial,5116872.0,5119890.0,3018.0,16,R,5116972,5117118,148,926.5,511.5,5416,NA
48,1,binary,16,1,trial,5116872.0,5119890.0,3018.0,16,R,5117168,5117444,278,468.9,538.7,5066,left
48,1,binary,16,1,trial,5116872.0,5119890.0,3018.0,16,R,5117504,5117714,212,1407.1,500.5,4337,right
48,1,binary,16,1,trial,5116872.0,5119890.0,3018.0,16,R,5117732,5117814,84,1474.0,473.4,4097,right
48,1,binary,16,1,trial,5116872.0,5119890.0,3018.0,16,R,5117946,5118046,102,1648.7,501.9,3856,right
48,1,binary,16,1,trial,5116872.0,5119890.0,3018.0,16,R,5118080,5118334,256,1651.6,501.2,3717,right
48,1,binary,16,1,trial,5116872.0,5119890.0,3018.0,16,R,5118508,5118792,286,492.9,549.3,3761,left
48,1,binary,16,1,trial,5116872.0,5119890.0,3018.0,16,R,5118820,5119182,364,533.0,690.2,3930,left
48,1,binary,16,1,trial,5116872.0,5119890.0,3018.0,16,R,5119356,5119424,70,1361.4,750.8,3640,NA
48,1,binary,16,1,trial,5116872.0,5119890.0,3018.0,16,R,5119482,5119750,270,602.5,937.9,3715,NA
48,1,binary,16,1,trial,5116872.0,5119890.0,3018.0,16,R,5119804,5120110,308,494.2,530.4,4198,left
48,1,binary,17,1,trial,5120589.0,5128623.0,8034.0,17,R,5120324,5120750,428,1016.5,431.6,4385,NA
48,1,binary,17,1,trial,5120589.0,5128623.0,8034.0,17,R,5120794,5121014,222,506.8,537.2,4885,left
48,1,binary,17,1,trial,5120589.0,5128623.0,8034.0,17,R,5121032,5121078,48,473.3,552.0,4780,left
48,1,binary,17,1,trial,5120589.0,5128623.0,8034.0,17,R,5121138,5121456,320,1447.3,568.0,4330,right
48,1,binary,17,1,trial,5120589.0,5128623.0,8034.0,17,R,5121482,5121646,166,1286.5,536.9,4144,right
48,1,binary,17,1,trial,5120589.0,5128623.0,8034.0,17,R,5121790,5121896,108,1625.2,523.7,4137,right
48,1,binary,17,1,trial,5120589.0,5128623.0,8034.0,17,R,5121968,5122218,252,406.9,584.8,4575,left
48,1,binary,17,1,trial,5120589.0,5128623.0,8034.0,17,R,5122240,5122454,216,488.1,574.3,4553,left
48,1,binary,17,1,trial,5120589.0,5128623.0,8034.0,17,R,5122472,5122652,182,441.0,577.7,4370,left
48,1,binary,17,1,trial,5120589.0,5128623.0,8034.0,17,R,5122820,5123488,670,481.0,563.0,4714,left
48,1,binary,17,1,trial,5120589.0,5128623.0,8034.0,17,R,5123508,5123662,156,411.8,575.1,4861,left
48,1,binary,17,1,trial,5120589.0,5128623.0,8034.0,17,R,5123818,5124092,276,433.2,569.9,4854,left
48,1,binary,17,1,trial,5120589.0,5128623.0,8034.0,17,R,5124290,5124514,226,464.4,587.6,5138,left
48,1,binary,17,1,trial,5120589.0,5128623.0,8034.0,17,R,5124692,5124796,106,441.3,804.1,5309,NA
48,1,binary,17,1,trial,5120589.0,5128623.0,8034.0,17,R,5124840,5125210,372,465.3,561.8,5136,left
48,1,binary,17,1,trial,5120589.0,5128623.0,8034.0,17,R,5125232,5125360,130,544.8,554.3,4606,left
48,1,binary,17,1,trial,5120589.0,5128623.0,8034.0,17,R,5125424,5125916,494,1451.8,586.3,4234,right
48,1,binary,17,1,trial,5120589.0,5128623.0,8034.0,17,R,5125942,5125970,30,1446.9,590.0,4398,right
48,1,binary,17,1,trial,5120589.0,5128623.0,8034.0,17,R,5125994,5126986,994,1583.0,565.7,4665,right
48,1,binary,17,1,trial,5120589.0,5128623.0,8034.0,17,R,5127076,5127456,382,414.9,563.7,5145,left
48,1,binary,17,1,trial,5120589.0,5128623.0,8034.0,17,R,5127476,5128046,572,481.9,567.9,4934,left
48,1,binary,17,1,trial,5120589.0,5128623.0,8034.0,17,R,5128064,5128282,220,424.5,569.5,4807,left
48,1,binary,17,1,trial,5120589.0,5128623.0,8034.0,17,R,5128294,5128836,544,389.4,557.8,4665,left
48,1,binary,18,1,fixationCross,5129406.0,5137089.0,7683.0,18,R,5129070,5129198,130,1315.2,460.1,4810,right
48,1,binary,18,1,trial,5129406.0,5137089.0,7683.0,18,R,5129272,5129454,184,523.7,499.5,5164,left
48,1,binary,18,1,trial,5129406.0,5137089.0,7683.0,18,R,5129494,5129640,148,920.1,523.3,5379,NA
48,1,binary,18,1,trial,5129406.0,5137089.0,7683.0,18,R,5129690,5129988,300,468.2,568.4,5190,left
48,1,binary,18,1,trial,5129406.0,5137089.0,7683.0,18,R,5130014,5130142,130,651.4,504.9,4708,left
48,1,binary,18,1,trial,5129406.0,5137089.0,7683.0,18,R,5130200,5130476,278,1484.4,504.7,4284,right
48,1,binary,18,1,trial,5129406.0,5137089.0,7683.0,18,R,5130494,5130650,158,1442.7,458.0,4076,right
48,1,binary,18,1,trial,5129406.0,5137089.0,7683.0,18,R,5130664,5131002,340,1478.8,479.3,3917,right
48,1,binary,18,1,trial,5129406.0,5137089.0,7683.0,18,R,5131030,5131482,454,1474.2,656.1,4052,right
48,1,binary,18,1,trial,5129406.0,5137089.0,7683.0,18,R,5131498,5131664,168,1430.8,624.7,3941,right
48,1,binary,18,1,trial,5129406.0,5137089.0,7683.0,18,R,5131728,5131896,170,474.8,515.3,3809,left
48,1,binary,18,1,trial,5129406.0,5137089.0,7683.0,18,R,5131908,5132418,512,432.2,550.7,3764,left
48,1,binary,18,1,trial,5129406.0,5137089.0,7683.0,18,R,5132448,5132606,160,319.6,460.2,3894,left
48,1,binary,18,1,trial,5129406.0,5137089.0,7683.0,18,R,5132624,5132874,252,240.6,439.3,3912,left
48,1,binary,18,1,trial,5129406.0,5137089.0,7683.0,18,R,5132910,5133098,190,557.1,464.2,3995,left
48,1,binary,18,1,trial,5129406.0,5137089.0,7683.0,18,R,5133114,5133972,860,618.1,483.5,4249,left
48,1,binary,18,1,trial,5129406.0,5137089.0,7683.0,18,R,5134004,5134532,530,444.3,580.7,4291,left
48,1,binary,18,1,trial,5129406.0,5137089.0,7683.0,18,R,5134558,5134906,350,584.3,503.0,4159,left
48,1,binary,18,1,trial,5129406.0,5137089.0,7683.0,18,R,5134930,5135186,258,464.8,577.2,4154,left
48,1,binary,18,1,trial,5129406.0,5137089.0,7683.0,18,R,5135218,5135604,388,255.1,474.3,4228,left
48,1,binary,18,1,trial,5129406.0,5137089.0,7683.0,18,R,5135682,5135904,224,1419.0,547.5,4229,right
48,1,binary,18,1,trial,5129406.0,5137089.0,7683.0,18,R,5136080,5136262,184,475.6,543.9,4146,left
48,1,binary,18,1,trial,5129406.0,5137089.0,7683.0,18,R,5136326,5136546,222,1485.2,519.0,4205,right
48,1,binary,18,1,trial,5129406.0,5137089.0,7683.0,18,R,5136558,5136928,372,1458.0,497.7,4079,right
48,1,binary,18,1,postResponse,5129406.0,5137089.0,7683.0,18,R,5136992,5137434,444,527.0,520.3,3961,left
48,1,binary,19,1,trial,5137773.0,5141639.0,3866.0,19,R,5137630,5137900,272,984.1,458.2,4407,NA
48,1,binary,19,1,trial,5137773.0,5141639.0,3866.0,19,R,5137952,5138112,162,478.5,533.7,4765,left
48,1,binary,19,1,trial,5137773.0,5141639.0,3866.0,19,R,5138138,5138248,112,354.9,577.9,4696,left
48,1,binary,19,1,trial,5137773.0,5141639.0,3866.0,19,R,5138312,5138616,306,1503.7,549.6,4304,right
48,1,binary,19,1,trial,5137773.0,5141639.0,3866.0,19,R,5138640,5138758,120,1458.8,497.4,4144,right
48,1,binary,19,1,trial,5137773.0,5141639.0,3866.0,19,R,5138786,5139126,342,1223.0,485.4,4039,right
48,1,binary,19,1,trial,5137773.0,5141639.0,3866.0,19,R,5139190,5139470,282,322.9,591.3,4311,left
48,1,binary,19,1,trial,5137773.0,5141639.0,3866.0,19,R,5139484,5139752,270,334.1,631.0,4368,left
48,1,binary,19,1,trial,5137773.0,5141639.0,3866.0,19,R,5139894,5140142,250,1530.3,548.4,4069,right
48,1,binary,19,1,trial,5137773.0,5141639.0,3866.0,19,R,5140166,5140360,196,1404.4,474.2,4240,right
48,1,binary,19,1,trial,5137773.0,5141639.0,3866.0,19,R,5140384,5140626,244,1234.1,467.0,4418,right
48,1,binary,19,1,trial,5137773.0,5141639.0,3866.0,19,R,5140662,5140918,258,1469.9,507.6,4395,right
48,1,binary,19,1,trial,5137773.0,5141639.0,3866.0,19,R,5140984,5141264,282,940.5,907.3,4442,likertHorizontal
48,1,binary,19,1,trial,5137773.0,5141639.0,3866.0,19,R,5141308,5141428,122,433.6,963.9,4469,NA
48,1,binary,19,1,trial,5137773.0,5141639.0,3866.0,19,R,5141478,5141836,360,432.0,546.4,4675,left
48,1,binary,20,1,trial,5142340.0,5145323.0,2983.0,20,R,5142060,5142508,450,968.4,491.0,4955,NA
48,1,binary,20,1,trial,5142340.0,5145323.0,2983.0,20,R,5142554,5142822,270,431.4,562.6,5061,left
48,1,binary,20,1,trial,5142340.0,5145323.0,2983.0,20,R,5142886,5143116,232,1461.3,501.8,4299,right
48,1,binary,20,1,trial,5142340.0,5145323.0,2983.0,20,R,5143138,5143418,282,1572.0,468.2,3889,right
48,1,binary,20,1,trial,5142340.0,5145323.0,2983.0,20,R,5143456,5143642,188,1417.3,627.2,4080,right
48,1,binary,20,1,trial,5142340.0,5145323.0,2983.0,20,R,5143790,5143946,158,1474.4,605.0,4410,right
48,1,binary,20,1,trial,5142340.0,5145323.0,2983.0,20,R,5143970,5144198,230,1442.4,480.5,4589,right
48,1,binary,20,1,trial,5142340.0,5145323.0,2983.0,20,R,5144272,5144510,240,398.9,614.6,4545,left
48,1,binary,20,1,trial,5142340.0,5145323.0,2983.0,20,R,5144528,5144714,188,473.7,601.7,4305,left
48,1,binary,20,1,trial,5142340.0,5145323.0,2983.0,20,R,5144734,5145208,476,417.9,535.6,3767,left
48,1,binary,20,1,trial,5142340.0,5145323.0,2983.0,20,R,5145232,5145554,324,401.4,435.2,3531,left
48,1,binary,21,2,trial,5146040.0,5149540.0,3500.0,21,R,5145770,5146090,322,1107.3,465.0,3890,NA
48,1,binary,21,2,trial,5146040.0,5149540.0,3500.0,21,R,5146120,5146232,114,866.3,510.9,4437,NA
48,1,binary,21,2,trial,5146040.0,5149540.0,3500.0,21,R,5146268,5146420,154,556.2,561.7,4718,left
48,1,binary,21,2,trial,5146040.0,5149540.0,3500.0,21,R,5146446,5146778,334,444.8,588.9,4504,left
48,1,binary,21,2,trial,5146040.0,5149540.0,3500.0,21,R,5146800,5146944,146,548.2,536.5,4106,left
48,1,binary,21,2,trial,5146040.0,5149540.0,3500.0,21,R,5147008,5147262,256,1523.3,518.8,3828,right
48,1,binary,21,2,trial,5146040.0,5149540.0,3500.0,21,R,5147280,5147560,282,1437.2,505.6,3843,right
48,1,binary,21,2,trial,5146040.0,5149540.0,3500.0,21,R,5147582,5147804,224,1540.3,587.0,3934,right
48,1,binary,21,2,trial,5146040.0,5149540.0,3500.0,21,R,5147872,5148182,312,498.8,633.4,4319,left
48,1,binary,21,2,trial,5146040.0,5149540.0,3500.0,21,R,5148252,5148622,372,1567.4,568.7,4195,right
48,1,binary,21,2,trial,5146040.0,5149540.0,3500.0,21,R,5148812,5149076,266,468.7,614.1,4529,left
48,1,binary,21,2,postResponse,5146040.0,5149540.0,3500.0,21,R,5149096,5149886,792,420.9,624.3,4597,left
48,1,binary,22,1,fixationCross,5150223.0,5157206.0,6983.0,22,R,5149960,5150048,90,428.2,628.9,4543,left
48,1,binary,22,1,trial,5150223.0,5157206.0,6983.0,22,R,5150176,5150390,216,978.2,521.8,4726,NA
48,1,binary,22,1,trial,5150223.0,5157206.0,6983.0,22,R,5150436,5150694,260,437.5,573.6,5054,left
48,1,binary,22,1,trial,5150223.0,5157206.0,6983.0,22,R,5150760,5150900,142,1415.0,502.9,5006,right
48,1,binary,22,1,trial,5150223.0,5157206.0,6983.0,22,R,5150920,5151252,334,1376.9,464.7,4659,right
48,1,binary,22,1,trial,5150223.0,5157206.0,6983.0,22,R,5151314,5151548,236,459.2,606.0,4587,left
48,1,binary,22,1,trial,5150223.0,5157206.0,6983.0,22,R,5151560,5152784,1226,463.8,571.6,4958,left
48,1,binary,22,1,trial,5150223.0,5157206.0,6983.0,22,R,5152794,5152942,150,445.1,566.0,5135,left
48,1,binary,22,1,trial,5150223.0,5157206.0,6983.0,22,R,5153094,5153260,168,446.9,555.6,5065,left
48,1,binary,22,1,trial,5150223.0,5157206.0,6983.0,22,R,5153272,5153426,156,482.4,557.3,5195,left
48,1,binary,22,1,trial,5150223.0,5157206.0,6983.0,22,R,5153434,5154246,814,473.1,559.6,5191,left
48,1,binary,22,1,trial,5150223.0,5157206.0,6983.0,22,R,5154260,5154422,164,417.8,567.8,4582,left
48,1,binary,22,1,trial,5150223.0,5157206.0,6983.0,22,R,5154440,5154554,116,472.9,561.4,4462,left
48,1,binary,22,1,trial,5150223.0,5157206.0,6983.0,22,R,5154616,5154776,162,1340.8,484.7,4305,right
48,1,binary,22,1,trial,5150223.0,5157206.0,6983.0,22,R,5154792,5155148,358,1378.5,477.0,4291,right
48,1,binary,22,1,trial,5150223.0,5157206.0,6983.0,22,R,5155186,5155472,288,1596.1,615.5,4199,right
48,1,binary,22,1,trial,5150223.0,5157206.0,6983.0,22,R,5155562,5155680,120,1594.7,608.2,4079,right
48,1,binary,22,1,trial,5150223.0,5157206.0,6983.0,22,R,5155756,5155940,186,471.9,602.3,4066,left
48,1,binary,22,1,trial,5150223.0,5157206.0,6983.0,22,R,5155950,5156960,1012,443.5,549.3,3802,left
48,1,binary,22,1,trial,5150223.0,5157206.0,6983.0,22,R,5156994,5157196,204,439.3,743.6,3644,NA
48,1,binary,22,1,trial,5150223.0,5157206.0,6983.0,22,R,5157282,5157304,24,1410.2,557.5,3790,right
48,1,binary,23,1,fixationCross,5157906.0,5163207.0,5301.0,23,R,5157640,5157862,224,944.8,391.2,4276,NA
48,1,binary,23,1,trial,5157906.0,5163207.0,5301.0,23,R,5157902,5158110,210,663.3,499.6,4521,left
48,1,binary,23,1,trial,5157906.0,5163207.0,5301.0,23,R,5158142,5158500,360,443.4,569.1,4381,left
48,1,binary,23,1,trial,5157906.0,5163207.0,5301.0,23,R,5158516,5158634,120,412.2,603.9,4047,left
48,1,binary,23,1,trial,5157906.0,5163207.0,5301.0,23,R,5158650,5158782,134,453.2,635.3,3934,left
48,1,binary,23,1,trial,5157906.0,5163207.0,5301.0,23,R,5158844,5159006,164,1410.6,621.4,3953,right
48,1,binary,23,1,trial,5157906.0,5163207.0,5301.0,23,R,5159136,5159432,298,1374.9,577.6,4432,right
48,1,binary,23,1,trial,5157906.0,5163207.0,5301.0,23,R,5159496,5159732,238,486.6,609.5,4823,left
48,1,binary,23,1,trial,5157906.0,5163207.0,5301.0,23,R,5159750,5160154,406,452.4,635.9,4592,left
48,1,binary,23,1,trial,5157906.0,5163207.0,5301.0,23,R,5160350,5160620,272,510.5,598.3,4554,left
48,1,binary,23,1,trial,5157906.0,5163207.0,5301.0,23,R,5160666,5160846,182,452.4,965.4,4879,NA
48,1,binary,23,1,trial,5157906.0,5163207.0,5301.0,23,R,5160898,5161142,246,466.1,621.8,5018,left
48,1,binary,23,1,trial,5157906.0,5163207.0,5301.0,23,R,5161154,5161240,88,443.2,639.6,5018,left
48,1,binary,23,1,trial,5157906.0,5163207.0,5301.0,23,R,5161410,5161876,468,453.5,635.9,5117,left
48,1,binary,23,1,trial,5157906.0,5163207.0,5301.0,23,R,5161914,5162156,244,524.3,508.4,5136,left
48,1,binary,23,1,trial,5157906.0,5163207.0,5301.0,23,R,5162222,5162484,264,1467.2,588.7,4594,right
48,1,binary,23,1,trial,5157906.0,5163207.0,5301.0,23,R,5162654,5162778,126,1359.7,554.6,4538,right
48,1,binary,23,1,trial,5157906.0,5163207.0,5301.0,23,R,5162838,5163094,258,573.0,603.4,5026,left
48,1,binary,23,1,trial,5157906.0,5163207.0,5301.0,23,R,5163118,5163382,266,478.7,630.2,5241,left
48,1,binary,24,2,trial,5163907.0,5166690.0,2783.0,24,R,5163624,5164034,412,943.7,524.1,5212,NA
48,1,binary,24,2,trial,5163907.0,5166690.0,2783.0,24,R,5164078,5164222,146,470.8,579.0,5502,left
48,1,binary,24,2,trial,5163907.0,5166690.0,2783.0,24,R,5164246,5164456,212,361.2,536.6,5249,left
48,1,binary,24,2,trial,5163907.0,5166690.0,2783.0,24,R,5164520,5164762,244,1370.9,580.2,4461,right
48,1,binary,24,2,trial,5163907.0,5166690.0,2783.0,24,R,5164780,5165114,336,1306.0,578.7,4389,right
48,1,binary,24,2,trial,5163907.0,5166690.0,2783.0,24,R,5165130,5165230,102,1371.6,580.4,4453,right
48,1,binary,24,2,trial,5163907.0,5166690.0,2783.0,24,R,5165380,5165710,332,382.3,584.5,4472,left
48,1,binary,24,2,trial,5163907.0,5166690.0,2783.0,24,R,5165726,5165960,236,356.6,542.9,4479,left
48,1,binary,24,2,trial,5163907.0,5166690.0,2783.0,24,R,5166026,5166250,226,1408.8,641.3,4215,right
48,1,binary,24,2,trial,5163907.0,5166690.0,2783.0,24,R,5166276,5166626,352,1392.9,552.5,4167,right
48,1,binary,24,2,trial,5163907.0,5166690.0,2783.0,24,R,5166648,5166674,28,1395.7,550.8,4091,right
48,1,binary,24,2,trial,5163907.0,5166690.0,2783.0,24,R,5166696,5166730,36,1393.0,550.8,4083,right
48,1,binary,24,2,trial,5163907.0,5166690.0,2783.0,24,R,5166754,5166926,174,1388.5,557.6,4121,right
48,1,binary,25,1,trial,5167373.0,5173540.0,6167.0,25,R,5167112,5167600,490,516.3,518.2,4823,left
48,1,binary,25,1,trial,5167373.0,5173540.0,6167.0,25,R,5167616,5167792,178,513.4,556.4,5072,left
48,1,binary,25,1,trial,5167373.0,5173540.0,6167.0,25,R,5167812,5168130,320,440.1,510.3,4647,left
48,1,binary,25,1,trial,5167373.0,5173540.0,6167.0,25,R,5168538,5168750,214,1409.1,497.1,3884,right
48,1,binary,25,1,trial,5167373.0,5173540.0,6167.0,25,R,5168986,5169396,412,1446.6,465.1,3498,right
48,1,binary,25,1,trial,5167373.0,5173540.0,6167.0,25,R,5169472,5169906,436,395.3,548.2,3748,left
48,1,binary,25,1,trial,5167373.0,5173540.0,6167.0,25,R,5169926,5170232,308,330.1,508.4,4051,left
48,1,binary,25,1,trial,5167373.0,5173540.0,6167.0,25,R,5170256,5171708,1454,444.2,580.6,4504,left
48,1,binary,25,1,trial,5167373.0,5173540.0,6167.0,25,R,5171730,5171996,268,381.0,510.0,4539,left
48,1,binary,25,1,trial,5167373.0,5173540.0,6167.0,25,R,5172008,5172174,168,351.0,488.5,4356,left
48,1,binary,25,1,trial,5167373.0,5173540.0,6167.0,25,R,5172190,5172658,470,396.6,471.5,4172,left
48,1,binary,25,1,trial,5167373.0,5173540.0,6167.0,25,R,5172684,5173480,798,509.3,583.1,4126,left
48,1,binary,25,1,trial,5167373.0,5173540.0,6167.0,25,R,5173502,5173590,90,525.3,595.6,3989,left
48,1,binary,25,1,trial,5167373.0,5173540.0,6167.0,25,R,5173620,5173728,110,526.1,602.0,4009,left
48,1,binary,26,2,fixationCross,5206740.0,5214258.0,7518.0,26,R,5206457,5206615,160,55.9,126.8,4219,NA
48,1,binary,26,2,trial,5206740.0,5214258.0,7518.0,26,R,5206763,5206803,42,1271.8,406.0,4446,right
48,1,binary,26,2,trial,5206740.0,5214258.0,7518.0,26,R,5206987,5207251,266,439.6,522.0,5002,left
48,1,binary,26,2,trial,5206740.0,5214258.0,7518.0,26,R,5207273,5207433,162,559.3,557.0,5078,left
48,1,binary,26,2,trial,5206740.0,5214258.0,7518.0,26,R,5207485,5207605,122,444.8,942.8,5057,NA
48,1,binary,26,2,trial,5206740.0,5214258.0,7518.0,26,R,5207683,5207721,40,980.5,992.7,4977,likertHorizontal
48,1,binary,26,2,trial,5206740.0,5214258.0,7518.0,26,R,5207763,5207843,82,982.7,994.4,4960,likertHorizontal
48,1,binary,26,2,trial,5206740.0,5214258.0,7518.0,26,R,5207883,5207945,64,983.7,997.9,4992,likertHorizontal
48,1,binary,26,2,trial,5206740.0,5214258.0,7518.0,26,R,5208147,5208549,404,428.7,563.2,5280,left
48,1,binary,26,2,trial,5206740.0,5214258.0,7518.0,26,R,5208567,5208769,204,365.4,522.8,5193,left
48,1,binary,26,2,trial,5206740.0,5214258.0,7518.0,26,R,5208795,5208949,156,547.8,575.0,4982,left
48,1,binary,26,2,trial,5206740.0,5214258.0,7518.0,26,R,5208961,5209171,212,514.6,584.5,4772,left
48,1,binary,26,2,trial,5206740.0,5214258.0,7518.0,26,R,5209189,5209605,418,416.5,561.4,4292,left
48,1,binary,26,2,trial,5206740.0,5214258.0,7518.0,26,R,5209675,5209983,310,1412.6,564.6,4004,right
48,1,binary,26,2,trial,5206740.0,5214258.0,7518.0,26,R,5209997,5210119,124,1441.3,530.5,4007,right
48,1,binary,26,2,trial,5206740.0,5214258.0,7518.0,26,R,5210369,5210425,58,1454.3,508.3,4061,right
48,1,binary,26,2,trial,5206740.0,5214258.0,7518.0,26,R,5210661,5210909,250,363.3,506.9,4164,left
48,1,binary,26,2,trial,5206740.0,5214258.0,7518.0,26,R,5210927,5211107,182,430.8,539.9,4232,left
48,1,binary,26,2,trial,5206740.0,5214258.0,7518.0,26,R,5211119,5211315,198,407.4,554.5,4180,left
48,1,binary,26,2,trial,5206740.0,5214258.0,7518.0,26,R,5211341,5211399,60,408.1,560.1,4228,left
48,1,binary,26,2,trial,5206740.0,5214258.0,7518.0,26,R,5211425,5211581,158,409.4,563.0,4369,left
48,1,binary,26,2,trial,5206740.0,5214258.0,7518.0,26,R,5211605,5211639,36,414.0,567.4,4483,left
48,1,binary,26,2,trial,5206740.0,5214258.0,7518.0,26,R,5211661,5211681,22,509.3,573.5,4519,left
48,1,binary,26,2,trial,5206740.0,5214258.0,7518.0,26,R,5211749,5211957,210,512.6,574.3,4420,left
48,1,binary,26,2,trial,5206740.0,5214258.0,7518.0,26,R,5211981,5212097,118,501.9,575.7,4210,left
48,1,binary,26,2,trial,5206740.0,5214258.0,7518.0,26,R,5212299,5212515,218,1500.3,566.5,3792,right
48,1,binary,26,2,trial,5206740.0,5214258.0,7518.0,26,R,5212537,5212813,278,1397.9,529.0,3997,right
48,1,binary,26,2,trial,5206740.0,5214258.0,7518.0,26,R,5212879,5213043,166,436.3,457.0,4025,left
48,1,binary,26,2,trial,5206740.0,5214258.0,7518.0,26,R,5213065,5213263,200,324.4,484.5,3928,left
48,1,binary,26,2,trial,5206740.0,5214258.0,7518.0,26,R,5213333,5213539,208,1462.8,548.6,3715,right
48,1,binary,26,2,trial,5206740.0,5214258.0,7518.0,26,R,5213589,5213707,120,1342.7,883.5,3834,NA
48,1,binary,26,2,trial,5206740.0,5214258.0,7518.0,26,R,5213929,5214167,240,1375.8,507.7,4268,right
48,1,binary,26,2,trial,5206740.0,5214258.0,7518.0,26,R,5214183,5214253,72,1434.6,523.3,4335,right
48,1,binary,26,2,trial,5206740.0,5214258.0,7518.0,26,R,5214275,5214491,218,1434.9,525.4,4389,right
48,1,binary,27,2,trial,5214941.0,5217524.0,2583.0,27,R,5214677,5215111,436,701.3,498.3,4625,left
48,1,binary,27,2,trial,5214941.0,5217524.0,2583.0,27,R,5215143,5215327,186,488.5,548.3,4943,left
48,1,binary,27,2,trial,5214941.0,5217524.0,2583.0,27,R,5215629,5215717,90,1421.8,578.0,4256,right
48,1,binary,27,2,trial,5214941.0,5217524.0,2583.0,27,R,5215781,5215821,42,1499.7,604.6,4131,right
48,1,binary,27,2,trial,5214941.0,5217524.0,2583.0,27,R,5215845,5215889,46,1504.4,608.9,4028,right
48,1,binary,27,2,trial,5214941.0,5217524.0,2583.0,27,R,5216077,5216139,64,1128.1,714.0,3813,NA
48,1,binary,27,2,trial,5214941.0,5217524.0,2583.0,27,R,5216189,5216409,222,554.5,511.8,3814,left
48,1,binary,27,2,trial,5214941.0,5217524.0,2583.0,27,R,5216433,5216713,282,541.4,437.3,4151,left
48,1,binary,27,2,trial,5214941.0,5217524.0,2583.0,27,R,5216783,5216951,170,1474.8,571.3,4098,right
48,1,binary,27,2,trial,5214941.0,5217524.0,2583.0,27,R,5217125,5217811,688,1474.9,571.0,4558,right
48,1,binary,28,2,trial,5218224.0,5221174.0,2950.0,28,R,5217955,5218435,482,582.1,428.9,5191,left
48,1,binary,28,2,trial,5218224.0,5221174.0,2950.0,28,R,5218465,5218627,164,442.6,522.0,5374,left
48,1,binary,28,2,trial,5218224.0,5221174.0,2950.0,28,R,5218687,5218755,70,1424.6,609.3,5008,right
48,1,binary,28,2,trial,5218224.0,5221174.0,2950.0,28,R,5218779,5218837,60,1426.3,609.9,4808,right
48,1,binary,28,2,trial,5218224.0,5221174.0,2950.0,28,R,5218931,5218963,34,1471.2,535.9,4532,right
48,1,binary,28,2,trial,5218224.0,5221174.0,2950.0,28,R,5218987,5219021,36,1477.5,544.2,4472,right
48,1,binary,28,2,trial,5218224.0,5221174.0,2950.0,28,R,5219045,5219081,38,1482.0,547.7,4431,right
48,1,binary,28,2,trial,5218224.0,5221174.0,2950.0,28,R,5219091,5219759,670,1475.7,513.3,4384,right
48,1,binary,28,2,trial,5218224.0,5221174.0,2950.0,28,R,5219935,5219993,60,474.6,486.0,4672,left
48,1,binary,28,2,trial,5218224.0,5221174.0,2950.0,28,R,5220065,5220095,32,1606.0,558.0,4681,right
48,1,binary,28,2,trial,5218224.0,5221174.0,2950.0,28,R,5220125,5220261,138,1593.6,568.7,4713,right
48,1,binary,28,2,trial,5218224.0,5221174.0,2950.0,28,R,5220285,5220613,330,1467.8,540.4,4708,right
48,1,binary,28,2,trial,5218224.0,5221174.0,2950.0,28,R,5220623,5220769,148,1467.4,502.8,4805,right
48,1,binary,28,2,trial,5218224.0,5221174.0,2950.0,28,R,5220829,5220859,32,1472.6,499.5,4911,right
48,1,binary,28,2,trial,5218224.0,5221174.0,2950.0,28,R,5220885,5220927,44,1468.3,497.9,4940,right
48,1,binary,28,2,trial,5218224.0,5221174.0,2950.0,28,R,5220949,5221365,418,1460.8,506.2,5028,right
48,1,binary,29,2,trial,5221907.0,5224058.0,2151.0,29,R,5221631,5222097,468,731.9,438.4,5358,left
48,1,binary,29,2,trial,5221907.0,5224058.0,2151.0,29,R,5222129,5222335,208,540.4,536.0,5495,left
48,1,binary,29,2,trial,5221907.0,5224058.0,2151.0,29,R,5222389,5222589,202,1365.3,543.9,5079,right
48,1,binary,29,2,trial,5221907.0,5224058.0,2151.0,29,R,5222605,5222789,186,1397.2,598.4,5052,right
48,1,binary,29,2,trial,5221907.0,5224058.0,2151.0,29,R,5222799,5223001,204,1428.1,598.7,5018,right
48,1,binary,29,2,trial,5221907.0,5224058.0,2151.0,29,R,5223209,5223445,238,450.9,528.7,4564,left
48,1,binary,29,2,trial,5221907.0,5224058.0,2151.0,29,R,5223469,5223793,326,600.6,494.0,4479,left
48,1,binary,29,2,trial,5221907.0,5224058.0,2151.0,29,R,5223855,5224269,416,1481.2,569.4,4448,right
48,1,binary,30,2,trial,5224774.0,5227207.0,2433.0,30,R,5224481,5224779,300,968.6,528.1,4918,NA
48,1,binary,30,2,trial,5224774.0,5227207.0,2433.0,30,R,5224815,5224895,82,965.0,528.6,5294,NA
48,1,binary,30,2,trial,5224774.0,5227207.0,2433.0,30,R,5224977,5225213,238,479.3,555.7,5492,left
48,1,binary,30,2,trial,5224774.0,5227207.0,2433.0,30,R,5225313,5225591,280,1485.9,591.5,4642,right
48,1,binary,30,2,trial,5224774.0,5227207.0,2433.0,30,R,5225631,5225727,98,1521.6,602.0,4273,right
48,1,binary,30,2,trial,5224774.0,5227207.0,2433.0,30,R,5225909,5225999,92,1441.8,1001.4,4274,NA
48,1,binary,30,2,trial,5224774.0,5227207.0,2433.0,30,R,5226197,5226503,308,451.1,533.5,4572,left
48,1,binary,30,2,trial,5224774.0,5227207.0,2433.0,30,R,5226569,5227427,860,1475.3,567.4,4072,right
48,1,binary,31,2,trial,5227908.0,5230357.0,2449.0,31,R,5227625,5228057,434,719.7,453.6,4174,left
48,1,binary,31,2,trial,5227908.0,5230357.0,2449.0,31,R,5228095,5228335,242,411.5,541.2,4786,left
48,1,binary,31,2,trial,5227908.0,5230357.0,2449.0,31,R,5228493,5228643,152,1446.6,484.8,4201,right
48,1,binary,31,2,trial,5227908.0,5230357.0,2449.0,31,R,5228659,5229179,522,1458.1,437.5,4196,right
48,1,binary,31,2,trial,5227908.0,5230357.0,2449.0,31,R,5229253,5229549,298,348.9,547.2,4499,left
48,1,binary,31,2,trial,5227908.0,5230357.0,2449.0,31,R,5229569,5229851,284,426.4,527.3,4118,left
48,1,binary,31,2,trial,5227908.0,5230357.0,2449.0,31,R,5229917,5230139,224,1409.2,551.2,3587,right
48,1,binary,31,2,trial,5227908.0,5230357.0,2449.0,31,R,5230167,5230553,388,1462.3,419.7,3550,right
48,1,binary,32,1,trial,5231057.0,5234757.0,3700.0,32,R,5230773,5231229,458,767.0,433.2,4533,NA
48,1,binary,32,1,trial,5231057.0,5234757.0,3700.0,32,R,5231263,5231593,332,496.9,493.4,4750,left
48,1,binary,32,1,trial,5231057.0,5234757.0,3700.0,32,R,5231653,5231701,50,1362.8,541.8,4317,right
48,1,binary,32,1,trial,5231057.0,5234757.0,3700.0,32,R,5231733,5231825,94,1368.6,541.5,4172,right
48,1,binary,32,1,trial,5231057.0,5234757.0,3700.0,32,R,5231857,5231889,34,1372.2,544.4,4076,right
48,1,binary,32,1,trial,5231057.0,5234757.0,3700.0,32,R,5231983,5232349,368,1552.2,532.6,3888,right
48,1,binary,32,1,trial,5231057.0,5234757.0,3700.0,32,R,5232577,5233155,580,438.9,521.1,3944,left
48,1,binary,32,1,trial,5231057.0,5234757.0,3700.0,32,R,5233187,5233397,212,495.4,654.3,3831,left
48,1,binary,32,1,trial,5231057.0,5234757.0,3700.0,32,R,5233421,5233839,420,357.3,695.4,3795,left
48,1,binary,32,1,trial,5231057.0,5234757.0,3700.0,32,R,5233881,5234133,254,398.5,472.1,3683,left
48,1,binary,32,1,trial,5231057.0,5234757.0,3700.0,32,R,5234153,5234479,328,449.8,425.4,3581,left
48,1,binary,32,1,trial,5231057.0,5234757.0,3700.0,32,R,5234505,5234899,396,591.0,360.0,3585,left
48,1,binary,33,1,trial,5235441.0,5240674.0,5233.0,33,R,5235175,5235599,426,945.6,504.6,4137,NA
48,1,binary,33,1,trial,5235441.0,5240674.0,5233.0,33,R,5235643,5235829,188,479.4,529.7,4661,left
48,1,binary,33,1,trial,5235441.0,5240674.0,5233.0,33,R,5235845,5236165,322,519.5,494.1,4333,left
48,1,binary,33,1,trial,5235441.0,5240674.0,5233.0,33,R,5236229,5236477,250,1488.4,543.7,3851,right
48,1,binary,33,1,trial,5235441.0,5240674.0,5233.0,33,R,5236501,5236733,234,1355.0,517.3,3764,right
48,1,binary,33,1,trial,5235441.0,5240674.0,5233.0,33,R,5237035,5237099,66,448.3,526.9,3731,left
48,1,binary,33,1,trial,5235441.0,5240674.0,5233.0,33,R,5237163,5237351,190,366.7,627.4,3866,left
48,1,binary,33,1,trial,5235441.0,5240674.0,5233.0,33,R,5237517,5237819,304,454.4,619.1,4215,left
48,1,binary,33,1,trial,5235441.0,5240674.0,5233.0,33,R,5237887,5238163,278,1481.1,507.0,4239,right
48,1,binary,33,1,trial,5235441.0,5240674.0,5233.0,33,R,5238195,5238513,320,1551.6,445.7,4160,right
48,1,binary,33,1,trial,5235441.0,5240674.0,5233.0,33,R,5238607,5238635,30,1425.9,455.6,4027,right
48,1,binary,33,1,trial,5235441.0,5240674.0,5233.0,33,R,5238659,5238697,40,1424.0,455.7,3951,right
48,1,binary,33,1,trial,5235441.0,5240674.0,5233.0,33,R,5238765,5239001,238,503.3,481.5,3824,left
48,1,binary,33,1,trial,5235441.0,5240674.0,5233.0,33,R,5239019,5239247,230,413.2,478.1,3783,left
48,1,binary,33,1,trial,5235441.0,5240674.0,5233.0,33,R,5239279,5239495,218,281.2,569.9,3843,left
48,1,binary,33,1,trial,5235441.0,5240674.0,5233.0,33,R,5239519,5239813,296,458.7,491.2,3810,left
48,1,binary,33,1,trial,5235441.0,5240674.0,5233.0,33,R,5239837,5239989,154,469.6,590.1,3726,left
48,1,binary,33,1,trial,5235441.0,5240674.0,5233.0,33,R,5240003,5240615,614,470.3,641.1,3870,left
48,1,binary,33,1,trial,5235441.0,5240674.0,5233.0,33,R,5240639,5240877,240,536.5,571.6,3890,left
48,1,binary,34,1,fixationCross,5241391.0,5244291.0,2900.0,34,R,5241121,5241377,258,867.6,440.9,4037,NA
48,1,binary,34,1,trial,5241391.0,5244291.0,2900.0,34,R,5241415,5241577,164,634.0,471.5,4247,left
48,1,binary,34,1,trial,5241391.0,5244291.0,2900.0,34,R,5241607,5241721,116,466.7,537.3,4483,left
48,1,binary,34,1,trial,5241391.0,5244291.0,2900.0,34,R,5241735,5241869,136,525.4,543.2,4517,left
48,1,binary,34,1,trial,5241391.0,5244291.0,2900.0,34,R,5241879,5241961,84,511.7,543.1,4403,left
48,1,binary,34,1,trial,5241391.0,5244291.0,2900.0,34,R,5242017,5242307,292,1375.7,542.7,4113,right
48,1,binary,34,1,trial,5241391.0,5244291.0,2900.0,34,R,5242329,5242531,204,1492.7,564.7,3914,right
48,1,binary,34,1,trial,5241391.0,5244291.0,2900.0,34,R,5242561,5243007,448,1557.1,420.5,3767,right
48,1,binary,34,1,trial,5241391.0,5244291.0,2900.0,34,R,5243079,5243239,162,463.6,563.1,3830,left
48,1,binary,34,1,trial,5241391.0,5244291.0,2900.0,34,R,5243253,5243793,542,509.8,552.9,3857,left
48,1,binary,34,1,trial,5241391.0,5244291.0,2900.0,34,R,5243805,5244265,462,472.8,566.6,3925,left
48,1,binary,34,1,trial,5241391.0,5244291.0,2900.0,34,R,5244293,5244313,22,622.0,445.9,4085,left
48,1,binary,34,1,trial,5241391.0,5244291.0,2900.0,34,R,5244335,5244411,78,609.5,430.9,4163,left
48,1,binary,34,1,trial,5241391.0,5244291.0,2900.0,34,R,5244449,5244481,34,610.7,433.6,4190,left
48,1,binary,35,1,trial,5244974.0,5249591.0,4617.0,35,R,5244733,5245129,398,906.2,528.2,4561,NA
48,1,binary,35,1,trial,5244974.0,5249591.0,4617.0,35,R,5245167,5245309,144,502.8,546.2,4906,left
48,1,binary,35,1,trial,5244974.0,5249591.0,4617.0,35,R,5245343,5245441,100,677.1,500.7,4704,left
48,1,binary,35,1,trial,5244974.0,5249591.0,4617.0,35,R,5245497,5245849,354,1461.8,521.2,4130,right
48,1,binary,35,1,trial,5244974.0,5249591.0,4617.0,35,R,5245871,5245919,50,1460.4,521.6,3965,right
48,1,binary,35,1,trial,5244974.0,5249591.0,4617.0,35,R,5246073,5246219,148,545.2,505.7,3802,left
48,1,binary,35,1,trial,5244974.0,5249591.0,4617.0,35,R,5246235,5246587,354,601.5,483.1,3789,left
48,1,binary,35,1,trial,5244974.0,5249591.0,4617.0,35,R,5246647,5247133,488,1471.7,516.6,3713,right
48,1,binary,35,1,trial,5244974.0,5249591.0,4617.0,35,R,5247291,5247533,244,1287.2,460.4,3857,right
48,1,binary,35,1,trial,5244974.0,5249591.0,4617.0,35,R,5247589,5247773,186,558.6,506.7,4170,left
48,1,binary,35,1,trial,5244974.0,5249591.0,4617.0,35,R,5247787,5248381,596,606.2,489.8,4014,left
48,1,binary,35,1,trial,5244974.0,5249591.0,4617.0,35,R,5248443,5248877,436,1486.9,499.6,3751,right
48,1,binary,35,1,trial,5244974.0,5249591.0,4617.0,35,R,5248889,5249129,242,1457.8,519.6,3614,right
48,1,binary,35,1,trial,5244974.0,5249591.0,4617.0,35,R,5249207,5249331,126,501.4,976.8,3659,NA
48,1,binary,35,1,trial,5244974.0,5249591.0,4617.0,35,R,5249393,5249423,32,502.0,982.1,3654,NA
48,1,binary,35,1,trial,5244974.0,5249591.0,4617.0,35,R,5249459,5249483,26,456.0,993.1,3676,NA
48,1,binary,35,1,trial,5244974.0,5249591.0,4617.0,35,R,5249577,5249757,182,593.0,534.0,3832,left
48,1,binary,36,2,trial,5250290.0,5252324.0,2034.0,36,R,5250011,5250361,352,983.4,456.6,4427,NA
48,1,binary,36,2,trial,5250290.0,5252324.0,2034.0,36,R,5250385,5250477,94,919.0,524.3,4736,NA
48,1,binary,36,2,trial,5250290.0,5252324.0,2034.0,36,R,5250519,5250723,206,527.2,562.6,4894,left
48,1,binary,36,2,trial,5250290.0,5252324.0,2034.0,36,R,5250745,5250901,158,510.0,484.3,4608,left
48,1,binary,36,2,trial,5250290.0,5252324.0,2034.0,36,R,5250963,5251111,150,1479.6,451.5,4095,right
48,1,binary,36,2,trial,5250290.0,5252324.0,2034.0,36,R,5251123,5251307,186,1446.3,445.9,3863,right
48,1,binary,36,2,trial,5250290.0,5252324.0,2034.0,36,R,5251341,5251589,250,1509.8,569.7,3880,right
48,1,binary,36,2,trial,5250290.0,5252324.0,2034.0,36,R,5251631,5251669,40,1499.4,581.3,4092,right
48,1,binary,36,2,trial,5250290.0,5252324.0,2034.0,36,R,5251761,5252241,482,1471.2,601.0,4403,right
48,1,binary,36,2,trial,5250290.0,5252324.0,2034.0,36,R,5252387,5252577,192,1479.8,529.8,4648,right
48,1,binary,36,2,postResponse,5250290.0,5252324.0,2034.0,36,R,5252641,5252669,30,589.5,475.5,4920,left
48,1,binary,37,1,trial,5253040.0,5255141.0,2101.0,37,R,5252745,5253077,334,588.0,475.6,5076,left
48,1,binary,37,1,trial,5253040.0,5255141.0,2101.0,37,R,5253119,5253233,116,917.9,508.5,5231,NA
48,1,binary,37,1,trial,5253040.0,5255141.0,2101.0,37,R,5253275,5253617,344,503.2,573.9,4994,left
48,1,binary,37,1,trial,5253040.0,5255141.0,2101.0,37,R,5253631,5253793,164,537.6,570.7,4546,left
48,1,binary,37,1,trial,5253040.0,5255141.0,2101.0,37,R,5253803,5253873,72,565.4,573.8,4413,left
48,1,binary,37,1,trial,5253040.0,5255141.0,2101.0,37,R,5253895,5253955,62,564.6,573.0,4353,left
48,1,binary,37,1,trial,5253040.0,5255141.0,2101.0,37,R,5254013,5254039,28,1461.0,551.4,4216,right
48,1,binary,37,1,trial,5253040.0,5255141.0,2101.0,37,R,5254159,5254207,50,1464.8,558.3,4132,right
48,1,binary,37,1,trial,5253040.0,5255141.0,2101.0,37,R,5254437,5254751,316,505.3,573.2,4064,left
48,1,binary,37,1,trial,5253040.0,5255141.0,2101.0,37,R,5254761,5254917,158,500.8,550.8,4117,left
48,1,binary,37,1,trial,5253040.0,5255141.0,2101.0,37,R,5254969,5255333,366,470.6,998.4,4286,NA
48,1,binary,38,2,trial,5255841.0,5257391.0,1550.0,38,R,5255585,5255869,286,1251.2,487.1,4327,right
48,1,binary,38,2,trial,5255841.0,5257391.0,1550.0,38,R,5255911,5256053,144,819.6,495.4,4701,NA
48,1,binary,38,2,trial,5255841.0,5257391.0,1550.0,38,R,5256085,5256259,176,548.5,533.2,4834,left
48,1,binary,38,2,trial,5255841.0,5257391.0,1550.0,38,R,5256315,5256497,184,1411.3,533.5,4367,right
48,1,binary,38,2,trial,5255841.0,5257391.0,1550.0,38,R,5256517,5256663,148,1477.5,576.4,4078,right
48,1,binary,38,2,trial,5255841.0,5257391.0,1550.0,38,R,5256701,5256963,264,1306.7,407.2,3994,right
48,1,binary,38,2,trial,5255841.0,5257391.0,1550.0,38,R,5257027,5257047,22,1310.3,405.6,3907,right
48,1,binary,38,2,trial,5255841.0,5257391.0,1550.0,38,R,5257109,5257207,100,1548.9,741.3,3913,NA
48,1,binary,38,2,trial,5255841.0,5257391.0,1550.0,38,R,5257245,5257275,32,1542.6,743.6,3946,NA
48,1,binary,38,2,trial,5255841.0,5257391.0,1550.0,38,R,5257423,5257451,30,1510.8,633.4,4065,right
48,1,binary,38,2,postResponse,5255841.0,5257391.0,1550.0,38,R,5257537,5257711,176,857.1,547.9,4198,NA
48,1,binary,39,1,trial,5258157.0,5260441.0,2284.0,39,R,5258201,5258337,138,878.3,542.0,4593,NA
48,1,binary,39,1,trial,5258157.0,5260441.0,2284.0,39,R,5258373,5258623,252,511.2,563.1,4538,left
48,1,binary,39,1,trial,5258157.0,5260441.0,2284.0,39,R,5258637,5258763,128,554.4,566.2,4268,left
48,1,binary,39,1,trial,5258157.0,5260441.0,2284.0,39,R,5258825,5258919,96,1506.7,550.8,4021,right
48,1,binary,39,1,trial,5258157.0,5260441.0,2284.0,39,R,5259507,5259683,178,593.9,571.8,4174,left
48,1,binary,39,1,trial,5258157.0,5260441.0,2284.0,39,R,5259701,5259881,182,532.3,574.0,4315,left
48,1,binary,39,1,trial,5258157.0,5260441.0,2284.0,39,R,5259911,5260247,338,375.6,507.0,4326,left
48,1,binary,39,1,postResponse,5258157.0,5260441.0,2284.0,39,R,5260275,5260787,514,551.5,551.7,4334,left
48,1,binary,40,2,trial,5261157.0,5263074.0,1917.0,40,R,5261019,5261229,212,1172.9,447.8,4470,NA
48,1,binary,40,2,trial,5261157.0,5263074.0,1917.0,40,R,5261261,5261343,84,933.2,485.2,4684,NA
48,1,binary,40,2,trial,5261157.0,5263074.0,1917.0,40,R,5261393,5261583,192,494.7,552.3,4826,left
48,1,binary,40,2,trial,5261157.0,5263074.0,1917.0,40,R,5261609,5261657,50,487.0,546.3,4601,left
48,1,binary,40,2,trial,5261157.0,5263074.0,1917.0,40,R,5261675,5261743,70,440.5,503.3,4450,left
48,1,binary,40,2,trial,5261157.0,5263074.0,1917.0,40,R,5261811,5262119,310,1464.8,512.7,4078,right
48,1,binary,40,2,trial,5261157.0,5263074.0,1917.0,40,R,5262137,5262271,136,1407.4,562.7,3962,right
48,1,binary,40,2,trial,5261157.0,5263074.0,1917.0,40,R,5262281,5262337,58,1382.8,586.8,3945,right
48,1,binary,40,2,trial,5261157.0,5263074.0,1917.0,40,R,5262369,5262523,156,1387.5,596.0,3915,right
48,1,binary,40,2,trial,5261157.0,5263074.0,1917.0,40,R,5262681,5262967,288,1462.0,580.1,3675,right
48,1,binary,40,2,trial,5261157.0,5263074.0,1917.0,40,R,5262985,5263313,330,1397.4,588.1,3660,right
48,1,binary,41,1,trial,5263758.0,5265125.0,1367.0,41,R,5263503,5263927,426,596.9,475.4,3898,left
48,1,binary,41,1,trial,5263758.0,5265125.0,1367.0,41,R,5263955,5264111,158,432.7,513.5,4209,left
48,1,binary,41,1,trial,5263758.0,5265125.0,1367.0,41,R,5264127,5264257,132,456.1,456.0,4075,left
48,1,binary,41,1,trial,5263758.0,5265125.0,1367.0,41,R,5264319,5264647,330,1469.3,475.0,3771,right
48,1,binary,41,1,trial,5263758.0,5265125.0,1367.0,41,R,5264727,5264909,184,461.6,967.5,3954,NA
48,1,binary,41,1,trial,5263758.0,5265125.0,1367.0,41,R,5265039,5265159,122,452.2,478.6,4126,left
48,1,binary,41,1,trial,5263758.0,5265125.0,1367.0,41,R,5265185,5265307,124,459.2,485.9,4093,left
48,1,binary,42,2,fixationCross,5265858.0,5268191.0,2333.0,42,R,5265589,5265799,212,872.9,461.4,4282,NA
48,1,binary,42,2,trial,5265858.0,5268191.0,2333.0,42,R,5265829,5266025,198,871.6,468.5,4599,NA
48,1,binary,42,2,trial,5265858.0,5268191.0,2333.0,42,R,5266063,5266347,286,539.3,506.2,4687,left
48,1,binary,42,2,trial,5265858.0,5268191.0,2333.0,42,R,5266407,5266631,226,1445.7,561.9,4226,right
48,1,binary,42,2,trial,5265858.0,5268191.0,2333.0,42,R,5266801,5267085,286,1445.1,506.6,3948,right
48,1,binary,42,2,trial,5265858.0,5268191.0,2333.0,42,R,5267155,5267659,506,432.8,534.1,4159,left
48,1,binary,42,2,trial,5265858.0,5268191.0,2333.0,42,R,5267731,5268109,380,1501.0,570.8,3904,right
48,1,binary,42,2,trial,5265858.0,5268191.0,2333.0,42,R,5268217,5268287,72,1410.5,625.1,3928,right
48,1,binary,43,1,trial,5268908.0,5272692.0,3784.0,43,R,5268637,5268937,302,622.4,439.4,4296,left
48,1,binary,43,1,trial,5268908.0,5272692.0,3784.0,43,R,5268973,5269019,48,621.8,445.8,4585,left
48,1,binary,43,1,trial,5268908.0,5272692.0,3784.0,43,R,5269097,5269233,138,475.5,536.4,4819,left
48,1,binary,43,1,trial,5268908.0,5272692.0,3784.0,43,R,5269293,5269313,22,1428.8,573.8,4708,right
48,1,binary,43,1,trial,5268908.0,5272692.0,3784.0,43,R,5269339,5269363,26,1426.9,575.0,4617,right
48,1,binary,43,1,trial,5268908.0,5272692.0,3784.0,43,R,5269793,5269895,104,1315.6,605.5,4488,right
48,1,binary,43,1,trial,5268908.0,5272692.0,3784.0,43,R,5270067,5270407,342,470.5,574.3,4762,left
48,1,binary,43,1,trial,5268908.0,5272692.0,3784.0,43,R,5270577,5270793,218,1524.7,535.4,4164,right
48,1,binary,43,1,trial,5268908.0,5272692.0,3784.0,43,R,5270863,5271035,174,389.5,646.0,4369,left
48,1,binary,43,1,trial,5268908.0,5272692.0,3784.0,43,R,5271059,5271435,378,290.4,676.3,4578,left
48,1,binary,43,1,trial,5268908.0,5272692.0,3784.0,43,R,5271565,5271667,104,1496.1,546.2,4271,right
48,1,binary,43,1,trial,5268908.0,5272692.0,3784.0,43,R,5271803,5271951,150,1415.0,559.8,4318,right
48,1,binary,43,1,trial,5268908.0,5272692.0,3784.0,43,R,5271991,5272027,38,1409.6,561.7,4349,right
48,1,binary,43,1,trial,5268908.0,5272692.0,3784.0,43,R,5272157,5272177,22,1416.6,570.5,4428,right
48,1,binary,43,1,trial,5268908.0,5272692.0,3784.0,43,R,5272251,5272659,410,450.3,478.4,4556,left
48,1,binary,43,1,trial,5268908.0,5272692.0,3784.0,43,R,5272717,5272761,46,456.1,475.7,4451,left
48,1,binary,43,1,trial,5268908.0,5272692.0,3784.0,43,R,5272817,5272853,38,466.7,485.5,4434,left
48,1,binary,44,1,fixationCross,5273374.0,5276808.0,3434.0,44,R,5273115,5273225,112,1062.4,408.3,4410,NA
48,1,binary,44,1,fixationCross,5273374.0,5276808.0,3434.0,44,R,5273277,5273315,40,625.7,511.4,4598,left
48,1,binary,44,1,trial,5273374.0,5276808.0,3434.0,44,R,5273355,5273547,194,628.1,522.0,4802,left
48,1,binary,44,1,trial,5273374.0,5276808.0,3434.0,44,R,5273583,5273853,272,482.1,559.1,4874,left
48,1,binary,44,1,trial,5273374.0,5276808.0,3434.0,44,R,5273919,5274157,240,1453.3,539.1,4110,right
48,1,binary,44,1,trial,5273374.0,5276808.0,3434.0,44,R,5274221,5274381,162,1391.0,480.0,3754,right
48,1,binary,44,1,trial,5273374.0,5276808.0,3434.0,44,R,5274489,5274747,260,1364.5,494.7,3900,right
48,1,binary,44,1,trial,5273374.0,5276808.0,3434.0,44,R,5274813,5274835,24,1513.3,536.2,4090,right
48,1,binary,44,1,trial,5273374.0,5276808.0,3434.0,44,R,5274907,5275105,200,1521.0,539.6,4203,right
48,1,binary,44,1,trial,5273374.0,5276808.0,3434.0,44,R,5275229,5275753,526,469.4,557.6,4386,left
48,1,binary,44,1,trial,5273374.0,5276808.0,3434.0,44,R,5275775,5276067,294,578.7,578.1,3857,left
48,1,binary,44,1,trial,5273374.0,5276808.0,3434.0,44,R,5276093,5276349,258,466.3,479.2,3597,left
48,1,binary,44,1,trial,5273374.0,5276808.0,3434.0,44,R,5276383,5276449,68,451.6,476.4,3523,left
48,1,binary,44,1,trial,5273374.0,5276808.0,3434.0,44,R,5276537,5276757,222,256.9,540.1,3473,left
48,1,binary,44,1,trial,5273374.0,5276808.0,3434.0,44,R,5276895,5277075,182,1424.1,526.3,3538,right
48,1,binary,45,1,fixationCross,5277508.0,5279658.0,2150.0,45,R,5277231,5277295,66,649.8,419.6,3943,left
48,1,binary,45,1,fixationCross,5277508.0,5279658.0,2150.0,45,R,5277317,5277417,102,648.4,421.8,4102,left
48,1,binary,45,1,trial,5277508.0,5279658.0,2150.0,45,R,5277439,5277543,106,647.6,429.1,4263,left
48,1,binary,45,1,trial,5277508.0,5279658.0,2150.0,45,R,5277581,5277711,132,902.8,533.8,4424,NA
48,1,binary,45,1,trial,5277508.0,5279658.0,2150.0,45,R,5277753,5278083,332,472.4,584.3,4525,left
48,1,binary,45,1,trial,5277508.0,5279658.0,2150.0,45,R,5278193,5278349,158,1419.8,533.8,4165,right
48,1,binary,45,1,trial,5277508.0,5279658.0,2150.0,45,R,5278373,5278507,136,1524.3,500.9,4012,right
48,1,binary,45,1,trial,5277508.0,5279658.0,2150.0,45,R,5278575,5278791,218,1529.5,447.5,3849,right
48,1,binary,45,1,trial,5277508.0,5279658.0,2150.0,45,R,5278963,5279141,180,466.0,533.9,4115,left
48,1,binary,45,1,trial,5277508.0,5279658.0,2150.0,45,R,5279161,5279883,724,435.0,585.3,4353,left
48,1,binary,46,2,trial,5280342.0,5283742.0,3400.0,46,R,5280119,5280455,338,918.2,481.1,4053,NA
48,1,binary,46,2,trial,5280342.0,5283742.0,3400.0,46,R,5280499,5280673,176,475.3,547.6,4520,left
48,1,binary,46,2,trial,5280342.0,5283742.0,3400.0,46,R,5280691,5280745,56,422.6,530.4,4568,left
48,1,binary,46,2,trial,5280342.0,5283742.0,3400.0,46,R,5281085,5281449,366,1467.2,378.4,3860,right
48,1,binary,46,2,trial,5280342.0,5283742.0,3400.0,46,R,5281471,5281519,50,1433.6,471.7,3637,right
48,1,binary,46,2,trial,5280342.0,5283742.0,3400.0,46,R,5281557,5281659,104,1439.1,479.1,3528,right
48,1,binary,46,2,trial,5280342.0,5283742.0,3400.0,46,R,5281825,5281891,68,431.3,512.7,3485,left
48,1,binary,46,2,trial,5280342.0,5283742.0,3400.0,46,R,5281939,5281979,42,435.0,516.3,3449,left
48,1,binary,46,2,trial,5280342.0,5283742.0,3400.0,46,R,5282011,5282071,62,432.9,514.0,3437,left
48,1,binary,46,2,trial,5280342.0,5283742.0,3400.0,46,R,5282185,5282239,56,436.5,518.6,3522,left
48,1,binary,46,2,trial,5280342.0,5283742.0,3400.0,46,R,5282275,5282305,32,436.6,524.3,3609,left
48,1,binary,46,2,trial,5280342.0,5283742.0,3400.0,46,R,5282335,5282409,76,437.4,528.6,3710,left
48,1,binary,46,2,trial,5280342.0,5283742.0,3400.0,46,R,5282707,5282905,200,1494.4,467.9,3837,right
48,1,binary,46,2,trial,5280342.0,5283742.0,3400.0,46,R,5282927,5283437,512,1469.1,388.1,3620,right
48,1,binary,46,2,trial,5280342.0,5283742.0,3400.0,46,R,5283657,5283989,334,1518.5,577.2,3686,right
48,1,binary,47,1,trial,5284458.0,5292341.0,7883.0,47,R,5284187,5284509,324,424.2,509.6,4208,left
48,1,binary,47,1,trial,5284458.0,5292341.0,7883.0,47,R,5284553,5284745,194,896.3,515.8,4314,NA
48,1,binary,47,1,trial,5284458.0,5292341.0,7883.0,47,R,5284787,5284933,148,499.0,549.9,4186,left
48,1,binary,47,1,trial,5284458.0,5292341.0,7883.0,47,R,5285183,5285215,34,1405.1,572.7,3802,right
48,1,binary,47,1,trial,5284458.0,5292341.0,7883.0,47,R,5285345,5285457,114,1405.5,564.8,3742,right
48,1,binary,47,1,trial,5284458.0,5292341.0,7883.0,47,R,5285479,5285571,94,1403.7,571.2,3836,right
48,1,binary,47,1,trial,5284458.0,5292341.0,7883.0,47,R,5285779,5285951,174,516.5,671.2,4199,left
48,1,binary,47,1,trial,5284458.0,5292341.0,7883.0,47,R,5285973,5286169,198,421.1,742.5,4201,NA
48,1,binary,47,1,trial,5284458.0,5292341.0,7883.0,47,R,5286189,5286321,134,341.4,737.6,4152,NA
48,1,binary,47,1,trial,5284458.0,5292341.0,7883.0,47,R,5286467,5286581,116,1419.0,601.1,3948,right
48,1,binary,47,1,trial,5284458.0,5292341.0,7883.0,47,R,5286759,5287051,294,1406.3,575.7,4427,right
48,1,binary,47,1,trial,5284458.0,5292341.0,7883.0,47,R,5287121,5287469,350,448.2,741.0,4779,NA
48,1,binary,47,1,trial,5284458.0,5292341.0,7883.0,47,R,5287487,5287757,272,364.0,715.5,4374,left
48,1,binary,47,1,trial,5284458.0,5292341.0,7883.0,47,R,5288007,5288095,90,357.1,719.4,4247,left
48,1,binary,47,1,trial,5284458.0,5292341.0,7883.0,47,R,5288163,5288411,250,1412.3,562.6,4299,right
48,1,binary,47,1,trial,5284458.0,5292341.0,7883.0,47,R,5288435,5288647,214,1320.4,493.7,4162,right
48,1,binary,47,1,trial,5284458.0,5292341.0,7883.0,47,R,5288711,5288967,258,424.5,571.8,4004,left
48,1,binary,47,1,trial,5284458.0,5292341.0,7883.0,47,R,5288993,5289501,510,325.4,676.5,3987,left
48,1,binary,47,1,trial,5284458.0,5292341.0,7883.0,47,R,5289537,5289693,158,505.2,574.0,3744,left
48,1,binary,47,1,trial,5284458.0,5292341.0,7883.0,47,R,5289757,5289829,74,1426.6,539.6,3526,right
48,1,binary,47,1,trial,5284458.0,5292341.0,7883.0,47,R,5289893,5290609,718,1410.9,546.4,3483,right
48,1,binary,47,1,trial,5284458.0,5292341.0,7883.0,47,R,5290625,5291055,432,1412.4,591.8,3467,right
48,1,binary,47,1,trial,5284458.0,5292341.0,7883.0,47,R,5291069,5291455,388,1405.5,548.5,3452,right
48,1,binary,47,1,trial,5284458.0,5292341.0,7883.0,47,R,5291533,5291835,304,384.4,666.6,3710,left
48,1,binary,47,1,postResponse,5284458.0,5292341.0,7883.0,47,R,5292017,5292687,672,446.0,574.5,3914,left
48,1,binary,48,2,trial,5293025.0,5295992.0,2967.0,48,R,5292807,5293187,382,1083.5,535.1,4133,NA
48,1,binary,48,2,trial,5293025.0,5295992.0,2967.0,48,R,5293233,5293495,264,531.6,573.7,4504,left
48,1,binary,48,2,trial,5293025.0,5295992.0,2967.0,48,R,5293551,5293669,120,1365.2,515.7,4267,right
48,1,binary,48,2,trial,5293025.0,5295992.0,2967.0,48,R,5293799,5293993,196,1404.1,484.0,4034,right
48,1,binary,48,2,trial,5293025.0,5295992.0,2967.0,48,R,5294009,5294137,130,1325.4,463.6,4106,right
48,1,binary,48,2,trial,5293025.0,5295992.0,2967.0,48,R,5294199,5294571,374,525.2,550.9,4286,left
48,1,binary,48,2,trial,5293025.0,5295992.0,2967.0,48,R,5294667,5294923,258,652.4,550.0,4030,left
48,1,binary,48,2,trial,5293025.0,5295992.0,2967.0,48,R,5294951,5295015,66,459.9,612.7,4023,left
48,1,binary,48,2,trial,5293025.0,5295992.0,2967.0,48,R,5295199,5295423,226,1330.8,471.9,4224,right
48,1,binary,48,2,trial,5293025.0,5295992.0,2967.0,48,R,5296179,5296231,54,1445.3,473.2,4857,right
48,1,binary,49,2,trial,5296658.0,5311408.0,14750.0,49,R,5296449,5296817,370,733.4,392.3,5086,left
48,1,binary,49,2,trial,5296658.0,5311408.0,14750.0,49,R,5296861,5297103,244,461.0,510.5,5259,left
48,1,binary,49,2,trial,5296658.0,5311408.0,14750.0,49,R,5297127,5297259,134,435.9,603.4,5103,left
48,1,binary,49,2,trial,5296658.0,5311408.0,14750.0,49,R,5297319,5297669,352,1378.3,572.9,4775,right
48,1,binary,49,2,trial,5296658.0,5311408.0,14750.0,49,R,5297721,5297845,126,1452.1,954.0,4609,NA
48,1,binary,49,2,trial,5296658.0,5311408.0,14750.0,49,R,5297919,5298165,248,477.2,567.3,4499,left
48,1,binary,49,2,trial,5296658.0,5311408.0,14750.0,49,R,5298185,5298313,130,436.7,628.9,4431,left
48,1,binary,49,2,trial,5296658.0,5311408.0,14750.0,49,R,5298329,5298427,100,454.5,684.8,4489,left
48,1,binary,49,2,trial,5296658.0,5311408.0,14750.0,49,R,5299013,5299159,148,1469.5,457.7,4929,right
48,1,binary,49,2,trial,5296658.0,5311408.0,14750.0,49,R,5299225,5299449,226,534.1,517.9,5261,left
48,1,binary,49,2,trial,5296658.0,5311408.0,14750.0,49,R,5299483,5299531,50,416.5,620.5,5299,left
48,1,binary,49,2,trial,5296658.0,5311408.0,14750.0,49,R,5299555,5299713,160,417.0,624.7,5269,left
48,1,binary,49,2,trial,5296658.0,5311408.0,14750.0,49,R,5301301,5301661,362,436.8,538.2,5281,left
48,1,binary,49,2,trial,5296658.0,5311408.0,14750.0,49,R,5301693,5301883,192,463.1,681.8,5442,left
48,1,binary,49,2,trial,5296658.0,5311408.0,14750.0,49,R,5302049,5302313,266,526.6,510.1,5244,left
48,1,binary,49,2,trial,5296658.0,5311408.0,14750.0,49,R,5302509,5302913,406,463.2,499.5,5431,left
48,1,binary,49,2,trial,5296658.0,5311408.0,14750.0,49,R,5303115,5303963,850,434.5,494.0,5340,left
48,1,binary,49,2,trial,5296658.0,5311408.0,14750.0,49,R,5303977,5304299,324,431.7,426.9,5241,left
48,1,binary,49,2,trial,5296658.0,5311408.0,14750.0,49,R,5304337,5304429,94,463.9,636.6,5267,left
48,1,binary,49,2,trial,5296658.0,5311408.0,14750.0,49,R,5304633,5304889,258,416.9,555.6,5490,left
48,1,binary,49,2,trial,5296658.0,5311408.0,14750.0,49,R,5304913,5305595,684,478.6,463.5,5127,left
48,1,binary,49,2,trial,5296658.0,5311408.0,14750.0,49,R,5305793,5305965,174,425.9,553.3,5151,left
48,1,binary,49,2,trial,5296658.0,5311408.0,14750.0,49,R,5306173,5306501,330,416.3,525.8,5528,left
48,1,binary,49,2,trial,5296658.0,5311408.0,14750.0,49,R,5306521,5307043,524,500.0,503.5,5242,left
48,1,binary,49,2,trial,5296658.0,5311408.0,14750.0,49,R,5307113,5307519,408,1454.2,558.1,4442,right
48,1,binary,49,2,trial,5296658.0,5311408.0,14750.0,49,R,5307699,5308023,326,1453.9,878.5,4831,NA
48,1,binary,49,2,trial,5296658.0,5311408.0,14750.0,49,R,5308075,5308665,592,1424.6,549.3,5310,right
48,1,binary,49,2,trial,5296658.0,5311408.0,14750.0,49,R,5308727,5308793,68,1428.0,546.2,5300,right
48,1,binary,49,2,trial,5296658.0,5311408.0,14750.0,49,R,5308903,5309163,262,495.0,495.9,4967,left
48,1,binary,49,2,trial,5296658.0,5311408.0,14750.0,49,R,5309187,5309237,52,492.4,508.4,4791,left
48,1,binary,49,2,trial,5296658.0,5311408.0,14750.0,49,R,5309441,5310049,610,441.4,452.2,5136,left
48,1,binary,49,2,trial,5296658.0,5311408.0,14750.0,49,R,5310071,5310229,160,514.6,512.4,5319,left
48,1,binary,49,2,trial,5296658.0,5311408.0,14750.0,49,R,5310461,5310859,400,488.6,617.7,4996,left
48,1,binary,49,2,trial,5296658.0,5311408.0,14750.0,49,R,5310883,5311075,194,462.2,527.6,5169,left
48,1,binary,49,2,trial,5296658.0,5311408.0,14750.0,49,R,5311141,5311589,450,1421.3,534.2,4774,right
48,1,binary,50,2,trial,5312125.0,5319859.0,7734.0,50,R,5311855,5312359,506,569.6,452.9,5362,left
48,1,binary,50,2,trial,5312125.0,5319859.0,7734.0,50,R,5312373,5312515,144,559.4,500.8,5475,left
48,1,binary,50,2,trial,5312125.0,5319859.0,7734.0,50,R,5312547,5312701,156,323.4,514.3,5140,left
48,1,binary,50,2,trial,5312125.0,5319859.0,7734.0,50,R,5312715,5313107,394,307.5,484.9,4837,left
48,1,binary,50,2,trial,5312125.0,5319859.0,7734.0,50,R,5313133,5313389,258,525.2,536.1,4808,left
48,1,binary,50,2,trial,5312125.0,5319859.0,7734.0,50,R,5313455,5313567,114,1479.8,617.0,4690,right
