participantNo,block,task,blockTrial,response,trialStage,trialStartTime,trialFinishTime,rt,trial,eye,fixStart,fixEnd,fixLength,fixPosX,fixPosY,dilation,aoi
23,1,continuous,1,13,fixationCross,1540393.0,1544076.0,3683.0,1,R,1539431,1539891,462,875.1,391.6,5241,NA
23,1,continuous,1,13,fixationCross,1540393.0,1544076.0,3683.0,1,R,1539919,1540089,172,939.4,523.6,5340,NA
23,1,continuous,1,13,trial,1540393.0,1544076.0,3683.0,1,R,1540099,1540717,620,956.1,531.7,5510,NA
23,1,continuous,1,13,trial,1540393.0,1544076.0,3683.0,1,R,1540771,1540925,156,932.3,890.1,5346,likertHorizontal
23,1,continuous,1,13,trial,1540393.0,1544076.0,3683.0,1,R,1540977,1541145,170,1335.5,504.9,4999,right
23,1,continuous,1,13,trial,1540393.0,1544076.0,3683.0,1,R,1541167,1541341,176,1436.4,530.9,4868,right
23,1,continuous,1,13,trial,1540393.0,1544076.0,3683.0,1,R,1541451,1542033,584,510.6,428.6,4852,left
23,1,continuous,1,13,trial,1540393.0,1544076.0,3683.0,1,R,1542095,1542245,152,872.1,871.8,5118,likertHorizontal
23,1,continuous,1,13,trial,1540393.0,1544076.0,3683.0,1,R,1542299,1542497,200,1439.3,406.5,4887,right
23,1,continuous,1,13,trial,1540393.0,1544076.0,3683.0,1,R,1542569,1542757,190,804.0,867.7,5184,likertHorizontal
23,1,continuous,1,13,trial,1540393.0,1544076.0,3683.0,1,R,1542803,1543073,272,531.6,973.0,5301,NA
23,1,continuous,1,13,trial,1540393.0,1544076.0,3683.0,1,R,1543093,1543315,224,503.0,989.4,5312,NA
23,1,continuous,1,13,postResponse,1540393.0,1544076.0,3683.0,1,R,1543369,1544405,1038,505.2,471.8,5177,left
23,1,continuous,2,9,fixationCross,1545292.0,1548327.0,3035.0,2,R,1544565,1544983,420,836.4,439.0,5372,NA
23,1,continuous,2,9,trial,1545292.0,1548327.0,3035.0,2,R,1545009,1545451,444,943.7,507.6,5459,NA
23,1,continuous,2,9,trial,1545292.0,1548327.0,3035.0,2,R,1545497,1545869,374,467.0,539.1,4952,left
23,1,continuous,2,9,trial,1545292.0,1548327.0,3035.0,2,R,1545935,1546105,172,1379.3,529.5,4455,right
23,1,continuous,2,9,trial,1545292.0,1548327.0,3035.0,2,R,1546127,1546523,398,1454.6,549.5,4410,right
23,1,continuous,2,9,trial,1545292.0,1548327.0,3035.0,2,R,1546595,1546789,196,484.9,507.9,4711,left
23,1,continuous,2,9,trial,1545292.0,1548327.0,3035.0,2,R,1546805,1547265,462,457.3,548.9,4535,left
23,1,continuous,2,9,trial,1545292.0,1548327.0,3035.0,2,R,1547313,1547945,634,454.9,961.3,4588,NA
23,1,continuous,2,9,trial,1545292.0,1548327.0,3035.0,2,R,1547993,1548351,360,435.4,496.0,4829,left
23,1,continuous,2,9,trial,1545292.0,1548327.0,3035.0,2,R,1548373,1548619,248,475.5,517.0,4707,left
23,1,continuous,3,100,fixationCross,1549542.0,1552776.0,3234.0,3,R,1548785,1548815,32,804.9,492.3,4796,NA
23,1,continuous,3,100,fixationCross,1549542.0,1552776.0,3234.0,3,R,1548827,1549215,390,809.8,455.9,4994,NA
23,1,continuous,3,100,fixationCross,1549542.0,1552776.0,3234.0,3,R,1549241,1549369,130,918.8,501.4,5313,NA
23,1,continuous,3,100,trial,1549542.0,1552776.0,3234.0,3,R,1549383,1549749,368,953.9,527.8,5048,NA
23,1,continuous,3,100,trial,1549542.0,1552776.0,3234.0,3,R,1549797,1550019,224,432.6,505.0,4843,left
23,1,continuous,3,100,trial,1549542.0,1552776.0,3234.0,3,R,1550043,1550307,266,453.6,581.9,4503,left
23,1,continuous,3,100,trial,1549542.0,1552776.0,3234.0,3,R,1550375,1550729,356,1378.6,533.8,4419,right
23,1,continuous,3,100,trial,1549542.0,1552776.0,3234.0,3,R,1550751,1550973,224,1390.7,468.5,4530,right
23,1,continuous,3,100,trial,1549542.0,1552776.0,3234.0,3,R,1551043,1551245,204,447.2,566.6,4722,left
23,1,continuous,3,100,trial,1549542.0,1552776.0,3234.0,3,R,1551289,1551445,158,381.8,425.0,4558,left
23,1,continuous,3,100,trial,1549542.0,1552776.0,3234.0,3,R,1551515,1551873,360,1414.0,521.3,4469,right
23,1,continuous,3,100,trial,1549542.0,1552776.0,3234.0,3,R,1551905,1552173,270,1453.3,661.9,4642,right
23,1,continuous,3,100,trial,1549542.0,1552776.0,3234.0,3,R,1552207,1552681,476,1421.7,931.5,4668,NA
23,1,continuous,3,100,postResponse,1549542.0,1552776.0,3234.0,3,R,1552723,1553117,396,1202.8,558.7,4801,right
23,1,continuous,4,100,fixationCross,1553893.0,1556343.0,2450.0,4,R,1553217,1553245,30,1200.2,562.9,4836,right
23,1,continuous,4,100,fixationCross,1553893.0,1556343.0,2450.0,4,R,1553263,1553577,316,1116.0,545.3,5020,NA
23,1,continuous,4,100,fixationCross,1553893.0,1556343.0,2450.0,4,R,1553607,1553771,166,930.0,550.0,5141,NA
23,1,continuous,4,100,trial,1553893.0,1556343.0,2450.0,4,R,1553789,1554111,324,948.7,546.9,5126,NA
23,1,continuous,4,100,trial,1553893.0,1556343.0,2450.0,4,R,1554245,1554513,270,586.6,524.2,4920,left
23,1,continuous,4,100,trial,1553893.0,1556343.0,2450.0,4,R,1554533,1554647,116,478.4,505.2,4708,left
23,1,continuous,4,100,trial,1553893.0,1556343.0,2450.0,4,R,1554707,1554941,236,1283.6,479.7,4444,right
23,1,continuous,4,100,trial,1553893.0,1556343.0,2450.0,4,R,1554961,1555563,604,1313.3,536.7,4584,right
23,1,continuous,4,100,trial,1553893.0,1556343.0,2450.0,4,R,1555595,1555983,390,1569.9,588.1,4568,right
23,1,continuous,4,100,postResponse,1553893.0,1556343.0,2450.0,4,R,1556005,1556703,700,1546.5,528.7,4512,right
23,1,continuous,5,89,fixationCross,1557493.0,1559544.0,2051.0,5,R,1556779,1556805,28,1549.1,537.2,4573,right
23,1,continuous,5,89,fixationCross,1557493.0,1559544.0,2051.0,5,R,1556831,1557117,288,1376.6,513.7,4742,right
23,1,continuous,5,89,fixationCross,1557493.0,1559544.0,2051.0,5,R,1557271,1557489,220,941.8,520.3,5045,NA
23,1,continuous,5,89,trial,1557493.0,1559544.0,2051.0,5,R,1557499,1557707,210,958.1,508.5,5155,NA
23,1,continuous,5,89,trial,1557493.0,1559544.0,2051.0,5,R,1557761,1557985,226,582.7,425.2,5070,left
23,1,continuous,5,89,trial,1557493.0,1559544.0,2051.0,5,R,1558001,1558195,196,590.6,401.2,4663,left
23,1,continuous,5,89,trial,1557493.0,1559544.0,2051.0,5,R,1558255,1558499,246,1362.8,470.1,4424,right
23,1,continuous,5,89,trial,1557493.0,1559544.0,2051.0,5,R,1558515,1558923,410,1400.3,482.2,4371,right
23,1,continuous,5,89,trial,1557493.0,1559544.0,2051.0,5,R,1558979,1559163,186,1260.9,918.3,4418,NA
23,1,continuous,5,89,trial,1557493.0,1559544.0,2051.0,5,R,1559221,1559429,210,633.6,416.0,4606,left
23,1,continuous,5,89,postResponse,1557493.0,1559544.0,2051.0,5,R,1559443,1559883,442,601.8,444.0,4743,left
23,1,continuous,6,1,fixationCross,1560727.0,1563910.0,3183.0,6,R,1559981,1560405,426,612.9,456.2,4803,left
23,1,continuous,6,1,fixationCross,1560727.0,1563910.0,3183.0,6,R,1560447,1560661,216,893.3,548.1,4891,NA
23,1,continuous,6,1,trial,1560727.0,1563910.0,3183.0,6,R,1560685,1560981,298,948.7,552.1,4951,NA
23,1,continuous,6,1,trial,1560727.0,1563910.0,3183.0,6,R,1561019,1561225,208,1318.4,464.6,5014,right
23,1,continuous,6,1,trial,1560727.0,1563910.0,3183.0,6,R,1561343,1561517,176,1326.8,434.2,4760,right
23,1,continuous,6,1,trial,1560727.0,1563910.0,3183.0,6,R,1561583,1561889,308,407.5,482.0,4711,left
23,1,continuous,6,1,trial,1560727.0,1563910.0,3183.0,6,R,1561905,1562105,202,373.7,458.0,4433,left
23,1,continuous,6,1,trial,1560727.0,1563910.0,3183.0,6,R,1562167,1562457,292,1310.5,446.7,4287,right
23,1,continuous,6,1,trial,1560727.0,1563910.0,3183.0,6,R,1562487,1562647,162,1310.2,564.0,4392,right
23,1,continuous,6,1,trial,1560727.0,1563910.0,3183.0,6,R,1562713,1563059,348,445.9,589.6,4645,left
23,1,continuous,6,1,trial,1560727.0,1563910.0,3183.0,6,R,1563085,1563395,312,368.0,493.1,4496,left
23,1,continuous,6,1,trial,1560727.0,1563910.0,3183.0,6,R,1563457,1563705,250,500.3,972.0,4486,NA
23,1,continuous,6,1,trial,1560727.0,1563910.0,3183.0,6,R,1563719,1564175,458,461.6,970.9,4579,NA
23,1,continuous,7,50,fixationCross,1565076.0,1567960.0,2884.0,7,R,1564331,1564429,100,668.8,696.3,4884,left
23,1,continuous,7,50,fixationCross,1565076.0,1567960.0,2884.0,7,R,1564475,1564767,294,811.7,499.0,5014,NA
23,1,continuous,7,50,trial,1565076.0,1567960.0,2884.0,7,R,1564805,1565231,428,955.7,536.3,5271,NA
23,1,continuous,7,50,trial,1565076.0,1567960.0,2884.0,7,R,1565275,1565531,258,558.8,489.5,4965,left
23,1,continuous,7,50,trial,1565076.0,1567960.0,2884.0,7,R,1565557,1565851,296,421.8,541.1,4600,left
23,1,continuous,7,50,trial,1565076.0,1567960.0,2884.0,7,R,1565863,1566079,218,389.0,542.9,4542,left
23,1,continuous,7,50,trial,1565076.0,1567960.0,2884.0,7,R,1566141,1566295,156,1299.0,470.5,4605,right
23,1,continuous,7,50,trial,1565076.0,1567960.0,2884.0,7,R,1566315,1566695,382,1332.6,471.6,4634,right
23,1,continuous,7,50,trial,1565076.0,1567960.0,2884.0,7,R,1566761,1567157,398,473.3,529.3,4743,left
23,1,continuous,7,50,trial,1565076.0,1567960.0,2884.0,7,R,1567183,1567321,140,619.0,472.4,4821,left
23,1,continuous,7,50,trial,1565076.0,1567960.0,2884.0,7,R,1567385,1567571,188,946.2,954.2,4843,likertHorizontal
23,1,continuous,7,50,trial,1565076.0,1567960.0,2884.0,7,R,1567583,1567855,274,968.2,973.8,4812,likertHorizontal
23,1,continuous,7,50,postResponse,1565076.0,1567960.0,2884.0,7,R,1567905,1568295,392,1327.5,498.3,5009,right
23,1,continuous,8,1,fixationCross,1569043.0,1571693.0,2650.0,8,R,1568395,1568743,350,1323.9,500.4,5108,right
23,1,continuous,8,1,fixationCross,1569043.0,1571693.0,2650.0,8,R,1568793,1568943,152,980.5,525.7,5096,NA
23,1,continuous,8,1,trial,1569043.0,1571693.0,2650.0,8,R,1568963,1569255,294,942.9,545.0,5022,NA
23,1,continuous,8,1,trial,1569043.0,1571693.0,2650.0,8,R,1569293,1569607,316,618.8,546.5,4896,left
23,1,continuous,8,1,trial,1569043.0,1571693.0,2650.0,8,R,1569765,1569845,82,497.4,428.2,4416,left
23,1,continuous,8,1,trial,1569043.0,1571693.0,2650.0,8,R,1570007,1570361,356,1342.7,493.7,4428,right
23,1,continuous,8,1,trial,1569043.0,1571693.0,2650.0,8,R,1570383,1570731,350,1436.7,524.6,4326,right
23,1,continuous,8,1,trial,1569043.0,1571693.0,2650.0,8,R,1570803,1571433,632,528.2,458.2,4362,left
23,1,continuous,8,1,trial,1569043.0,1571693.0,2650.0,8,R,1571491,1571911,422,492.5,948.8,4568,NA
23,1,continuous,8,1,postResponse,1569043.0,1571693.0,2650.0,8,R,1571983,1572029,48,1068.7,397.9,4618,NA
23,1,continuous,9,66,fixationCross,1572893.0,1574660.0,1767.0,9,R,1572103,1572501,400,1064.7,397.7,4843,NA
23,1,continuous,9,66,trial,1572893.0,1574660.0,1767.0,9,R,1572523,1573077,556,975.4,446.7,4958,NA
23,1,continuous,9,66,trial,1572893.0,1574660.0,1767.0,9,R,1573117,1573427,312,610.7,495.5,4763,left
23,1,continuous,9,66,trial,1572893.0,1574660.0,1767.0,9,R,1573453,1573595,144,462.0,479.5,4409,left
23,1,continuous,9,66,trial,1572893.0,1574660.0,1767.0,9,R,1573659,1573971,314,1355.1,546.8,4313,right
23,1,continuous,9,66,trial,1572893.0,1574660.0,1767.0,9,R,1573983,1574253,272,1346.0,505.7,4396,right
23,1,continuous,9,66,postResponse,1572893.0,1574660.0,1767.0,9,R,1574267,1574995,730,1387.3,507.2,4455,right
23,1,continuous,10,17,fixationCross,1575677.0,1578877.0,3200.0,10,R,1575069,1575345,278,1390.6,517.5,4637,right
23,1,continuous,10,17,fixationCross,1575677.0,1578877.0,3200.0,10,R,1575415,1575589,176,965.1,483.2,4823,NA
23,1,continuous,10,17,trial,1575677.0,1578877.0,3200.0,10,R,1575609,1575903,296,947.4,539.3,4884,NA
23,1,continuous,10,17,trial,1575677.0,1578877.0,3200.0,10,R,1575939,1576167,230,1349.0,516.5,4954,right
23,1,continuous,10,17,trial,1575677.0,1578877.0,3200.0,10,R,1576191,1576563,374,1453.7,526.3,4516,right
23,1,continuous,10,17,trial,1575677.0,1578877.0,3200.0,10,R,1576641,1576917,278,416.6,570.3,4393,left
23,1,continuous,10,17,trial,1575677.0,1578877.0,3200.0,10,R,1576993,1577243,252,1439.4,548.6,4251,right
23,1,continuous,10,17,trial,1575677.0,1578877.0,3200.0,10,R,1577253,1577597,346,1421.7,576.6,4456,right
23,1,continuous,10,17,trial,1575677.0,1578877.0,3200.0,10,R,1577669,1577889,222,467.3,557.8,4644,left
23,1,continuous,10,17,trial,1575677.0,1578877.0,3200.0,10,R,1577915,1578143,230,376.9,538.6,4430,left
23,1,continuous,10,17,postResponse,1575677.0,1578877.0,3200.0,10,R,1578173,1579211,1040,568.5,616.2,4405,left
23,1,continuous,11,24,fixationCross,1579943.0,1582127.0,2184.0,11,R,1579285,1579633,350,578.1,622.4,4655,left
23,1,continuous,11,24,fixationCross,1579943.0,1582127.0,2184.0,11,R,1579667,1579853,188,906.7,564.4,4819,NA
23,1,continuous,11,24,trial,1579943.0,1582127.0,2184.0,11,R,1580021,1580045,26,955.0,493.1,4931,NA
23,1,continuous,11,24,trial,1579943.0,1582127.0,2184.0,11,R,1580057,1580163,108,938.8,463.2,4929,NA
23,1,continuous,11,24,trial,1579943.0,1582127.0,2184.0,11,R,1580207,1580435,230,531.3,470.1,5054,left
23,1,continuous,11,24,trial,1579943.0,1582127.0,2184.0,11,R,1580457,1580675,220,477.7,497.2,4766,left
23,1,continuous,11,24,trial,1579943.0,1582127.0,2184.0,11,R,1580741,1581079,340,1413.3,463.5,4253,right
23,1,continuous,11,24,trial,1579943.0,1582127.0,2184.0,11,R,1581095,1581179,86,1418.8,479.1,4196,right
23,1,continuous,11,24,trial,1579943.0,1582127.0,2184.0,11,R,1581243,1581611,370,524.2,553.7,4263,left
23,1,continuous,11,24,postResponse,1579943.0,1582127.0,2184.0,11,R,1581629,1582469,842,558.3,598.7,4355,left
23,1,continuous,12,1,fixationCross,1583193.0,1585743.0,2550.0,12,R,1582715,1583033,320,871.1,492.7,4863,NA
23,1,continuous,12,1,trial,1583193.0,1585743.0,2550.0,12,R,1583057,1583421,366,959.2,518.0,5113,NA
23,1,continuous,12,1,trial,1583193.0,1585743.0,2550.0,12,R,1583465,1583863,400,518.1,556.6,4574,left
23,1,continuous,12,1,trial,1583193.0,1585743.0,2550.0,12,R,1583927,1584161,236,1415.4,462.9,4138,right
23,1,continuous,12,1,trial,1583193.0,1585743.0,2550.0,12,R,1584181,1584501,322,1513.2,463.0,4117,right
23,1,continuous,12,1,trial,1583193.0,1585743.0,2550.0,12,R,1584513,1584755,244,1542.4,450.8,4273,right
23,1,continuous,12,1,trial,1583193.0,1585743.0,2550.0,12,R,1584833,1585039,208,458.8,549.1,4358,left
23,1,continuous,12,1,trial,1583193.0,1585743.0,2550.0,12,R,1585057,1585387,332,491.2,579.1,4278,left
23,1,continuous,12,1,trial,1583193.0,1585743.0,2550.0,12,R,1585459,1585617,160,499.8,1011.3,4261,NA
23,1,continuous,12,1,trial,1583193.0,1585743.0,2550.0,12,R,1585633,1585983,352,457.7,978.4,4268,NA
23,1,continuous,12,1,postResponse,1583193.0,1585743.0,2550.0,12,R,1586039,1586081,44,748.4,648.3,4576,NA
23,1,continuous,13,1,fixationCross,1587010.0,1588894.0,1884.0,13,R,1586179,1586367,190,748.4,647.2,4801,NA
23,1,continuous,13,1,fixationCross,1587010.0,1588894.0,1884.0,13,R,1586529,1586751,224,875.4,429.2,5041,NA
23,1,continuous,13,1,trial,1587010.0,1588894.0,1884.0,13,R,1586793,1587197,406,968.4,522.7,5189,NA
23,1,continuous,13,1,trial,1587010.0,1588894.0,1884.0,13,R,1587251,1587453,204,526.6,522.1,4799,left
23,1,continuous,13,1,trial,1587010.0,1588894.0,1884.0,13,R,1587477,1587649,174,601.6,484.8,4434,left
23,1,continuous,13,1,trial,1587010.0,1588894.0,1884.0,13,R,1587703,1587881,180,1298.3,453.2,4233,right
23,1,continuous,13,1,trial,1587010.0,1588894.0,1884.0,13,R,1587895,1588199,306,1327.9,445.1,4299,right
23,1,continuous,13,1,trial,1587010.0,1588894.0,1884.0,13,R,1588273,1588505,234,562.4,934.9,4498,NA
23,1,continuous,13,1,trial,1587010.0,1588894.0,1884.0,13,R,1588525,1588787,264,483.0,950.7,4431,NA
23,1,continuous,13,1,postResponse,1587010.0,1588894.0,1884.0,13,R,1588845,1589215,372,596.1,481.7,4712,left
23,1,continuous,14,32,fixationCross,1591277.0,1594793.0,3516.0,14,R,1589329,1590889,1562,794.7,539.7,5093,NA
23,1,continuous,14,32,trial,1591277.0,1594793.0,3516.0,14,R,1591047,1591465,420,958.8,493.5,5022,NA
23,1,continuous,14,32,trial,1591277.0,1594793.0,3516.0,14,R,1591509,1591959,452,559.9,511.7,4927,left
23,1,continuous,14,32,trial,1591277.0,1594793.0,3516.0,14,R,1592017,1592411,396,1332.9,510.3,4334,right
23,1,continuous,14,32,trial,1591277.0,1594793.0,3516.0,14,R,1592435,1592805,372,1403.7,453.0,4503,right
23,1,continuous,14,32,trial,1591277.0,1594793.0,3516.0,14,R,1592895,1593301,408,576.8,526.1,4615,left
23,1,continuous,14,32,trial,1591277.0,1594793.0,3516.0,14,R,1593325,1593659,336,509.2,566.2,4724,left
23,1,continuous,14,32,trial,1591277.0,1594793.0,3516.0,14,R,1593681,1594031,352,388.5,593.3,4706,left
23,1,continuous,14,32,trial,1591277.0,1594793.0,3516.0,14,R,1594057,1594165,110,470.4,588.8,4683,left
23,1,continuous,14,32,trial,1591277.0,1594793.0,3516.0,14,R,1594225,1594577,354,1360.5,550.8,4679,right
23,1,continuous,14,32,postResponse,1591277.0,1594793.0,3516.0,14,R,1594607,1595129,524,1428.2,446.4,4617,right
23,1,continuous,15,79,fixationCross,1595743.0,1598760.0,3017.0,15,R,1595229,1595293,66,1424.5,469.6,4415,right
23,1,continuous,15,79,fixationCross,1595743.0,1598760.0,3017.0,15,R,1595459,1595601,144,1035.6,483.6,4662,NA
23,1,continuous,15,79,trial,1595743.0,1598760.0,3017.0,15,R,1595625,1595897,274,943.3,515.8,4920,NA
23,1,continuous,15,79,trial,1595743.0,1598760.0,3017.0,15,R,1595935,1596335,402,614.5,510.3,4785,left
23,1,continuous,15,79,trial,1595743.0,1598760.0,3017.0,15,R,1596355,1596543,190,578.8,475.7,4072,left
23,1,continuous,15,79,trial,1595743.0,1598760.0,3017.0,15,R,1596603,1596909,308,1352.6,577.7,3894,right
23,1,continuous,15,79,trial,1595743.0,1598760.0,3017.0,15,R,1596935,1597291,358,1499.5,497.3,4017,right
23,1,continuous,15,79,trial,1595743.0,1598760.0,3017.0,15,R,1597359,1597545,188,618.0,499.7,4104,left
23,1,continuous,15,79,trial,1595743.0,1598760.0,3017.0,15,R,1597557,1598053,498,585.9,503.9,4032,left
23,1,continuous,15,79,trial,1595743.0,1598760.0,3017.0,15,R,1598117,1598469,354,1306.2,641.6,4166,right
23,1,continuous,15,79,postResponse,1595743.0,1598760.0,3017.0,15,R,1598493,1599095,604,1402.0,616.8,4399,right
23,1,continuous,16,100,fixationCross,1599877.0,1601994.0,2117.0,16,R,1599169,1599377,210,1401.4,616.3,4465,right
23,1,continuous,16,100,fixationCross,1599877.0,1601994.0,2117.0,16,R,1599409,1599557,150,1210.3,570.4,4562,right
23,1,continuous,16,100,trial,1599877.0,1601994.0,2117.0,16,R,1599593,1600119,528,957.7,560.8,4747,NA
23,1,continuous,16,100,trial,1599877.0,1601994.0,2117.0,16,R,1600155,1600341,188,1318.7,524.1,4771,right
23,1,continuous,16,100,trial,1599877.0,1601994.0,2117.0,16,R,1600475,1600601,128,1417.0,478.8,4331,right
23,1,continuous,16,100,trial,1599877.0,1601994.0,2117.0,16,R,1600667,1600989,324,524.3,515.9,4356,left
23,1,continuous,16,100,trial,1599877.0,1601994.0,2117.0,16,R,1601013,1601157,146,468.4,442.9,4363,left
23,1,continuous,16,100,trial,1599877.0,1601994.0,2117.0,16,R,1601225,1601557,334,1374.6,491.6,4335,right
23,1,continuous,16,100,postResponse,1599877.0,1601994.0,2117.0,16,R,1601577,1602327,752,1438.8,499.5,4398,right
23,1,continuous,17,1,fixationCross,1602859.0,1604860.0,2001.0,17,R,1602401,1602531,132,1434.6,508.1,4472,right
23,1,continuous,17,1,fixationCross,1602859.0,1604860.0,2001.0,17,R,1602587,1602811,226,978.4,521.6,4770,NA
23,1,continuous,17,1,trial,1602859.0,1604860.0,2001.0,17,R,1602833,1603091,260,937.8,547.0,4957,NA
23,1,continuous,17,1,trial,1602859.0,1604860.0,2001.0,17,R,1603125,1603391,268,1302.0,484.5,4903,right
23,1,continuous,17,1,trial,1602859.0,1604860.0,2001.0,17,R,1603411,1603665,256,1388.9,487.6,4462,right
23,1,continuous,17,1,trial,1602859.0,1604860.0,2001.0,17,R,1603681,1604087,408,1441.1,508.0,4200,right
23,1,continuous,17,1,trial,1602859.0,1604860.0,2001.0,17,R,1604159,1604413,256,493.2,539.1,4186,left
23,1,continuous,17,1,trial,1602859.0,1604860.0,2001.0,17,R,1604431,1604857,428,450.2,581.4,4197,left
23,1,continuous,17,1,postResponse,1602859.0,1604860.0,2001.0,17,R,1604877,1605195,320,451.4,517.6,4135,left
23,1,continuous,18,1,fixationCross,1607410.0,1609277.0,1867.0,18,R,1605391,1607075,1686,732.3,554.9,4782,left
23,1,continuous,18,1,fixationCross,1607410.0,1609277.0,1867.0,18,R,1607107,1607329,224,948.1,573.9,4958,NA
23,1,continuous,18,1,trial,1607410.0,1609277.0,1867.0,18,R,1607349,1607633,286,959.7,554.3,4974,NA
23,1,continuous,18,1,trial,1607410.0,1609277.0,1867.0,18,R,1607675,1607927,254,569.6,639.0,4973,left
23,1,continuous,18,1,trial,1607410.0,1609277.0,1867.0,18,R,1607947,1608061,116,523.2,643.8,4631,left
23,1,continuous,18,1,trial,1607410.0,1609277.0,1867.0,18,R,1608129,1608323,196,1487.1,495.2,4261,right
23,1,continuous,18,1,trial,1607410.0,1609277.0,1867.0,18,R,1608345,1608617,274,1546.4,444.1,4151,right
23,1,continuous,18,1,trial,1607410.0,1609277.0,1867.0,18,R,1608711,1608889,180,423.7,973.1,4339,NA
23,1,continuous,18,1,trial,1607410.0,1609277.0,1867.0,18,R,1608921,1609061,142,493.1,961.7,4353,NA
23,1,continuous,18,1,trial,1607410.0,1609277.0,1867.0,18,R,1609101,1609493,394,468.4,617.2,4373,left
23,1,continuous,18,1,postResponse,1607410.0,1609277.0,1867.0,18,R,1609519,1609611,94,735.3,568.8,4441,left
23,1,continuous,19,16,fixationCross,1612560.0,1615060.0,2500.0,19,R,1609685,1609897,214,734.3,575.6,4534,left
23,1,continuous,19,16,fixationCross,1612560.0,1615060.0,2500.0,19,R,1610007,1611339,1334,735.5,539.0,5170,left
23,1,continuous,19,16,fixationCross,1612560.0,1615060.0,2500.0,19,R,1611355,1612171,818,677.8,547.6,5234,left
23,1,continuous,19,16,fixationCross,1612560.0,1615060.0,2500.0,19,R,1612329,1612467,140,918.3,510.1,5146,NA
23,1,continuous,19,16,trial,1612560.0,1615060.0,2500.0,19,R,1612489,1612737,250,962.7,497.2,5211,NA
23,1,continuous,19,16,trial,1612560.0,1615060.0,2500.0,19,R,1612791,1613045,256,539.3,517.4,5166,left
23,1,continuous,19,16,trial,1612560.0,1615060.0,2500.0,19,R,1613063,1613247,186,549.3,623.5,4635,left
23,1,continuous,19,16,trial,1612560.0,1615060.0,2500.0,19,R,1613271,1613523,254,415.9,653.1,4325,left
23,1,continuous,19,16,trial,1612560.0,1615060.0,2500.0,19,R,1613551,1613729,180,575.3,608.1,4316,left
23,1,continuous,19,16,trial,1612560.0,1615060.0,2500.0,19,R,1613787,1614159,374,1369.5,551.7,4374,right
23,1,continuous,19,16,trial,1612560.0,1615060.0,2500.0,19,R,1614223,1614561,340,588.2,641.3,4370,left
23,1,continuous,19,16,trial,1612560.0,1615060.0,2500.0,19,R,1614573,1614741,170,556.1,653.5,4440,left
23,1,continuous,19,16,trial,1612560.0,1615060.0,2500.0,19,R,1614767,1615291,526,388.3,642.4,4507,left
23,1,continuous,19,16,postResponse,1612560.0,1615060.0,2500.0,19,R,1615315,1615395,82,585.2,616.8,4584,left
23,1,continuous,20,62,fixationCross,1616344.0,1620460.0,4116.0,20,R,1615469,1615499,32,582.1,619.5,4625,left
23,1,continuous,20,62,fixationCross,1616344.0,1620460.0,4116.0,20,R,1615651,1616035,386,686.2,474.2,4801,left
23,1,continuous,20,62,fixationCross,1616344.0,1620460.0,4116.0,20,R,1616077,1616245,170,913.9,514.2,5134,NA
23,1,continuous,20,62,trial,1616344.0,1620460.0,4116.0,20,R,1616267,1616523,258,956.2,519.9,4816,NA
23,1,continuous,20,62,trial,1616344.0,1620460.0,4116.0,20,R,1616567,1616867,302,496.2,585.4,4524,left
23,1,continuous,20,62,trial,1616344.0,1620460.0,4116.0,20,R,1616931,1617275,346,1333.9,550.4,4142,right
23,1,continuous,20,62,trial,1616344.0,1620460.0,4116.0,20,R,1617297,1617523,228,1453.2,551.9,4236,right
23,1,continuous,20,62,trial,1616344.0,1620460.0,4116.0,20,R,1617547,1617919,374,1479.3,637.1,4375,right
23,1,continuous,20,62,trial,1616344.0,1620460.0,4116.0,20,R,1617955,1618205,252,1430.3,445.1,4364,right
23,1,continuous,20,62,trial,1616344.0,1620460.0,4116.0,20,R,1618273,1618501,230,540.2,560.2,4410,left
23,1,continuous,20,62,trial,1616344.0,1620460.0,4116.0,20,R,1618523,1618901,380,458.0,612.3,4358,left
23,1,continuous,20,62,trial,1616344.0,1620460.0,4116.0,20,R,1618923,1619051,130,371.4,680.1,4347,left
23,1,continuous,20,62,trial,1616344.0,1620460.0,4116.0,20,R,1619117,1619329,214,1371.5,616.1,4430,right
23,1,continuous,20,62,trial,1616344.0,1620460.0,4116.0,20,R,1619353,1619561,210,1417.1,660.9,4424,right
23,1,continuous,20,62,trial,1616344.0,1620460.0,4116.0,20,R,1619575,1619803,230,1450.5,670.8,4460,right
23,1,continuous,20,62,trial,1616344.0,1620460.0,4116.0,20,R,1619853,1620057,206,1161.1,998.5,4535,likertHorizontal
23,1,continuous,20,62,postResponse,1616344.0,1620460.0,4116.0,20,R,1620107,1620797,692,1289.7,552.7,4506,right
23,1,continuous,21,1,fixationCross,1621594.0,1625327.0,3733.0,21,R,1620871,1620977,108,1288.3,559.3,4614,right
23,1,continuous,21,1,fixationCross,1621594.0,1625327.0,3733.0,21,R,1621281,1621337,58,881.6,462.3,4914,NA
23,1,continuous,21,1,trial,1621594.0,1625327.0,3733.0,21,R,1621373,1621823,452,964.0,475.2,5090,NA
23,1,continuous,21,1,trial,1621594.0,1625327.0,3733.0,21,R,1621867,1622093,228,555.3,625.3,4967,left
23,1,continuous,21,1,trial,1621594.0,1625327.0,3733.0,21,R,1622129,1622525,398,318.6,427.8,4299,left
23,1,continuous,21,1,trial,1621594.0,1625327.0,3733.0,21,R,1622551,1622737,188,327.0,357.6,4070,left
23,1,continuous,21,1,trial,1621594.0,1625327.0,3733.0,21,R,1622809,1623081,274,1382.7,469.9,4217,right
23,1,continuous,21,1,trial,1621594.0,1625327.0,3733.0,21,R,1623113,1623363,252,1491.4,395.1,4427,right
23,1,continuous,21,1,trial,1621594.0,1625327.0,3733.0,21,R,1623393,1623689,298,1447.5,600.2,4539,right
23,1,continuous,21,1,trial,1621594.0,1625327.0,3733.0,21,R,1623723,1623937,216,1343.2,435.2,4465,right
23,1,continuous,21,1,trial,1621594.0,1625327.0,3733.0,21,R,1624005,1624261,258,450.4,626.5,4414,left
23,1,continuous,21,1,trial,1621594.0,1625327.0,3733.0,21,R,1624301,1624559,260,327.1,496.1,4375,left
23,1,continuous,21,1,trial,1621594.0,1625327.0,3733.0,21,R,1624579,1624763,186,316.2,558.9,4289,left
23,1,continuous,21,1,trial,1621594.0,1625327.0,3733.0,21,R,1624791,1625123,334,493.0,649.5,4337,left
23,1,continuous,21,1,postResponse,1621594.0,1625327.0,3733.0,21,R,1625141,1625663,524,525.2,614.4,4284,left
23,1,continuous,22,35,fixationCross,1626411.0,1629544.0,3133.0,22,R,1625737,1626093,358,659.4,589.1,4384,left
23,1,continuous,22,35,fixationCross,1626411.0,1629544.0,3133.0,22,R,1626121,1626319,200,899.4,558.3,4634,NA
23,1,continuous,22,35,trial,1626411.0,1629544.0,3133.0,22,R,1626335,1626579,246,951.9,574.0,4676,NA
23,1,continuous,22,35,trial,1626411.0,1629544.0,3133.0,22,R,1626623,1627001,380,538.3,585.1,4545,left
23,1,continuous,22,35,trial,1626411.0,1629544.0,3133.0,22,R,1627017,1627257,242,483.9,584.9,4070,left
23,1,continuous,22,35,trial,1626411.0,1629544.0,3133.0,22,R,1627323,1627527,206,1384.5,662.2,3931,right
23,1,continuous,22,35,trial,1626411.0,1629544.0,3133.0,22,R,1627541,1627717,178,1421.1,670.8,3906,right
23,1,continuous,22,35,trial,1626411.0,1629544.0,3133.0,22,R,1627737,1628017,282,1361.8,611.5,4002,right
23,1,continuous,22,35,trial,1626411.0,1629544.0,3133.0,22,R,1628151,1628483,334,449.7,520.8,4186,left
23,1,continuous,22,35,trial,1626411.0,1629544.0,3133.0,22,R,1628511,1629021,512,600.9,442.1,4181,left
23,1,continuous,22,35,trial,1626411.0,1629544.0,3133.0,22,R,1629081,1629379,300,815.9,968.1,4208,likertHorizontal
23,1,continuous,22,35,postResponse,1626411.0,1629544.0,3133.0,22,R,1629429,1629877,450,691.5,392.9,4280,left
23,1,continuous,23,21,fixationCross,1630710.0,1632911.0,2201.0,23,R,1630025,1630189,166,992.9,400.4,4713,NA
23,1,continuous,23,21,fixationCross,1630710.0,1632911.0,2201.0,23,R,1630215,1630393,180,1171.4,401.7,4750,NA
23,1,continuous,23,21,trial,1630710.0,1632911.0,2201.0,23,R,1630427,1630905,480,957.9,554.8,4917,NA
23,1,continuous,23,21,trial,1630710.0,1632911.0,2201.0,23,R,1630959,1631175,218,505.2,554.3,4880,left
23,1,continuous,23,21,trial,1630710.0,1632911.0,2201.0,23,R,1631191,1631441,252,460.1,540.9,4398,left
23,1,continuous,23,21,trial,1630710.0,1632911.0,2201.0,23,R,1631507,1631777,272,1367.8,587.1,4097,right
23,1,continuous,23,21,trial,1630710.0,1632911.0,2201.0,23,R,1631795,1632069,276,1425.5,610.7,4198,right
23,1,continuous,23,21,trial,1630710.0,1632911.0,2201.0,23,R,1632139,1632549,412,465.4,594.6,4422,left
23,1,continuous,23,21,trial,1630710.0,1632911.0,2201.0,23,R,1632585,1632915,332,464.0,693.8,4238,left
23,1,continuous,23,21,postResponse,1630710.0,1632911.0,2201.0,23,R,1632925,1633245,322,472.1,667.4,4303,left
23,1,continuous,24,76,fixationCross,1633810.0,1637010.0,3200.0,24,R,1633319,1633347,30,473.1,669.3,4431,left
23,1,continuous,24,76,trial,1633810.0,1637010.0,3200.0,24,R,1633427,1634011,586,950.2,529.3,4631,NA
23,1,continuous,24,76,trial,1633810.0,1637010.0,3200.0,24,R,1634053,1634303,252,514.6,554.9,4623,left
23,1,continuous,24,76,trial,1633810.0,1637010.0,3200.0,24,R,1634327,1634511,186,506.7,439.7,4226,left
23,1,continuous,24,76,trial,1633810.0,1637010.0,3200.0,24,R,1634579,1634787,210,1385.3,504.4,4057,right
23,1,continuous,24,76,trial,1633810.0,1637010.0,3200.0,24,R,1634819,1635321,504,1531.8,456.0,4017,right
23,1,continuous,24,76,trial,1633810.0,1637010.0,3200.0,24,R,1635391,1635577,188,544.5,468.9,4187,left
23,1,continuous,24,76,trial,1633810.0,1637010.0,3200.0,24,R,1635593,1635817,226,513.7,438.7,4143,left
23,1,continuous,24,76,trial,1633810.0,1637010.0,3200.0,24,R,1635889,1636089,202,1493.8,510.0,4128,right
23,1,continuous,24,76,trial,1633810.0,1637010.0,3200.0,24,R,1636107,1636361,256,1543.6,489.3,4080,right
23,1,continuous,24,76,trial,1633810.0,1637010.0,3200.0,24,R,1636413,1636543,132,1284.0,903.9,4135,NA
23,1,continuous,24,76,postResponse,1633810.0,1637010.0,3200.0,24,R,1636593,1637345,754,1482.5,486.6,4431,right
23,1,continuous,25,65,fixationCross,1638093.0,1640660.0,2567.0,25,R,1637419,1637481,64,1487.2,494.3,4602,right
23,1,continuous,25,65,fixationCross,1638093.0,1640660.0,2567.0,25,R,1637505,1637783,280,1288.7,491.0,4737,right
23,1,continuous,25,65,trial,1638093.0,1640660.0,2567.0,25,R,1637831,1638345,516,957.1,590.0,5016,NA
23,1,continuous,25,65,trial,1638093.0,1640660.0,2567.0,25,R,1638389,1638607,220,571.3,584.6,5025,left
23,1,continuous,25,65,trial,1638093.0,1640660.0,2567.0,25,R,1638631,1638785,156,429.6,552.1,4535,left
23,1,continuous,25,65,trial,1638093.0,1640660.0,2567.0,25,R,1638861,1639137,278,1313.3,528.3,4193,right
23,1,continuous,25,65,trial,1638093.0,1640660.0,2567.0,25,R,1639159,1639349,192,1402.7,585.3,4234,right
23,1,continuous,25,65,trial,1638093.0,1640660.0,2567.0,25,R,1639501,1639723,224,551.9,495.1,4327,left
23,1,continuous,25,65,trial,1638093.0,1640660.0,2567.0,25,R,1639791,1640499,710,1094.9,989.8,4360,likertHorizontal
23,1,continuous,25,65,postResponse,1638093.0,1640660.0,2567.0,25,R,1640555,1640993,440,1363.8,407.9,4527,right
23,1,continuous,26,13,fixationCross,1667427.0,1669827.0,2400.0,26,R,1666958,1667372,416,1022.9,550.6,4551,NA
23,1,continuous,26,13,trial,1667427.0,1669827.0,2400.0,26,R,1667392,1667682,292,956.7,575.3,5080,NA
23,1,continuous,26,13,trial,1667427.0,1669827.0,2400.0,26,R,1667726,1667948,224,581.6,602.3,4939,left
23,1,continuous,26,13,trial,1667427.0,1669827.0,2400.0,26,R,1667978,1668170,194,403.1,621.4,4509,left
23,1,continuous,26,13,trial,1667427.0,1669827.0,2400.0,26,R,1668238,1668688,452,1386.2,557.9,4121,right
23,1,continuous,26,13,trial,1667427.0,1669827.0,2400.0,26,R,1668706,1668960,256,1436.0,582.5,4331,right
23,1,continuous,26,13,trial,1667427.0,1669827.0,2400.0,26,R,1669036,1669202,168,450.9,592.8,4414,left
23,1,continuous,26,13,trial,1667427.0,1669827.0,2400.0,26,R,1669220,1669756,538,382.1,620.1,4091,left
23,1,continuous,26,13,trial,1667427.0,1669827.0,2400.0,26,R,1669786,1670118,334,613.8,535.2,4029,left
23,1,continuous,27,92,fixationCross,1671944.0,1673844.0,1900.0,27,R,1670262,1671646,1386,794.8,546.6,4701,NA
23,1,continuous,27,92,trial,1671944.0,1673844.0,1900.0,27,R,1671672,1672154,484,951.7,576.8,4896,NA
23,1,continuous,27,92,trial,1671944.0,1673844.0,1900.0,27,R,1672196,1672484,290,577.2,551.1,4639,left
23,1,continuous,27,92,trial,1671944.0,1673844.0,1900.0,27,R,1672640,1673042,404,1351.1,449.2,4058,right
23,1,continuous,27,92,trial,1671944.0,1673844.0,1900.0,27,R,1673058,1673426,370,1419.0,467.3,4176,right
23,1,continuous,27,92,trial,1671944.0,1673844.0,1900.0,27,R,1673470,1673728,260,1260.3,625.8,4231,right
23,1,continuous,27,92,postResponse,1671944.0,1673844.0,1900.0,27,R,1673760,1674178,420,1333.8,477.6,4329,right
23,1,continuous,28,99,fixationCross,1674944.0,1677111.0,2167.0,28,R,1674278,1674626,350,1339.5,489.4,4587,right
23,1,continuous,28,99,fixationCross,1674944.0,1677111.0,2167.0,28,R,1674668,1674830,164,990.3,553.9,4900,NA
23,1,continuous,28,99,trial,1674944.0,1677111.0,2167.0,28,R,1674848,1675152,306,939.4,580.4,4909,NA
23,1,continuous,28,99,trial,1674944.0,1677111.0,2167.0,28,R,1675194,1675576,384,519.1,597.4,4786,left
23,1,continuous,28,99,trial,1674944.0,1677111.0,2167.0,28,R,1675642,1675838,198,1400.9,556.6,4196,right
23,1,continuous,28,99,trial,1674944.0,1677111.0,2167.0,28,R,1675860,1676016,158,1450.1,573.7,4085,right
23,1,continuous,28,99,trial,1674944.0,1677111.0,2167.0,28,R,1676026,1676734,710,1418.2,553.9,4125,right
23,1,continuous,28,99,postResponse,1674944.0,1677111.0,2167.0,28,R,1676748,1677444,698,1451.0,551.0,4241,right
23,1,continuous,29,66,fixationCross,1678144.0,1683660.0,5516.0,29,R,1677518,1677808,292,1450.9,563.4,4406,right
23,1,continuous,29,66,fixationCross,1678144.0,1683660.0,5516.0,29,R,1677858,1678032,176,975.4,571.8,4646,NA
23,1,continuous,29,66,trial,1678144.0,1683660.0,5516.0,29,R,1678042,1678334,294,947.1,576.8,4574,NA
23,1,continuous,29,66,trial,1678144.0,1683660.0,5516.0,29,R,1678380,1678590,212,508.1,592.3,4419,left
23,1,continuous,29,66,trial,1678144.0,1683660.0,5516.0,29,R,1678608,1678788,182,432.5,599.1,4087,left
23,1,continuous,29,66,trial,1678144.0,1683660.0,5516.0,29,R,1678880,1679062,184,1392.5,677.4,3922,right
23,1,continuous,29,66,trial,1678144.0,1683660.0,5516.0,29,R,1679198,1679476,280,1395.5,585.3,4037,right
23,1,continuous,29,66,trial,1678144.0,1683660.0,5516.0,29,R,1679496,1679612,118,1450.6,546.4,4221,right
23,1,continuous,29,66,trial,1678144.0,1683660.0,5516.0,29,R,1679688,1679900,214,437.7,539.7,4114,left
23,1,continuous,29,66,trial,1678144.0,1683660.0,5516.0,29,R,1679922,1680192,272,381.3,613.1,4014,left
23,1,continuous,29,66,trial,1678144.0,1683660.0,5516.0,29,R,1680222,1680492,272,341.9,515.0,4044,left
23,1,continuous,29,66,trial,1678144.0,1683660.0,5516.0,29,R,1680518,1680756,240,425.8,554.0,4057,left
23,1,continuous,29,66,trial,1678144.0,1683660.0,5516.0,29,R,1680774,1680906,134,470.4,585.1,4069,left
23,1,continuous,29,66,trial,1678144.0,1683660.0,5516.0,29,R,1680930,1681186,258,565.7,632.2,4162,left
23,1,continuous,29,66,trial,1678144.0,1683660.0,5516.0,29,R,1681212,1681468,258,379.0,619.1,4228,left
23,1,continuous,29,66,trial,1678144.0,1683660.0,5516.0,29,R,1681488,1681898,412,416.4,613.5,4246,left
23,1,continuous,29,66,trial,1678144.0,1683660.0,5516.0,29,R,1681974,1682274,302,1448.0,675.4,4327,right
23,1,continuous,29,66,trial,1678144.0,1683660.0,5516.0,29,R,1682326,1682622,298,958.8,942.5,4568,likertHorizontal
23,1,continuous,29,66,trial,1678144.0,1683660.0,5516.0,29,R,1682672,1683004,334,1368.6,652.7,4514,right
23,1,continuous,29,66,postResponse,1678144.0,1683660.0,5516.0,29,R,1683028,1683996,970,1454.8,606.1,4259,right
23,1,continuous,30,8,fixationCross,1684777.0,1687411.0,2634.0,30,R,1684072,1684364,294,1453.8,610.3,4423,right
23,1,continuous,30,8,fixationCross,1684777.0,1687411.0,2634.0,30,R,1684540,1684680,142,933.7,549.1,4826,NA
23,1,continuous,30,8,trial,1684777.0,1687411.0,2634.0,30,R,1684700,1685012,314,952.3,524.7,4923,NA
23,1,continuous,30,8,trial,1684777.0,1687411.0,2634.0,30,R,1685064,1685222,160,556.1,554.6,4870,left
23,1,continuous,30,8,trial,1684777.0,1687411.0,2634.0,30,R,1685254,1685596,344,342.8,479.8,4225,left
23,1,continuous,30,8,trial,1684777.0,1687411.0,2634.0,30,R,1685670,1686410,742,1458.5,541.4,4101,right
23,1,continuous,30,8,trial,1684777.0,1687411.0,2634.0,30,R,1686486,1686610,126,417.8,479.7,4442,left
23,1,continuous,30,8,trial,1684777.0,1687411.0,2634.0,30,R,1686632,1686958,328,344.0,482.2,4337,left
23,1,continuous,30,8,trial,1684777.0,1687411.0,2634.0,30,R,1686990,1687134,146,601.6,544.4,4312,left
23,1,continuous,30,8,postResponse,1684777.0,1687411.0,2634.0,30,R,1687156,1687744,590,647.0,580.3,4424,left
23,1,continuous,31,100,fixationCross,1689327.0,1691211.0,1884.0,31,R,1687818,1688584,768,662.2,583.7,4641,left
23,1,continuous,31,100,fixationCross,1689327.0,1691211.0,1884.0,31,R,1688602,1688982,382,611.7,581.6,4648,left
23,1,continuous,31,100,fixationCross,1689327.0,1691211.0,1884.0,31,R,1689012,1689176,166,898.0,564.7,4768,NA
23,1,continuous,31,100,trial,1689327.0,1691211.0,1884.0,31,R,1689200,1689500,302,968.4,578.6,4923,NA
23,1,continuous,31,100,trial,1689327.0,1691211.0,1884.0,31,R,1689542,1689710,170,554.1,571.7,4914,left
23,1,continuous,31,100,trial,1689327.0,1691211.0,1884.0,31,R,1689854,1690078,226,460.4,507.4,4288,left
23,1,continuous,31,100,trial,1689327.0,1691211.0,1884.0,31,R,1690104,1690238,136,573.2,404.2,4181,left
23,1,continuous,31,100,trial,1689327.0,1691211.0,1884.0,31,R,1690300,1690992,694,1419.5,538.2,4174,right
23,1,continuous,31,100,postResponse,1689327.0,1691211.0,1884.0,31,R,1691014,1691546,534,1281.6,570.4,4166,right
23,1,continuous,32,60,fixationCross,1692228.0,1695510.0,3282.0,32,R,1691620,1691912,294,1286.6,580.0,4474,right
23,1,continuous,32,60,fixationCross,1692228.0,1695510.0,3282.0,32,R,1691958,1692132,176,880.3,553.7,4766,NA
23,1,continuous,32,60,trial,1692228.0,1695510.0,3282.0,32,R,1692162,1692400,240,941.1,577.9,4736,NA
23,1,continuous,32,60,trial,1692228.0,1695510.0,3282.0,32,R,1692442,1692718,278,528.4,535.8,4663,left
23,1,continuous,32,60,trial,1692228.0,1695510.0,3282.0,32,R,1692736,1692936,202,471.3,547.0,4283,left
23,1,continuous,32,60,trial,1692228.0,1695510.0,3282.0,32,R,1692946,1693238,294,452.8,567.2,4101,left
23,1,continuous,32,60,trial,1692228.0,1695510.0,3282.0,32,R,1693298,1693650,354,1379.1,567.5,4109,right
23,1,continuous,32,60,trial,1692228.0,1695510.0,3282.0,32,R,1693668,1693988,322,1315.2,521.4,4180,right
23,1,continuous,32,60,trial,1692228.0,1695510.0,3282.0,32,R,1694018,1694334,318,1489.0,524.5,4225,right
23,1,continuous,32,60,trial,1692228.0,1695510.0,3282.0,32,R,1694404,1694834,432,505.6,523.4,4321,left
23,1,continuous,32,60,trial,1692228.0,1695510.0,3282.0,32,R,1694910,1695188,280,1061.9,990.1,4325,likertHorizontal
23,1,continuous,32,60,postResponse,1692228.0,1695510.0,3282.0,32,R,1695228,1695844,618,1077.3,594.5,4457,NA
23,1,continuous,33,12,fixationCross,1696411.0,1699211.0,2800.0,33,R,1696132,1696320,190,1029.5,497.4,4745,NA
23,1,continuous,33,12,trial,1696411.0,1699211.0,2800.0,33,R,1696346,1696570,226,931.4,517.6,4902,NA
23,1,continuous,33,12,trial,1696411.0,1699211.0,2800.0,33,R,1696620,1696818,200,586.1,511.9,4934,left
23,1,continuous,33,12,trial,1696411.0,1699211.0,2800.0,33,R,1696842,1697176,336,470.1,622.7,4365,left
23,1,continuous,33,12,trial,1696411.0,1699211.0,2800.0,33,R,1697208,1697450,244,619.3,512.9,4095,left
23,1,continuous,33,12,trial,1696411.0,1699211.0,2800.0,33,R,1697510,1697760,252,1456.2,560.4,4087,right
23,1,continuous,33,12,trial,1696411.0,1699211.0,2800.0,33,R,1697780,1697960,182,1493.4,575.8,4260,right
23,1,continuous,33,12,trial,1696411.0,1699211.0,2800.0,33,R,1698028,1698378,352,625.1,581.6,4525,left
23,1,continuous,33,12,trial,1696411.0,1699211.0,2800.0,33,R,1698406,1698602,198,446.9,579.1,4383,left
23,1,continuous,33,12,trial,1696411.0,1699211.0,2800.0,33,R,1698626,1699510,886,483.7,631.8,4339,left
23,1,continuous,34,80,fixationCross,1700378.0,1702194.0,1816.0,34,R,1699646,1700076,432,700.6,584.9,4535,left
23,1,continuous,34,80,fixationCross,1700378.0,1702194.0,1816.0,34,R,1700108,1700352,246,932.0,583.4,4861,NA
23,1,continuous,34,80,trial,1700378.0,1702194.0,1816.0,34,R,1700370,1700594,226,960.0,585.5,4770,NA
23,1,continuous,34,80,trial,1700378.0,1702194.0,1816.0,34,R,1700756,1700960,206,451.6,501.6,4539,left
23,1,continuous,34,80,trial,1700378.0,1702194.0,1816.0,34,R,1700986,1701116,132,616.3,544.6,4380,left
23,1,continuous,34,80,trial,1700378.0,1702194.0,1816.0,34,R,1701174,1701568,396,1392.0,513.5,4226,right
23,1,continuous,34,80,postResponse,1700378.0,1702194.0,1816.0,34,R,1701584,1702528,946,1441.8,543.7,4311,right
23,1,continuous,35,68,fixationCross,1703211.0,1705228.0,2017.0,35,R,1702602,1702732,132,1437.1,553.5,4546,right
23,1,continuous,35,68,trial,1703211.0,1705228.0,2017.0,35,R,1702932,1703228,298,951.9,496.1,4936,NA
23,1,continuous,35,68,trial,1703211.0,1705228.0,2017.0,35,R,1703240,1703386,148,959.7,510.0,5144,NA
23,1,continuous,35,68,trial,1703211.0,1705228.0,2017.0,35,R,1703442,1703704,264,539.8,517.1,4784,left
23,1,continuous,35,68,trial,1703211.0,1705228.0,2017.0,35,R,1703722,1703896,176,476.7,569.3,4186,left
23,1,continuous,35,68,trial,1703211.0,1705228.0,2017.0,35,R,1703928,1704128,202,499.8,402.3,3923,left
23,1,continuous,35,68,trial,1703211.0,1705228.0,2017.0,35,R,1704198,1704404,208,1507.2,483.8,3862,right
23,1,continuous,35,68,postResponse,1703211.0,1705228.0,2017.0,35,R,1704422,1705562,1142,1490.2,459.1,4198,right
23,1,continuous,36,1,fixationCross,1706311.0,1708844.0,2533.0,36,R,1705636,1705982,348,1497.6,476.4,4506,right
23,1,continuous,36,1,fixationCross,1706311.0,1708844.0,2533.0,36,R,1706032,1706214,184,973.1,551.6,4923,NA
23,1,continuous,36,1,trial,1706311.0,1708844.0,2533.0,36,R,1706354,1706490,138,960.4,509.2,4937,NA
23,1,continuous,36,1,trial,1706311.0,1708844.0,2533.0,36,R,1706538,1706714,178,505.7,456.5,5002,left
23,1,continuous,36,1,trial,1706311.0,1708844.0,2533.0,36,R,1706736,1707332,598,427.3,489.9,4318,left
23,1,continuous,36,1,trial,1706311.0,1708844.0,2533.0,36,R,1707402,1707626,226,1384.3,518.7,3990,right
23,1,continuous,36,1,trial,1706311.0,1708844.0,2533.0,36,R,1707648,1707766,120,1428.0,572.5,4059,right
23,1,continuous,36,1,trial,1706311.0,1708844.0,2533.0,36,R,1707834,1708524,692,469.9,518.3,4261,left
23,1,continuous,36,1,trial,1706311.0,1708844.0,2533.0,36,R,1708542,1708864,324,507.8,588.4,4326,left
23,1,continuous,36,1,trial,1706311.0,1708844.0,2533.0,36,R,1708886,1709160,276,458.4,548.7,4292,left
23,1,continuous,37,15,fixationCross,1710060.0,1712445.0,2385.0,37,R,1709254,1709538,286,749.6,545.3,4529,NA
23,1,continuous,37,15,fixationCross,1710060.0,1712445.0,2385.0,37,R,1709554,1709756,204,682.7,532.6,4788,left
23,1,continuous,37,15,trial,1710060.0,1712445.0,2385.0,37,R,1709788,1710212,426,952.1,575.7,4785,NA
23,1,continuous,37,15,trial,1710060.0,1712445.0,2385.0,37,R,1710256,1710496,242,513.2,553.3,4717,left
23,1,continuous,37,15,trial,1710060.0,1712445.0,2385.0,37,R,1710508,1710796,290,468.2,557.3,4372,left
23,1,continuous,37,15,trial,1710060.0,1712445.0,2385.0,37,R,1710856,1711092,238,1243.8,550.0,4214,right
23,1,continuous,37,15,trial,1710060.0,1712445.0,2385.0,37,R,1711124,1711320,198,1477.5,489.9,4173,right
23,1,continuous,37,15,trial,1710060.0,1712445.0,2385.0,37,R,1711392,1711754,364,428.5,541.5,4299,left
23,1,continuous,37,15,trial,1710060.0,1712445.0,2385.0,37,R,1711822,1712694,874,585.2,1018.0,4327,NA
23,1,continuous,38,24,fixationCross,1713511.0,1717661.0,4150.0,38,R,1712900,1712940,42,1018.2,461.2,4667,NA
23,1,continuous,38,24,fixationCross,1713511.0,1717661.0,4150.0,38,R,1713086,1713254,170,999.0,441.5,4903,NA
23,1,continuous,38,24,trial,1713511.0,1717661.0,4150.0,38,R,1713276,1713658,384,961.9,507.5,4949,NA
23,1,continuous,38,24,trial,1713511.0,1717661.0,4150.0,38,R,1713702,1713880,180,565.8,578.7,4598,left
23,1,continuous,38,24,trial,1713511.0,1717661.0,4150.0,38,R,1713902,1714140,240,481.3,619.4,4316,left
23,1,continuous,38,24,trial,1713511.0,1717661.0,4150.0,38,R,1714202,1714440,240,1330.6,552.6,4069,right
23,1,continuous,38,24,trial,1713511.0,1717661.0,4150.0,38,R,1714468,1714638,172,1518.2,534.7,4046,right
23,1,continuous,38,24,trial,1713511.0,1717661.0,4150.0,38,R,1714658,1714868,212,1591.3,507.7,4087,right
23,1,continuous,38,24,trial,1713511.0,1717661.0,4150.0,38,R,1714922,1715116,196,1470.1,1011.4,4150,NA
23,1,continuous,38,24,trial,1713511.0,1717661.0,4150.0,38,R,1715166,1715334,170,1523.6,449.9,4235,right
23,1,continuous,38,24,trial,1713511.0,1717661.0,4150.0,38,R,1715360,1715502,144,1597.2,513.4,4226,right
23,1,continuous,38,24,trial,1713511.0,1717661.0,4150.0,38,R,1715576,1715914,340,496.8,625.8,4365,left
23,1,continuous,38,24,trial,1713511.0,1717661.0,4150.0,38,R,1715928,1716286,360,463.4,630.1,4375,left
23,1,continuous,38,24,trial,1713511.0,1717661.0,4150.0,38,R,1716372,1716666,296,1569.4,520.2,4430,right
23,1,continuous,38,24,trial,1713511.0,1717661.0,4150.0,38,R,1716686,1716818,134,1598.3,513.2,4513,right
23,1,continuous,38,24,trial,1713511.0,1717661.0,4150.0,38,R,1716854,1717012,160,1301.1,583.9,4641,right
23,1,continuous,38,24,trial,1713511.0,1717661.0,4150.0,38,R,1717082,1717386,306,788.4,1007.5,4619,likertHorizontal
23,1,continuous,38,24,trial,1713511.0,1717661.0,4150.0,38,R,1717412,1717576,166,629.0,1003.6,4501,NA
23,1,continuous,38,24,postResponse,1713511.0,1717661.0,4150.0,38,R,1717600,1717996,398,694.1,997.1,4576,NA
23,1,continuous,39,1,fixationCross,1718578.0,1721611.0,3033.0,39,R,1718214,1718220,8,999.1,551.3,4825,NA
23,1,continuous,39,1,fixationCross,1718578.0,1721611.0,3033.0,39,R,1718234,1718468,236,991.9,521.1,4892,NA
23,1,continuous,39,1,trial,1718578.0,1721611.0,3033.0,39,R,1718490,1718806,318,957.5,508.3,5138,NA
23,1,continuous,39,1,trial,1718578.0,1721611.0,3033.0,39,R,1718854,1719042,190,447.0,491.2,4968,left
23,1,continuous,39,1,trial,1718578.0,1721611.0,3033.0,39,R,1719066,1719712,648,377.1,490.7,4244,left
23,1,continuous,39,1,trial,1718578.0,1721611.0,3033.0,39,R,1719730,1719836,108,433.2,492.9,4213,left
23,1,continuous,39,1,trial,1718578.0,1721611.0,3033.0,39,R,1719902,1720130,230,1405.6,538.8,4346,right
23,1,continuous,39,1,trial,1718578.0,1721611.0,3033.0,39,R,1720162,1720392,232,1619.7,605.7,4412,right
23,1,continuous,39,1,trial,1718578.0,1721611.0,3033.0,39,R,1720416,1720532,118,1562.1,605.5,4542,right
23,1,continuous,39,1,trial,1718578.0,1721611.0,3033.0,39,R,1720624,1721036,414,633.2,976.1,4557,NA
23,1,continuous,39,1,trial,1718578.0,1721611.0,3033.0,39,R,1721066,1721268,204,557.3,994.3,4429,NA
23,1,continuous,39,1,trial,1718578.0,1721611.0,3033.0,39,R,1721288,1721450,164,489.9,1020.4,4434,NA
23,1,continuous,39,1,trial,1718578.0,1721611.0,3033.0,39,R,1721504,1721906,404,442.9,513.7,4466,left
23,1,continuous,40,99,fixationCross,1723561.0,1725461.0,1900.0,40,R,1722022,1722248,228,852.7,545.3,4515,NA
23,1,continuous,40,99,fixationCross,1723561.0,1725461.0,1900.0,40,R,1722442,1723376,936,853.7,531.4,4933,NA
23,1,continuous,40,99,trial,1723561.0,1725461.0,1900.0,40,R,1723394,1723746,354,940.6,563.4,4552,NA
23,1,continuous,40,99,trial,1723561.0,1725461.0,1900.0,40,R,1723788,1723938,152,543.1,602.1,4666,left
23,1,continuous,40,99,trial,1723561.0,1725461.0,1900.0,40,R,1723958,1724390,434,479.5,609.9,4339,left
23,1,continuous,40,99,trial,1723561.0,1725461.0,1900.0,40,R,1724450,1724848,400,1326.0,599.8,4131,right
23,1,continuous,40,99,trial,1723561.0,1725461.0,1900.0,40,R,1724896,1725286,392,1389.1,951.4,4315,NA
23,1,continuous,40,99,trial,1723561.0,1725461.0,1900.0,40,R,1725302,1725762,462,1443.4,977.7,4391,NA
23,1,continuous,41,1,fixationCross,1726361.0,1728645.0,2284.0,41,R,1725964,1726260,298,1040.6,490.2,4869,NA
23,1,continuous,41,1,trial,1726361.0,1728645.0,2284.0,41,R,1726286,1726554,270,945.8,502.7,5052,NA
23,1,continuous,41,1,trial,1726361.0,1728645.0,2284.0,41,R,1726590,1726772,184,652.7,476.7,4795,left
23,1,continuous,41,1,trial,1726361.0,1728645.0,2284.0,41,R,1726826,1727086,262,1352.7,498.2,4348,right
23,1,continuous,41,1,trial,1726361.0,1728645.0,2284.0,41,R,1727108,1727320,214,1434.6,473.2,4142,right
23,1,continuous,41,1,trial,1726361.0,1728645.0,2284.0,41,R,1727342,1727590,250,1466.2,557.1,4068,right
23,1,continuous,41,1,trial,1726361.0,1728645.0,2284.0,41,R,1727668,1727848,182,455.4,531.3,4316,left
23,1,continuous,41,1,trial,1726361.0,1728645.0,2284.0,41,R,1727872,1728274,404,313.2,534.3,4360,left
23,1,continuous,41,1,trial,1726361.0,1728645.0,2284.0,41,R,1728284,1728456,174,319.7,523.4,4373,left
23,1,continuous,41,1,postResponse,1726361.0,1728645.0,2284.0,41,R,1728494,1728978,486,672.3,491.9,4430,left
23,1,continuous,42,1,fixationCross,1730644.0,1732695.0,2051.0,42,R,1729054,1730338,1286,700.3,506.9,4658,left
23,1,continuous,42,1,fixationCross,1730644.0,1732695.0,2051.0,42,R,1730364,1730506,144,920.2,534.4,4739,NA
23,1,continuous,42,1,trial,1730644.0,1732695.0,2051.0,42,R,1730524,1730796,274,956.7,561.7,4855,NA
23,1,continuous,42,1,trial,1730644.0,1732695.0,2051.0,42,R,1730846,1731128,284,500.4,531.1,4799,left
23,1,continuous,42,1,trial,1730644.0,1732695.0,2051.0,42,R,1731148,1731306,160,420.5,562.7,4344,left
23,1,continuous,42,1,trial,1730644.0,1732695.0,2051.0,42,R,1731370,1731766,398,1322.4,518.1,4084,right
23,1,continuous,42,1,trial,1730644.0,1732695.0,2051.0,42,R,1731836,1732136,302,626.0,965.6,4191,NA
23,1,continuous,42,1,trial,1730644.0,1732695.0,2051.0,42,R,1732186,1732980,796,470.5,1011.5,4229,NA
23,1,continuous,43,100,fixationCross,1733645.0,1735178.0,1533.0,43,R,1733104,1733192,90,722.9,744.8,4539,NA
23,1,continuous,43,100,fixationCross,1733645.0,1735178.0,1533.0,43,R,1733368,1733598,232,905.0,512.7,4774,NA
23,1,continuous,43,100,trial,1733645.0,1735178.0,1533.0,43,R,1733624,1733844,222,967.8,504.9,5046,NA
23,1,continuous,43,100,trial,1733645.0,1735178.0,1533.0,43,R,1733888,1734076,190,539.1,521.9,4803,left
23,1,continuous,43,100,trial,1733645.0,1735178.0,1533.0,43,R,1734106,1734240,136,422.2,478.0,4324,left
23,1,continuous,43,100,trial,1733645.0,1735178.0,1533.0,43,R,1734308,1734552,246,1416.1,516.2,3949,right
23,1,continuous,43,100,trial,1733645.0,1735178.0,1533.0,43,R,1734578,1734876,300,1367.4,632.1,3967,right
23,1,continuous,43,100,postResponse,1733645.0,1735178.0,1533.0,43,R,1734912,1735512,602,1459.5,493.4,4313,right
23,1,continuous,44,72,fixationCross,1736161.0,1738011.0,1850.0,44,R,1735612,1735716,106,1455.0,505.3,4509,right
23,1,continuous,44,72,fixationCross,1736161.0,1738011.0,1850.0,44,R,1735894,1736122,230,893.2,485.2,4754,NA
23,1,continuous,44,72,trial,1736161.0,1738011.0,1850.0,44,R,1736148,1736406,260,945.3,520.2,4878,NA
23,1,continuous,44,72,trial,1736161.0,1738011.0,1850.0,44,R,1736452,1736698,248,440.3,519.4,4692,left
23,1,continuous,44,72,trial,1736161.0,1738011.0,1850.0,44,R,1736724,1737020,298,419.1,448.4,4284,left
23,1,continuous,44,72,trial,1736161.0,1738011.0,1850.0,44,R,1737088,1737418,332,1358.4,531.5,4122,right
23,1,continuous,44,72,postResponse,1736161.0,1738011.0,1850.0,44,R,1737438,1738358,922,1385.3,585.6,4620,right
23,1,continuous,45,13,fixationCross,1738961.0,1741445.0,2484.0,45,R,1738458,1738506,50,1392.3,598.8,4550,right
23,1,continuous,45,13,fixationCross,1738961.0,1741445.0,2484.0,45,R,1738680,1738914,236,973.2,560.1,4743,NA
23,1,continuous,45,13,trial,1738961.0,1741445.0,2484.0,45,R,1738928,1739152,226,967.9,515.9,4895,NA
23,1,continuous,45,13,trial,1738961.0,1741445.0,2484.0,45,R,1739198,1739718,522,509.1,561.9,4587,left
23,1,continuous,45,13,trial,1738961.0,1741445.0,2484.0,45,R,1739786,1740102,318,1412.4,465.5,4266,right
23,1,continuous,45,13,trial,1738961.0,1741445.0,2484.0,45,R,1740126,1740362,238,1481.1,511.7,4290,right
23,1,continuous,45,13,trial,1738961.0,1741445.0,2484.0,45,R,1740440,1740656,218,481.6,715.5,4389,left
23,1,continuous,45,13,trial,1738961.0,1741445.0,2484.0,45,R,1740680,1740964,286,374.5,659.7,4303,left
23,1,continuous,45,13,postResponse,1738961.0,1741445.0,2484.0,45,R,1740990,1741806,818,509.6,579.9,4349,left
23,1,continuous,46,79,fixationCross,1742578.0,1744444.0,1866.0,46,R,1741912,1742268,358,1164.4,590.2,4518,NA
23,1,continuous,46,79,trial,1742578.0,1744444.0,1866.0,46,R,1742298,1742656,360,967.4,568.4,4807,NA
23,1,continuous,46,79,trial,1742578.0,1744444.0,1866.0,46,R,1742674,1742774,102,948.6,572.6,4693,NA
23,1,continuous,46,79,trial,1742578.0,1744444.0,1866.0,46,R,1742816,1743146,332,545.8,584.7,4461,left
23,1,continuous,46,79,trial,1742578.0,1744444.0,1866.0,46,R,1743158,1743232,76,493.8,593.7,4140,left
23,1,continuous,46,79,postResponse,1742578.0,1744444.0,1866.0,46,R,1743296,1744778,1484,1290.1,604.7,4090,right
23,1,continuous,47,1,fixationCross,1745512.0,1747878.0,2366.0,47,R,1744852,1745180,330,1298.0,616.4,4346,right
23,1,continuous,47,1,fixationCross,1745512.0,1747878.0,2366.0,47,R,1745216,1745392,178,1014.7,599.2,4548,NA
23,1,continuous,47,1,trial,1745512.0,1747878.0,2366.0,47,R,1745410,1745666,258,951.9,596.0,4525,NA
23,1,continuous,47,1,trial,1745512.0,1747878.0,2366.0,47,R,1745708,1746136,430,529.3,575.1,4289,left
23,1,continuous,47,1,trial,1745512.0,1747878.0,2366.0,47,R,1746202,1746562,362,1353.2,585.3,3906,right
23,1,continuous,47,1,trial,1745512.0,1747878.0,2366.0,47,R,1746580,1746756,178,1368.9,541.9,3983,right
23,1,continuous,47,1,trial,1745512.0,1747878.0,2366.0,47,R,1746828,1747222,396,425.3,564.4,4151,left
23,1,continuous,47,1,trial,1745512.0,1747878.0,2366.0,47,R,1747244,1747816,574,497.7,546.8,3863,left
23,1,continuous,47,1,postResponse,1745512.0,1747878.0,2366.0,47,R,1747842,1748214,374,651.1,580.9,3869,left
23,1,continuous,48,82,fixationCross,1750061.0,1752379.0,2318.0,48,R,1748314,1748340,28,660.4,594.7,4040,left
23,1,continuous,48,82,fixationCross,1750061.0,1752379.0,2318.0,48,R,1748514,1748540,28,657.3,568.2,4334,left
23,1,continuous,48,82,fixationCross,1750061.0,1752379.0,2318.0,48,R,1748554,1748916,364,645.8,502.7,4488,left
23,1,continuous,48,82,fixationCross,1750061.0,1752379.0,2318.0,48,R,1748936,1749724,790,553.2,536.1,4491,left
23,1,continuous,48,82,fixationCross,1750061.0,1752379.0,2318.0,48,R,1749758,1749926,170,898.2,563.2,4457,NA
23,1,continuous,48,82,trial,1750061.0,1752379.0,2318.0,48,R,1749950,1750206,258,944.2,570.3,4525,NA
23,1,continuous,48,82,trial,1750061.0,1752379.0,2318.0,48,R,1750248,1750474,228,556.8,580.2,4616,left
23,1,continuous,48,82,trial,1750061.0,1752379.0,2318.0,48,R,1750490,1750624,136,572.0,601.1,4348,left
23,1,continuous,48,82,trial,1750061.0,1752379.0,2318.0,48,R,1750686,1750896,212,1358.1,605.7,4089,right
23,1,continuous,48,82,trial,1750061.0,1752379.0,2318.0,48,R,1750922,1751560,640,1481.0,625.7,3995,right
23,1,continuous,48,82,trial,1750061.0,1752379.0,2318.0,48,R,1751588,1751844,258,1329.1,728.2,3923,right
23,1,continuous,48,82,trial,1750061.0,1752379.0,2318.0,48,R,1751872,1752670,800,1485.0,638.0,4075,right
23,1,continuous,49,68,fixationCross,1753528.0,1756328.0,2800.0,49,R,1752866,1753222,358,825.5,512.3,4591,NA
23,1,continuous,49,68,trial,1753528.0,1756328.0,2800.0,49,R,1753248,1753696,450,962.3,545.9,4795,NA
23,1,continuous,49,68,trial,1753528.0,1756328.0,2800.0,49,R,1753740,1753942,204,532.2,562.8,4552,left
23,1,continuous,49,68,trial,1753528.0,1756328.0,2800.0,49,R,1753966,1754214,250,404.9,542.7,4267,left
23,1,continuous,49,68,trial,1753528.0,1756328.0,2800.0,49,R,1754280,1754430,152,1329.3,552.9,4067,right
23,1,continuous,49,68,trial,1753528.0,1756328.0,2800.0,49,R,1754452,1754660,210,1432.4,550.8,4043,right
23,1,continuous,49,68,trial,1753528.0,1756328.0,2800.0,49,R,1754680,1755066,388,1504.3,556.1,4286,right
23,1,continuous,49,68,trial,1753528.0,1756328.0,2800.0,49,R,1755094,1755328,236,1515.3,452.4,4445,right
23,1,continuous,49,68,trial,1753528.0,1756328.0,2800.0,49,R,1755360,1755560,202,1262.3,455.4,4419,right
23,1,continuous,49,68,trial,1753528.0,1756328.0,2800.0,49,R,1755574,1755738,166,1225.2,441.5,4350,right
23,1,continuous,49,68,trial,1753528.0,1756328.0,2800.0,49,R,1755770,1755974,206,1475.2,471.2,4313,right
23,1,continuous,49,68,trial,1753528.0,1756328.0,2800.0,49,R,1755994,1756586,594,1507.6,498.0,4352,right
23,1,continuous,50,25,fixationCross,1757362.0,1759795.0,2433.0,50,R,1756762,1757074,314,1173.2,508.9,4628,NA
23,1,continuous,50,25,trial,1757362.0,1759795.0,2433.0,50,R,1757106,1757534,430,958.7,521.9,4927,NA
23,1,continuous,50,25,trial,1757362.0,1759795.0,2433.0,50,R,1757582,1757904,324,488.1,583.4,4630,left
23,1,continuous,50,25,trial,1757362.0,1759795.0,2433.0,50,R,1757924,1758300,378,399.6,599.9,4419,left
23,1,continuous,50,25,trial,1757362.0,1759795.0,2433.0,50,R,1758370,1758634,266,1378.6,571.1,4651,right
23,1,continuous,50,25,trial,1757362.0,1759795.0,2433.0,50,R,1758654,1758990,338,1439.0,594.8,4413,right
23,1,continuous,50,25,trial,1757362.0,1759795.0,2433.0,50,R,1759062,1759282,222,637.9,998.8,4282,NA
23,1,continuous,50,25,trial,1757362.0,1759795.0,2433.0,50,R,1759344,1760008,666,501.6,572.0,4614,left
23,1,continuous,50,25,postResponse,1757362.0,1759795.0,2433.0,50,R,1760090,1760130,42,1183.7,569.2,4950,right
23,2,binary,1,2,fixationCross,1833312.0,1837229.0,3917.0,51,R,1832561,1833009,450,1000.4,377.3,5367,NA
23,2,binary,1,2,fixationCross,1833312.0,1837229.0,3917.0,51,R,1833035,1833225,192,973.3,462.5,5159,NA
23,2,binary,1,2,trial,1833312.0,1837229.0,3917.0,51,R,1833237,1833527,292,978.8,494.8,5108,NA
23,2,binary,1,2,trial,1833312.0,1837229.0,3917.0,51,R,1833567,1833737,172,1329.2,475.8,5134,right
23,2,binary,1,2,trial,1833312.0,1837229.0,3917.0,51,R,1833799,1833985,188,1430.3,962.3,4817,NA
23,2,binary,1,2,trial,1833312.0,1837229.0,3917.0,51,R,1834037,1834375,340,812.7,920.5,4693,likertHorizontal
23,2,binary,1,2,trial,1833312.0,1837229.0,3917.0,51,R,1834411,1834607,198,515.0,964.5,4945,NA
23,2,binary,1,2,trial,1833312.0,1837229.0,3917.0,51,R,1834673,1835169,498,518.8,534.5,4914,left
23,2,binary,1,2,trial,1833312.0,1837229.0,3917.0,51,R,1835233,1835581,350,1366.5,495.4,4287,right
23,2,binary,1,2,trial,1833312.0,1837229.0,3917.0,51,R,1835629,1836987,1360,1421.9,969.0,5023,NA
23,2,binary,1,2,trial,1833312.0,1837229.0,3917.0,51,R,1837133,1837513,382,1440.5,448.5,5577,right
23,2,binary,2,2,fixationCross,1838346.0,1840229.0,1883.0,52,R,1837681,1838045,366,974.3,653.7,5604,NA
23,2,binary,2,2,fixationCross,1838346.0,1840229.0,1883.0,52,R,1838083,1838271,190,988.6,489.4,5560,NA
23,2,binary,2,2,trial,1838346.0,1840229.0,1883.0,52,R,1838285,1838503,220,989.0,522.7,5254,NA
23,2,binary,2,2,trial,1838346.0,1840229.0,1883.0,52,R,1838549,1838807,260,530.2,468.8,4923,left
23,2,binary,2,2,trial,1838346.0,1840229.0,1883.0,52,R,1838823,1838979,158,485.1,437.5,4631,left
23,2,binary,2,2,trial,1838346.0,1840229.0,1883.0,52,R,1839031,1839191,162,456.6,972.7,4380,NA
23,2,binary,2,2,trial,1838346.0,1840229.0,1883.0,52,R,1839257,1839407,152,1415.3,902.6,4311,NA
23,2,binary,2,2,trial,1838346.0,1840229.0,1883.0,52,R,1839445,1840477,1034,1351.5,490.6,4554,right
23,2,binary,3,1,fixationCross,1841296.0,1843746.0,2450.0,53,R,1840701,1840993,294,1136.0,500.1,5003,NA
23,2,binary,3,1,trial,1841296.0,1843746.0,2450.0,53,R,1841023,1841491,470,978.5,494.7,5223,NA
23,2,binary,3,1,trial,1841296.0,1843746.0,2450.0,53,R,1841531,1841951,422,584.1,538.5,4701,left
23,2,binary,3,1,trial,1841296.0,1843746.0,2450.0,53,R,1841991,1842165,176,473.2,841.1,4418,NA
23,2,binary,3,1,trial,1841296.0,1843746.0,2450.0,53,R,1842247,1842417,172,442.3,733.8,4375,NA
23,2,binary,3,1,trial,1841296.0,1843746.0,2450.0,53,R,1842483,1842799,318,1446.4,498.6,4454,right
23,2,binary,3,1,trial,1841296.0,1843746.0,2450.0,53,R,1842819,1842963,146,1464.7,540.2,4495,right
23,2,binary,3,1,trial,1841296.0,1843746.0,2450.0,53,R,1843039,1843371,334,550.4,484.8,4587,left
23,2,binary,3,1,trial,1841296.0,1843746.0,2450.0,53,R,1843391,1844031,642,509.3,494.2,4355,left
23,2,binary,4,1,fixationCross,1845779.0,1848829.0,3050.0,54,R,1844235,1845193,960,867.1,469.2,4727,NA
23,2,binary,4,1,fixationCross,1845779.0,1848829.0,3050.0,54,R,1845211,1845477,268,820.7,479.3,4559,NA
23,2,binary,4,1,trial,1845779.0,1848829.0,3050.0,54,R,1845505,1845969,466,980.6,523.4,4738,NA
23,2,binary,4,1,trial,1845779.0,1848829.0,3050.0,54,R,1846025,1846347,324,520.6,529.8,4781,left
23,2,binary,4,1,trial,1845779.0,1848829.0,3050.0,54,R,1846413,1846679,268,1361.8,548.1,4302,right
23,2,binary,4,1,trial,1845779.0,1848829.0,3050.0,54,R,1846697,1846899,204,1415.3,545.6,4236,right
23,2,binary,4,1,trial,1845779.0,1848829.0,3050.0,54,R,1846971,1847473,504,505.2,511.7,4313,left
23,2,binary,4,1,trial,1845779.0,1848829.0,3050.0,54,R,1847497,1848103,608,542.9,567.0,4453,left
23,2,binary,4,1,trial,1845779.0,1848829.0,3050.0,54,R,1848125,1848709,586,432.2,520.9,4347,left
23,2,binary,4,1,postResponse,1845779.0,1848829.0,3050.0,54,R,1848731,1849163,434,502.8,484.4,4268,left
23,2,binary,5,2,fixationCross,1850146.0,1852146.0,2000.0,55,R,1849263,1849433,172,517.8,480.7,4429,left
23,2,binary,5,2,fixationCross,1850146.0,1852146.0,2000.0,55,R,1849625,1849887,264,880.9,441.6,4641,NA
23,2,binary,5,2,trial,1850146.0,1852146.0,2000.0,55,R,1849911,1850313,404,962.5,488.4,4920,NA
23,2,binary,5,2,trial,1850146.0,1852146.0,2000.0,55,R,1850359,1850629,272,512.8,542.2,4607,left
23,2,binary,5,2,trial,1850146.0,1852146.0,2000.0,55,R,1850651,1850797,148,425.6,542.4,4103,left
23,2,binary,5,2,trial,1850146.0,1852146.0,2000.0,55,R,1850865,1851091,228,1309.6,569.2,3844,right
23,2,binary,5,2,postResponse,1850146.0,1852146.0,2000.0,55,R,1851117,1852483,1368,1423.4,531.4,4116,right
23,2,binary,6,1,fixationCross,1853246.0,1855830.0,2584.0,56,R,1852585,1852793,210,1414.6,544.5,4563,right
23,2,binary,6,1,fixationCross,1853246.0,1855830.0,2584.0,56,R,1852965,1853141,178,1007.3,504.6,4799,NA
23,2,binary,6,1,trial,1853246.0,1855830.0,2584.0,56,R,1853163,1853563,402,968.4,495.2,4885,NA
23,2,binary,6,1,trial,1853246.0,1855830.0,2584.0,56,R,1853607,1853971,366,562.3,511.0,4433,left
23,2,binary,6,1,trial,1853246.0,1855830.0,2584.0,56,R,1853989,1854153,166,601.4,480.3,4184,left
23,2,binary,6,1,trial,1853246.0,1855830.0,2584.0,56,R,1854217,1854673,458,1449.3,476.4,4118,right
23,2,binary,6,1,trial,1853246.0,1855830.0,2584.0,56,R,1854743,1855035,294,576.2,520.5,4028,left
23,2,binary,6,1,trial,1853246.0,1855830.0,2584.0,56,R,1855067,1855435,370,412.5,672.4,4162,left
23,2,binary,6,1,trial,1853246.0,1855830.0,2584.0,56,R,1855469,1855699,232,597.9,507.7,4445,left
23,2,binary,6,1,postResponse,1853246.0,1855830.0,2584.0,56,R,1855721,1856163,444,628.8,461.3,4445,left
23,2,binary,7,2,fixationCross,1857013.0,1858663.0,1650.0,57,R,1856263,1856679,418,643.2,471.7,4661,left
23,2,binary,7,2,trial,1857013.0,1858663.0,1650.0,57,R,1856721,1857169,450,979.0,543.9,4646,NA
23,2,binary,7,2,trial,1857013.0,1858663.0,1650.0,57,R,1857215,1857371,158,559.3,546.0,4763,left
23,2,binary,7,2,trial,1857013.0,1858663.0,1650.0,57,R,1857393,1857541,150,597.6,537.0,4687,left
23,2,binary,7,2,trial,1857013.0,1858663.0,1650.0,57,R,1857565,1857779,216,475.7,505.3,4429,left
23,2,binary,7,2,trial,1857013.0,1858663.0,1650.0,57,R,1857847,1858541,696,1422.0,587.8,4256,right
23,2,binary,7,2,postResponse,1857013.0,1858663.0,1650.0,57,R,1858561,1858997,438,1510.2,589.0,4221,right
23,2,binary,8,1,fixationCross,1859796.0,1862413.0,2617.0,58,R,1859097,1859195,100,1508.4,595.6,4494,right
23,2,binary,8,1,fixationCross,1859796.0,1862413.0,2617.0,58,R,1859337,1859481,146,1161.6,570.6,4829,NA
23,2,binary,8,1,fixationCross,1859796.0,1862413.0,2617.0,58,R,1859509,1859683,176,993.6,507.9,4831,NA
23,2,binary,8,1,trial,1859796.0,1862413.0,2617.0,58,R,1859691,1860013,324,974.8,511.0,4997,NA
23,2,binary,8,1,trial,1859796.0,1862413.0,2617.0,58,R,1860051,1860303,254,629.3,512.7,4801,left
23,2,binary,8,1,trial,1859796.0,1862413.0,2617.0,58,R,1860323,1860643,322,575.8,485.5,4375,left
23,2,binary,8,1,trial,1859796.0,1862413.0,2617.0,58,R,1860701,1860887,188,1384.1,498.0,4205,right
23,2,binary,8,1,trial,1859796.0,1862413.0,2617.0,58,R,1860909,1861211,304,1451.9,518.7,4181,right
23,2,binary,8,1,trial,1859796.0,1862413.0,2617.0,58,R,1861223,1861621,400,1485.1,515.6,4055,right
23,2,binary,8,1,trial,1859796.0,1862413.0,2617.0,58,R,1861693,1862137,446,595.0,522.7,4003,left
23,2,binary,8,1,postResponse,1859796.0,1862413.0,2617.0,58,R,1862151,1862747,598,596.0,478.7,4262,left
23,2,binary,9,1,fixationCross,1863496.0,1866713.0,3217.0,59,R,1862847,1863001,156,597.6,471.4,4445,left
23,2,binary,9,1,trial,1863496.0,1866713.0,3217.0,59,R,1863209,1863657,450,924.7,506.6,4784,NA
23,2,binary,9,1,trial,1863496.0,1866713.0,3217.0,59,R,1863711,1863931,222,500.8,470.0,4753,left
23,2,binary,9,1,trial,1863496.0,1866713.0,3217.0,59,R,1863953,1864611,660,510.1,473.4,4029,left
23,2,binary,9,1,trial,1863496.0,1866713.0,3217.0,59,R,1864629,1864789,162,485.2,533.9,4075,left
23,2,binary,9,1,trial,1863496.0,1866713.0,3217.0,59,R,1864855,1865149,296,1393.8,468.4,4215,right
23,2,binary,9,1,trial,1863496.0,1866713.0,3217.0,59,R,1865167,1865339,174,1416.4,427.0,4210,right
23,2,binary,9,1,trial,1863496.0,1866713.0,3217.0,59,R,1865363,1865557,196,1520.3,444.5,4287,right
23,2,binary,9,1,trial,1863496.0,1866713.0,3217.0,59,R,1865627,1865821,196,542.5,429.2,4453,left
23,2,binary,9,1,trial,1863496.0,1866713.0,3217.0,59,R,1865839,1866589,752,514.3,477.9,4416,left
23,2,binary,9,1,postResponse,1863496.0,1866713.0,3217.0,59,R,1866651,1867047,398,1386.2,469.8,4545,right
23,2,binary,10,1,fixationCross,1867646.0,1870246.0,2600.0,60,R,1867121,1867333,214,1387.1,478.0,4744,right
23,2,binary,10,1,trial,1867646.0,1870246.0,2600.0,60,R,1867393,1867811,420,884.3,511.5,4927,NA
23,2,binary,10,1,trial,1867646.0,1870246.0,2600.0,60,R,1867851,1868127,278,563.1,508.2,4848,left
23,2,binary,10,1,trial,1867646.0,1870246.0,2600.0,60,R,1868151,1868343,194,460.6,549.1,4451,left
23,2,binary,10,1,trial,1867646.0,1870246.0,2600.0,60,R,1868407,1868893,488,1392.8,471.2,4246,right
23,2,binary,10,1,trial,1867646.0,1870246.0,2600.0,60,R,1868911,1869051,142,1408.2,515.6,4334,right
23,2,binary,10,1,trial,1867646.0,1870246.0,2600.0,60,R,1869121,1869629,510,544.6,522.3,4314,left
23,2,binary,10,1,postResponse,1867646.0,1870246.0,2600.0,60,R,1869651,1870581,932,471.7,613.7,4314,left
23,2,binary,11,1,fixationCross,1872946.0,1875629.0,2683.0,61,R,1870683,1872531,1850,628.5,526.3,4563,left
23,2,binary,11,1,fixationCross,1872946.0,1875629.0,2683.0,61,R,1872689,1872879,192,958.8,510.4,4914,NA
23,2,binary,11,1,trial,1872946.0,1875629.0,2683.0,61,R,1872901,1873109,210,985.5,497.1,4909,NA
23,2,binary,11,1,trial,1872946.0,1875629.0,2683.0,61,R,1873155,1873507,354,532.0,521.3,4610,left
23,2,binary,11,1,trial,1872946.0,1875629.0,2683.0,61,R,1873569,1873791,224,1381.3,527.1,4026,right
23,2,binary,11,1,trial,1872946.0,1875629.0,2683.0,61,R,1873813,1874189,378,1461.1,510.0,3999,right
23,2,binary,11,1,trial,1872946.0,1875629.0,2683.0,61,R,1874265,1875087,824,488.9,539.4,4159,left
23,2,binary,11,1,postResponse,1872946.0,1875629.0,2683.0,61,R,1875111,1875967,858,475.7,432.3,4209,left
23,2,binary,12,1,fixationCross,1876996.0,1878896.0,1900.0,62,R,1876067,1876263,198,682.7,475.3,4357,left
23,2,binary,12,1,fixationCross,1876996.0,1878896.0,1900.0,62,R,1876441,1876805,366,823.4,478.0,4789,NA
23,2,binary,12,1,trial,1876996.0,1878896.0,1900.0,62,R,1876843,1877165,324,960.3,491.8,4920,NA
23,2,binary,12,1,trial,1876996.0,1878896.0,1900.0,62,R,1877209,1877577,370,530.9,548.6,4456,left
23,2,binary,12,1,trial,1876996.0,1878896.0,1900.0,62,R,1877599,1877747,150,475.7,525.4,4075,left
23,2,binary,12,1,trial,1876996.0,1878896.0,1900.0,62,R,1877815,1878255,442,1377.0,507.5,4041,right
23,2,binary,12,1,postResponse,1876996.0,1878896.0,1900.0,62,R,1878325,1879233,910,538.3,563.3,4256,left
23,2,binary,13,1,fixationCross,1880096.0,1882463.0,2367.0,63,R,1879307,1879411,106,549.2,569.3,4397,left
23,2,binary,13,1,fixationCross,1880096.0,1882463.0,2367.0,63,R,1879435,1879779,346,740.7,545.3,4574,NA
23,2,binary,13,1,trial,1880096.0,1882463.0,2367.0,63,R,1879809,1880307,500,975.2,540.5,4710,NA
23,2,binary,13,1,trial,1880096.0,1882463.0,2367.0,63,R,1880349,1880541,194,557.9,583.1,4648,left
23,2,binary,13,1,trial,1880096.0,1882463.0,2367.0,63,R,1880561,1880879,320,479.3,575.9,4213,left
23,2,binary,13,1,trial,1880096.0,1882463.0,2367.0,63,R,1881051,1881659,610,1428.4,450.3,4288,right
23,2,binary,13,1,trial,1880096.0,1882463.0,2367.0,63,R,1881681,1881859,180,1491.9,451.0,4506,right
23,2,binary,13,1,trial,1880096.0,1882463.0,2367.0,63,R,1881929,1882209,282,577.4,544.6,4470,left
23,2,binary,13,1,postResponse,1880096.0,1882463.0,2367.0,63,R,1882231,1882813,584,486.8,560.4,4233,left
23,2,binary,14,2,fixationCross,1883596.0,1885597.0,2001.0,64,R,1882921,1883121,202,602.7,544.1,4360,left
23,2,binary,14,2,fixationCross,1883596.0,1885597.0,2001.0,64,R,1883307,1883473,168,885.8,516.1,4744,NA
23,2,binary,14,2,trial,1883596.0,1885597.0,2001.0,64,R,1883499,1883757,260,983.0,483.4,4928,NA
23,2,binary,14,2,trial,1883596.0,1885597.0,2001.0,64,R,1883809,1884059,252,596.5,515.7,4823,left
23,2,binary,14,2,trial,1883596.0,1885597.0,2001.0,64,R,1884083,1884397,316,529.3,601.7,4313,left
23,2,binary,14,2,trial,1883596.0,1885597.0,2001.0,64,R,1884429,1884591,164,353.8,487.1,4216,left
23,2,binary,14,2,trial,1883596.0,1885597.0,2001.0,64,R,1884667,1884791,126,1405.8,379.8,4311,right
23,2,binary,14,2,postResponse,1883596.0,1885597.0,2001.0,64,R,1884815,1885931,1118,1503.5,382.9,4284,right
23,2,binary,15,1,fixationCross,1886646.0,1889463.0,2817.0,65,R,1886033,1886317,286,1505.0,389.9,4438,right
23,2,binary,15,1,fixationCross,1886646.0,1889463.0,2817.0,65,R,1886367,1886575,210,984.0,548.1,4662,NA
23,2,binary,15,1,trial,1886646.0,1889463.0,2817.0,65,R,1886591,1886905,316,973.2,542.8,4727,NA
23,2,binary,15,1,trial,1886646.0,1889463.0,2817.0,65,R,1886951,1887571,622,479.2,530.0,4411,left
23,2,binary,15,1,trial,1886646.0,1889463.0,2817.0,65,R,1887593,1887695,104,558.4,455.0,4110,left
23,2,binary,15,1,trial,1886646.0,1889463.0,2817.0,65,R,1887755,1887953,200,1393.0,393.0,4077,right
23,2,binary,15,1,trial,1886646.0,1889463.0,2817.0,65,R,1887973,1888137,166,1431.0,384.3,4131,right
23,2,binary,15,1,trial,1886646.0,1889463.0,2817.0,65,R,1888165,1888525,362,1448.4,508.3,4346,right
23,2,binary,15,1,trial,1886646.0,1889463.0,2817.0,65,R,1888605,1889005,402,485.7,540.4,4398,left
23,2,binary,15,1,trial,1886646.0,1889463.0,2817.0,65,R,1889039,1889217,180,428.5,627.1,4287,left
23,2,binary,15,1,postResponse,1886646.0,1889463.0,2817.0,65,R,1889239,1889799,562,385.7,679.8,4238,left
23,2,binary,16,2,fixationCross,1890613.0,1893513.0,2900.0,66,R,1889873,1889921,50,584.3,622.3,4478,left
23,2,binary,16,2,fixationCross,1890613.0,1893513.0,2900.0,66,R,1890087,1890309,224,788.8,458.7,4533,NA
23,2,binary,16,2,trial,1890613.0,1893513.0,2900.0,66,R,1890337,1890767,432,963.8,486.8,4758,NA
23,2,binary,16,2,trial,1890613.0,1893513.0,2900.0,66,R,1890809,1891119,312,575.0,534.3,4640,left
23,2,binary,16,2,trial,1890613.0,1893513.0,2900.0,66,R,1891141,1891241,102,537.2,560.0,4299,left
23,2,binary,16,2,trial,1890613.0,1893513.0,2900.0,66,R,1891301,1891573,274,1384.4,484.3,4097,right
23,2,binary,16,2,trial,1890613.0,1893513.0,2900.0,66,R,1891601,1891773,174,1510.8,406.0,4090,right
23,2,binary,16,2,trial,1890613.0,1893513.0,2900.0,66,R,1891791,1891803,14,1522.3,394.9,4157,right
23,2,binary,16,2,trial,1890613.0,1893513.0,2900.0,66,R,1891827,1892023,198,1435.0,370.0,4240,right
23,2,binary,16,2,trial,1890613.0,1893513.0,2900.0,66,R,1892093,1892495,404,552.0,596.1,4399,left
23,2,binary,16,2,trial,1890613.0,1893513.0,2900.0,66,R,1892559,1892939,382,1430.6,663.1,4216,right
23,2,binary,16,2,trial,1890613.0,1893513.0,2900.0,66,R,1892965,1893205,242,1411.6,573.0,4322,right
23,2,binary,16,2,trial,1890613.0,1893513.0,2900.0,66,R,1893257,1893471,216,1444.8,995.1,4394,NA
23,2,binary,16,2,trial,1890613.0,1893513.0,2900.0,66,R,1893489,1893827,340,1408.7,1009.2,4591,NA
23,2,binary,17,2,fixationCross,1894680.0,1896996.0,2316.0,67,R,1894069,1894351,284,956.9,409.2,4902,NA
23,2,binary,17,2,trial,1894680.0,1896996.0,2316.0,67,R,1894391,1894885,496,977.8,500.5,4960,NA
23,2,binary,17,2,trial,1894680.0,1896996.0,2316.0,67,R,1894927,1895181,256,544.5,559.2,4602,left
23,2,binary,17,2,trial,1894680.0,1896996.0,2316.0,67,R,1895241,1895619,380,1351.0,593.7,4235,right
23,2,binary,17,2,trial,1894680.0,1896996.0,2316.0,67,R,1895643,1896049,408,1443.4,575.8,4296,right
23,2,binary,17,2,trial,1894680.0,1896996.0,2316.0,67,R,1896073,1896449,378,1333.3,608.8,4442,right
23,2,binary,17,2,trial,1894680.0,1896996.0,2316.0,67,R,1896487,1896673,188,1414.1,888.6,4466,NA
23,2,binary,17,2,trial,1894680.0,1896996.0,2316.0,67,R,1896699,1897291,594,1445.2,1003.3,4627,NA
23,2,binary,18,2,fixationCross,1897980.0,1900213.0,2233.0,68,R,1897431,1897619,190,1379.6,941.6,4863,NA
23,2,binary,18,2,fixationCross,1897980.0,1900213.0,2233.0,68,R,1897671,1897841,172,1024.2,588.6,5069,NA
23,2,binary,18,2,trial,1897980.0,1900213.0,2233.0,68,R,1897861,1898135,276,976.7,543.7,4959,NA
23,2,binary,18,2,trial,1897980.0,1900213.0,2233.0,68,R,1898187,1898367,182,596.1,542.1,4823,left
23,2,binary,18,2,trial,1897980.0,1900213.0,2233.0,68,R,1898391,1898489,100,528.3,597.6,4601,left
23,2,binary,18,2,trial,1897980.0,1900213.0,2233.0,68,R,1898549,1898709,162,1359.0,564.8,4249,right
23,2,binary,18,2,trial,1897980.0,1900213.0,2233.0,68,R,1898737,1899477,742,1506.2,554.8,4156,right
23,2,binary,18,2,trial,1897980.0,1900213.0,2233.0,68,R,1899537,1899783,248,1423.2,993.5,4329,NA
23,2,binary,18,2,trial,1897980.0,1900213.0,2233.0,68,R,1899855,1900151,298,541.5,548.6,4413,left
23,2,binary,18,2,postResponse,1897980.0,1900213.0,2233.0,68,R,1900209,1900547,340,1350.6,481.3,4212,right
23,2,binary,19,1,fixationCross,1901113.0,1903263.0,2150.0,69,R,1900785,1901097,314,942.7,571.8,4666,NA
23,2,binary,19,1,trial,1901113.0,1903263.0,2150.0,69,R,1901123,1901291,170,986.1,499.5,4960,NA
23,2,binary,19,1,trial,1901113.0,1903263.0,2150.0,69,R,1901345,1901519,176,520.8,425.0,4935,left
23,2,binary,19,1,trial,1901113.0,1903263.0,2150.0,69,R,1901539,1901729,192,484.2,390.2,4487,left
23,2,binary,19,1,trial,1901113.0,1903263.0,2150.0,69,R,1901789,1902023,236,1347.6,518.4,4042,right
23,2,binary,19,1,trial,1901113.0,1903263.0,2150.0,69,R,1902043,1902455,414,1380.7,496.4,4145,right
23,2,binary,19,1,trial,1901113.0,1903263.0,2150.0,69,R,1902525,1902703,180,488.6,442.7,4394,left
23,2,binary,19,1,postResponse,1901113.0,1903263.0,2150.0,69,R,1902715,1903599,886,468.5,436.8,4194,left
23,2,binary,20,1,fixationCross,1905463.0,1908263.0,2800.0,70,R,1903699,1903723,26,477.4,446.8,4192,left
23,2,binary,20,1,fixationCross,1905463.0,1908263.0,2800.0,70,R,1903779,1905167,1390,846.9,562.3,4624,NA
23,2,binary,20,1,fixationCross,1905463.0,1908263.0,2800.0,70,R,1905189,1905361,174,944.7,554.9,4666,NA
23,2,binary,20,1,trial,1905463.0,1908263.0,2800.0,70,R,1905381,1905623,244,973.9,556.1,4720,NA
23,2,binary,20,1,trial,1905463.0,1908263.0,2800.0,70,R,1905667,1905859,194,595.2,576.1,4723,left
23,2,binary,20,1,trial,1905463.0,1908263.0,2800.0,70,R,1905881,1906075,196,526.4,536.2,4411,left
23,2,binary,20,1,trial,1905463.0,1908263.0,2800.0,70,R,1906139,1906361,224,1410.0,627.0,4142,right
23,2,binary,20,1,trial,1905463.0,1908263.0,2800.0,70,R,1906381,1906617,238,1384.8,575.5,4020,right
23,2,binary,20,1,trial,1905463.0,1908263.0,2800.0,70,R,1906683,1906883,202,554.2,539.9,4001,left
23,2,binary,20,1,trial,1905463.0,1908263.0,2800.0,70,R,1906905,1907327,424,499.3,514.4,4046,left
23,2,binary,20,1,trial,1905463.0,1908263.0,2800.0,70,R,1907391,1907743,354,1372.0,586.8,4203,right
23,2,binary,20,1,trial,1905463.0,1908263.0,2800.0,70,R,1907753,1907885,134,1382.4,577.8,4096,right
23,2,binary,20,1,trial,1905463.0,1908263.0,2800.0,70,R,1907947,1908111,166,598.9,502.4,4053,left
23,2,binary,20,1,postResponse,1905463.0,1908263.0,2800.0,70,R,1908133,1908597,466,504.8,510.1,4092,left
23,2,binary,21,1,trial,1909163.0,1911213.0,2050.0,71,R,1908865,1909225,362,961.7,489.4,4559,NA
23,2,binary,21,1,trial,1909163.0,1911213.0,2050.0,71,R,1909233,1909363,132,977.1,484.5,4792,NA
23,2,binary,21,1,trial,1909163.0,1911213.0,2050.0,71,R,1909417,1909881,466,553.9,485.7,4394,left
23,2,binary,21,1,trial,1909163.0,1911213.0,2050.0,71,R,1909947,1910329,384,1455.8,522.2,3834,right
23,2,binary,21,1,trial,1909163.0,1911213.0,2050.0,71,R,1910391,1910559,170,641.6,484.8,4063,left
23,2,binary,21,1,trial,1909163.0,1911213.0,2050.0,71,R,1910583,1910859,278,557.7,526.9,4103,left
23,2,binary,21,1,postResponse,1909163.0,1911213.0,2050.0,71,R,1910881,1911549,670,563.7,468.6,4083,left
23,2,binary,22,1,fixationCross,1912397.0,1914614.0,2217.0,72,R,1911759,1912081,324,823.6,475.6,4385,NA
23,2,binary,22,1,trial,1912397.0,1914614.0,2217.0,72,R,1912109,1912573,466,973.0,502.4,4716,NA
23,2,binary,22,1,trial,1912397.0,1914614.0,2217.0,72,R,1912615,1912895,282,583.0,516.6,4551,left
23,2,binary,22,1,trial,1912397.0,1914614.0,2217.0,72,R,1912953,1913163,212,1354.6,477.0,4175,right
23,2,binary,22,1,trial,1912397.0,1914614.0,2217.0,72,R,1913181,1913375,196,1374.2,448.1,4062,right
23,2,binary,22,1,trial,1912397.0,1914614.0,2217.0,72,R,1913387,1913753,368,1369.1,429.3,4153,right
23,2,binary,22,1,trial,1912397.0,1914614.0,2217.0,72,R,1913819,1914385,568,561.3,520.5,4210,left
23,2,binary,22,1,postResponse,1912397.0,1914614.0,2217.0,72,R,1914403,1914949,548,512.7,489.9,4076,left
23,2,binary,23,1,fixationCross,1915513.0,1918246.0,2733.0,73,R,1915149,1915495,348,905.8,464.9,4431,NA
23,2,binary,23,1,trial,1915513.0,1918246.0,2733.0,73,R,1915519,1915681,164,965.1,476.2,4742,NA
23,2,binary,23,1,trial,1915513.0,1918246.0,2733.0,73,R,1915725,1915907,184,545.0,516.0,4649,left
23,2,binary,23,1,trial,1915513.0,1918246.0,2733.0,73,R,1915931,1916205,276,476.3,579.4,4303,left
23,2,binary,23,1,trial,1915513.0,1918246.0,2733.0,73,R,1916267,1916495,230,1370.6,452.4,4193,right
23,2,binary,23,1,trial,1915513.0,1918246.0,2733.0,73,R,1916539,1916845,308,1581.9,665.7,4211,right
23,2,binary,23,1,trial,1915513.0,1918246.0,2733.0,73,R,1916881,1916941,62,1536.0,503.4,4210,right
23,2,binary,23,1,trial,1915513.0,1918246.0,2733.0,73,R,1916969,1917133,166,1492.3,383.5,4096,right
23,2,binary,23,1,trial,1915513.0,1918246.0,2733.0,73,R,1917207,1917801,596,450.4,599.2,4226,left
23,2,binary,23,1,trial,1915513.0,1918246.0,2733.0,73,R,1917837,1918041,206,584.5,675.3,4570,left
23,2,binary,23,1,trial,1915513.0,1918246.0,2733.0,73,R,1918083,1918479,398,375.5,444.9,4382,left
23,2,binary,23,1,postResponse,1915513.0,1918246.0,2733.0,73,R,1918525,1918583,60,789.7,475.3,4369,NA
23,2,binary,24,2,fixationCross,1919447.0,1921846.0,2399.0,74,R,1918657,1919141,486,786.2,488.2,4480,NA
23,2,binary,24,2,trial,1919447.0,1921846.0,2399.0,74,R,1919169,1919617,450,949.8,546.7,4660,NA
23,2,binary,24,2,trial,1919447.0,1921846.0,2399.0,74,R,1919661,1920163,504,512.7,585.5,4478,left
23,2,binary,24,2,trial,1919447.0,1921846.0,2399.0,74,R,1920229,1920575,348,1381.8,591.1,4128,right
23,2,binary,24,2,trial,1919447.0,1921846.0,2399.0,74,R,1920585,1920737,154,1398.7,591.4,4154,right
23,2,binary,24,2,trial,1919447.0,1921846.0,2399.0,74,R,1920761,1921173,414,1293.1,552.4,4238,right
23,2,binary,24,2,trial,1919447.0,1921846.0,2399.0,74,R,1921193,1921475,284,1257.9,513.0,4272,right
23,2,binary,24,2,trial,1919447.0,1921846.0,2399.0,74,R,1921505,1921829,326,1378.8,618.5,4322,right
23,2,binary,24,2,postResponse,1919447.0,1921846.0,2399.0,74,R,1921849,1922181,334,1399.3,600.6,4326,right
23,2,binary,25,2,fixationCross,1922897.0,1925196.0,2299.0,75,R,1922411,1922601,192,1139.3,468.7,4436,NA
23,2,binary,25,2,trial,1922897.0,1925196.0,2299.0,75,R,1922629,1922981,354,966.8,484.6,4667,NA
23,2,binary,25,2,trial,1922897.0,1925196.0,2299.0,75,R,1923139,1923363,226,490.2,463.9,4700,left
23,2,binary,25,2,trial,1922897.0,1925196.0,2299.0,75,R,1923379,1923587,210,510.4,429.3,4497,left
23,2,binary,25,2,trial,1922897.0,1925196.0,2299.0,75,R,1923649,1923849,202,1390.2,484.4,4184,right
23,2,binary,25,2,trial,1922897.0,1925196.0,2299.0,75,R,1923871,1924027,158,1475.0,500.1,4094,right
23,2,binary,25,2,trial,1922897.0,1925196.0,2299.0,75,R,1924045,1925039,996,1415.5,542.9,4365,right
23,2,binary,25,2,postResponse,1922897.0,1925196.0,2299.0,75,R,1925051,1925529,480,1441.2,547.1,4398,right
23,2,binary,26,1,fixationCross,1950030.0,1952130.0,2100.0,76,R,1949225,1949715,492,955.4,323.4,4819,NA
23,2,binary,26,1,trial,1950030.0,1952130.0,2100.0,76,R,1949751,1950277,528,977.3,541.1,5039,NA
23,2,binary,26,1,trial,1950030.0,1952130.0,2100.0,76,R,1950429,1950653,226,645.9,619.8,4843,left
23,2,binary,26,1,trial,1950030.0,1952130.0,2100.0,76,R,1950675,1950869,196,598.6,559.6,4723,left
23,2,binary,26,1,trial,1950030.0,1952130.0,2100.0,76,R,1950929,1951149,222,1493.5,469.4,4465,right
23,2,binary,26,1,trial,1950030.0,1952130.0,2100.0,76,R,1951173,1951331,160,1569.5,501.0,4243,right
23,2,binary,26,1,trial,1950030.0,1952130.0,2100.0,76,R,1951417,1951631,216,640.9,492.9,4283,left
23,2,binary,26,1,trial,1950030.0,1952130.0,2100.0,76,R,1951657,1951885,230,572.6,579.2,4388,left
23,2,binary,26,1,trial,1950030.0,1952130.0,2100.0,76,R,1951907,1952407,502,631.8,591.6,4427,left
23,2,binary,26,1,postResponse,1950030.0,1952130.0,2100.0,76,R,1952423,1952465,44,675.3,569.4,4395,left
23,2,binary,27,1,fixationCross,1953230.0,1954613.0,1383.0,77,R,1952565,1952915,352,680.7,573.8,4500,left
23,2,binary,27,1,trial,1953230.0,1954613.0,1383.0,77,R,1952949,1953411,464,975.0,546.1,4681,NA
23,2,binary,27,1,trial,1953230.0,1954613.0,1383.0,77,R,1953455,1953901,448,549.2,595.3,4483,left
23,2,binary,27,1,trial,1953230.0,1954613.0,1383.0,77,R,1953973,1954293,322,1484.6,463.3,3955,right
23,2,binary,27,1,trial,1953230.0,1954613.0,1383.0,77,R,1954307,1954439,134,1440.2,453.5,3954,right
23,2,binary,27,1,postResponse,1953230.0,1954613.0,1383.0,77,R,1954511,1954949,440,520.1,576.8,4145,left
23,2,binary,28,1,fixationCross,1956713.0,1959348.0,2635.0,78,R,1955023,1956313,1292,661.5,569.5,4547,left
23,2,binary,28,1,fixationCross,1956713.0,1959348.0,2635.0,78,R,1956477,1956627,152,942.3,506.8,4844,NA
23,2,binary,28,1,trial,1956713.0,1959348.0,2635.0,78,R,1956649,1956891,244,968.1,533.3,4846,NA
23,2,binary,28,1,trial,1956713.0,1959348.0,2635.0,78,R,1956935,1957149,216,586.5,493.8,4859,left
23,2,binary,28,1,trial,1956713.0,1959348.0,2635.0,78,R,1957211,1957383,174,985.3,965.9,4504,likertHorizontal
23,2,binary,28,1,trial,1956713.0,1959348.0,2635.0,78,R,1957431,1957803,374,484.1,474.6,4213,left
23,2,binary,28,1,trial,1956713.0,1959348.0,2635.0,78,R,1957869,1958585,718,1402.6,540.4,4262,right
23,2,binary,28,1,trial,1956713.0,1959348.0,2635.0,78,R,1958655,1959347,694,512.1,569.7,4276,left
23,2,binary,28,1,postResponse,1956713.0,1959348.0,2635.0,78,R,1959369,1959681,314,605.8,546.7,4218,left
23,2,binary,29,2,fixationCross,1960581.0,1962464.0,1883.0,79,R,1959757,1960177,422,617.2,553.1,4504,left
23,2,binary,29,2,trial,1960581.0,1962464.0,1883.0,79,R,1960357,1960583,228,1006.3,496.8,4673,NA
23,2,binary,29,2,trial,1960581.0,1962464.0,1883.0,79,R,1960603,1960747,146,955.1,522.3,4726,NA
23,2,binary,29,2,trial,1960581.0,1962464.0,1883.0,79,R,1960789,1961183,396,551.8,483.1,4632,left
23,2,binary,29,2,trial,1960581.0,1962464.0,1883.0,79,R,1961251,1962033,784,1461.4,594.5,4114,right
23,2,binary,29,2,trial,1960581.0,1962464.0,1883.0,79,R,1962105,1962259,156,822.4,490.0,4317,NA
23,2,binary,29,2,postResponse,1960581.0,1962464.0,1883.0,79,R,1962299,1962799,502,550.7,483.3,4289,left
23,2,binary,30,1,fixationCross,1963747.0,1965280.0,1533.0,80,R,1962899,1963439,542,567.0,492.8,4483,left
23,2,binary,30,1,trial,1963747.0,1965280.0,1533.0,80,R,1963477,1963897,422,927.1,548.6,4642,NA
23,2,binary,30,1,trial,1963747.0,1965280.0,1533.0,80,R,1963939,1964127,190,539.4,521.5,4767,left
23,2,binary,30,1,trial,1963747.0,1965280.0,1533.0,80,R,1964153,1964285,134,419.7,518.9,4478,left
23,2,binary,30,1,trial,1963747.0,1965280.0,1533.0,80,R,1964351,1964579,230,1373.6,592.2,4090,right
23,2,binary,30,1,trial,1963747.0,1965280.0,1533.0,80,R,1964601,1964991,392,1412.8,636.1,4103,right
23,2,binary,30,1,trial,1963747.0,1965280.0,1533.0,80,R,1965063,1965281,220,474.3,509.8,4282,left
23,2,binary,30,1,postResponse,1963747.0,1965280.0,1533.0,80,R,1965301,1965615,316,409.7,510.2,4172,left
23,2,binary,31,1,fixationCross,1966214.0,1968047.0,1833.0,81,R,1965923,1966195,274,873.2,522.4,4577,NA
23,2,binary,31,1,trial,1966214.0,1968047.0,1833.0,81,R,1966221,1966395,176,985.1,511.6,4807,NA
23,2,binary,31,1,trial,1966214.0,1968047.0,1833.0,81,R,1966447,1966667,222,642.6,520.8,4793,left
23,2,binary,31,1,trial,1966214.0,1968047.0,1833.0,81,R,1966703,1966869,168,402.2,402.2,4356,left
23,2,binary,31,1,trial,1966214.0,1968047.0,1833.0,81,R,1966933,1967099,168,1309.7,563.9,4136,right
23,2,binary,31,1,trial,1966214.0,1968047.0,1833.0,81,R,1967119,1967555,438,1357.7,584.8,4202,right
23,2,binary,31,1,trial,1966214.0,1968047.0,1833.0,81,R,1967621,1967865,246,543.7,536.8,4391,left
23,2,binary,31,1,postResponse,1966214.0,1968047.0,1833.0,81,R,1967891,1968379,490,678.7,552.0,4241,left
23,2,binary,32,1,fixationCross,1969264.0,1971130.0,1866.0,82,R,1968455,1968669,216,686.3,562.6,4386,left
23,2,binary,32,1,fixationCross,1969264.0,1971130.0,1866.0,82,R,1968689,1968923,236,754.0,545.7,4571,NA
23,2,binary,32,1,trial,1969264.0,1971130.0,1866.0,82,R,1968957,1969415,460,962.2,561.5,4621,NA
23,2,binary,32,1,trial,1969264.0,1971130.0,1866.0,82,R,1969457,1969747,292,596.9,590.1,4553,left
23,2,binary,32,1,trial,1969264.0,1971130.0,1866.0,82,R,1969775,1969891,118,448.2,519.2,4229,left
23,2,binary,32,1,trial,1969264.0,1971130.0,1866.0,82,R,1969963,1970123,162,1528.3,580.4,4042,right
23,2,binary,32,1,trial,1969264.0,1971130.0,1866.0,82,R,1970143,1970459,318,1566.6,567.2,4040,right
23,2,binary,32,1,trial,1969264.0,1971130.0,1866.0,82,R,1970535,1970723,190,515.3,755.8,4305,NA
23,2,binary,32,1,trial,1969264.0,1971130.0,1866.0,82,R,1970755,1971001,248,605.8,585.4,4336,left
23,2,binary,32,1,postResponse,1969264.0,1971130.0,1866.0,82,R,1971029,1971465,438,452.0,497.1,4234,left
23,2,binary,33,1,fixationCross,1972881.0,1975097.0,2216.0,83,R,1971539,1971795,258,465.6,504.0,4263,left
23,2,binary,33,1,fixationCross,1972881.0,1975097.0,2216.0,83,R,1972025,1972633,610,808.2,484.2,4672,NA
23,2,binary,33,1,trial,1972881.0,1975097.0,2216.0,83,R,1972659,1972963,306,947.7,518.2,4615,NA
23,2,binary,33,1,trial,1972881.0,1975097.0,2216.0,83,R,1973115,1973353,240,530.7,504.2,4462,left
23,2,binary,33,1,trial,1972881.0,1975097.0,2216.0,83,R,1973375,1973677,304,463.6,513.0,4294,left
23,2,binary,33,1,trial,1972881.0,1975097.0,2216.0,83,R,1973747,1974021,276,1480.3,527.3,4005,right
23,2,binary,33,1,trial,1972881.0,1975097.0,2216.0,83,R,1974041,1974281,242,1471.7,485.6,4060,right
23,2,binary,33,1,trial,1972881.0,1975097.0,2216.0,83,R,1974355,1974785,432,486.5,508.4,4272,left
23,2,binary,33,1,trial,1972881.0,1975097.0,2216.0,83,R,1974803,1975065,264,530.7,509.4,4130,left
23,2,binary,33,1,postResponse,1972881.0,1975097.0,2216.0,83,R,1975087,1975433,348,613.8,512.0,4144,left
23,2,binary,34,1,fixationCross,1976314.0,1979930.0,3616.0,84,R,1975507,1975987,482,625.6,516.1,4417,left
23,2,binary,34,1,trial,1976314.0,1979930.0,3616.0,84,R,1976023,1976471,450,913.4,537.5,4591,NA
23,2,binary,34,1,trial,1976314.0,1979930.0,3616.0,84,R,1976509,1976829,322,577.1,567.6,4496,left
23,2,binary,34,1,trial,1976314.0,1979930.0,3616.0,84,R,1976891,1977133,244,1452.3,558.8,4059,right
23,2,binary,34,1,trial,1976314.0,1979930.0,3616.0,84,R,1977151,1977683,534,1459.0,606.2,4022,right
23,2,binary,34,1,trial,1976314.0,1979930.0,3616.0,84,R,1977705,1977817,114,1554.0,599.1,4079,right
23,2,binary,34,1,trial,1976314.0,1979930.0,3616.0,84,R,1977891,1978307,418,564.7,573.2,4224,left
23,2,binary,34,1,trial,1976314.0,1979930.0,3616.0,84,R,1978369,1978605,238,1440.4,521.9,4156,right
23,2,binary,34,1,trial,1976314.0,1979930.0,3616.0,84,R,1978625,1978743,120,1502.2,551.2,4107,right
23,2,binary,34,1,trial,1976314.0,1979930.0,3616.0,84,R,1978821,1979653,834,443.9,529.7,4184,left
23,2,binary,34,1,trial,1976314.0,1979930.0,3616.0,84,R,1979683,1980191,510,663.1,585.5,4339,left
23,2,binary,35,1,fixationCross,1981064.0,1983364.0,2300.0,85,R,1980377,1980757,382,745.4,539.1,4667,NA
23,2,binary,35,1,trial,1981064.0,1983364.0,2300.0,85,R,1980787,1981255,470,978.7,533.3,4875,NA
23,2,binary,35,1,trial,1981064.0,1983364.0,2300.0,85,R,1981301,1981605,306,512.6,576.9,4603,left
23,2,binary,35,1,trial,1981064.0,1983364.0,2300.0,85,R,1981641,1981763,124,424.4,469.8,4496,left
23,2,binary,35,1,trial,1981064.0,1983364.0,2300.0,85,R,1981837,1982195,360,1516.2,585.2,4476,right
23,2,binary,35,1,trial,1981064.0,1983364.0,2300.0,85,R,1982219,1982441,224,1539.7,682.4,4510,right
23,2,binary,35,1,trial,1981064.0,1983364.0,2300.0,85,R,1982515,1983111,598,469.3,557.5,4578,left
23,2,binary,35,1,trial,1981064.0,1983364.0,2300.0,85,R,1983183,1983595,414,1503.0,560.7,4670,right
23,2,binary,35,1,postResponse,1981064.0,1983364.0,2300.0,85,R,1983637,1983701,66,1167.0,571.1,4566,NA
23,2,binary,36,1,trial,1984264.0,1986364.0,2100.0,86,R,1983999,1984413,416,985.7,500.7,4966,NA
23,2,binary,36,1,trial,1984264.0,1986364.0,2100.0,86,R,1984467,1984639,174,524.6,510.9,5052,left
23,2,binary,36,1,trial,1984264.0,1986364.0,2100.0,86,R,1984659,1984755,98,451.8,523.4,4666,left
23,2,binary,36,1,trial,1984264.0,1986364.0,2100.0,86,R,1984823,1985179,358,1547.5,493.2,4086,right
23,2,binary,36,1,trial,1984264.0,1986364.0,2100.0,86,R,1985251,1985455,206,467.4,546.4,4226,left
23,2,binary,36,1,postResponse,1984264.0,1986364.0,2100.0,86,R,1985471,1986697,1228,415.1,561.3,4332,left
23,2,binary,37,2,fixationCross,1987481.0,1989164.0,1683.0,87,R,1986771,1986891,122,429.2,572.2,4452,left
23,2,binary,37,2,fixationCross,1987481.0,1989164.0,1683.0,87,R,1986935,1987179,246,759.5,544.5,4630,NA
23,2,binary,37,2,fixationCross,1987481.0,1989164.0,1683.0,87,R,1987205,1987437,234,935.6,540.6,4700,NA
23,2,binary,37,2,trial,1987481.0,1989164.0,1683.0,87,R,1987461,1987643,184,982.9,537.8,4743,NA
23,2,binary,37,2,trial,1987481.0,1989164.0,1683.0,87,R,1987687,1988019,334,505.9,569.6,4554,left
23,2,binary,37,2,trial,1987481.0,1989164.0,1683.0,87,R,1988039,1988215,178,463.3,543.3,4270,left
23,2,binary,37,2,trial,1987481.0,1989164.0,1683.0,87,R,1988285,1988681,398,1448.7,604.2,4060,right
23,2,binary,37,2,trial,1987481.0,1989164.0,1683.0,87,R,1988705,1989099,396,1355.6,696.7,4180,right
23,2,binary,37,2,postResponse,1987481.0,1989164.0,1683.0,87,R,1989131,1989501,372,1539.8,537.3,4222,right
23,2,binary,38,1,fixationCross,1990631.0,1992697.0,2066.0,88,R,1989599,1989969,372,1555.0,528.3,4342,right
23,2,binary,38,1,fixationCross,1990631.0,1992697.0,2066.0,88,R,1990139,1990333,196,1092.8,521.6,4533,NA
23,2,binary,38,1,trial,1990631.0,1992697.0,2066.0,88,R,1990355,1990803,450,994.4,526.1,4681,NA
23,2,binary,38,1,trial,1990631.0,1992697.0,2066.0,88,R,1990841,1991117,278,1407.2,507.8,4560,right
23,2,binary,38,1,trial,1990631.0,1992697.0,2066.0,88,R,1991139,1991181,44,1459.1,474.8,4234,right
23,2,binary,38,1,trial,1990631.0,1992697.0,2066.0,88,R,1991205,1991387,184,1447.1,406.5,4067,right
23,2,binary,38,1,trial,1990631.0,1992697.0,2066.0,88,R,1991455,1991689,236,549.0,471.8,4066,left
23,2,binary,38,1,trial,1990631.0,1992697.0,2066.0,88,R,1991703,1991985,284,521.4,480.7,4168,left
23,2,binary,38,1,trial,1990631.0,1992697.0,2066.0,88,R,1992003,1992199,198,440.8,446.9,4162,left
23,2,binary,38,1,postResponse,1990631.0,1992697.0,2066.0,88,R,1992227,1993033,808,386.0,607.0,4156,left
23,2,binary,39,2,fixationCross,1993947.0,1995881.0,1934.0,89,R,1993411,1993701,292,858.3,465.9,4595,NA
23,2,binary,39,2,trial,1993947.0,1995881.0,1934.0,89,R,1993727,1993959,234,942.2,485.2,4802,NA
23,2,binary,39,2,trial,1993947.0,1995881.0,1934.0,89,R,1993979,1994139,162,974.5,509.3,4594,NA
23,2,binary,39,2,trial,1993947.0,1995881.0,1934.0,89,R,1994181,1994521,342,591.0,484.6,4344,left
23,2,binary,39,2,trial,1993947.0,1995881.0,1934.0,89,R,1994585,1994867,284,1448.4,586.5,4068,right
23,2,binary,39,2,trial,1993947.0,1995881.0,1934.0,89,R,1994891,1995265,376,1376.5,686.8,4010,right
23,2,binary,39,2,trial,1993947.0,1995881.0,1934.0,89,R,1995327,1995659,334,575.9,502.4,4213,left
23,2,binary,39,2,postResponse,1993947.0,1995881.0,1934.0,89,R,1995723,1996213,492,1432.7,580.6,4213,right
23,2,binary,40,2,fixationCross,1996914.0,1999314.0,2400.0,90,R,1996287,1996595,310,1424.1,581.1,4263,right
23,2,binary,40,2,fixationCross,1996914.0,1999314.0,2400.0,90,R,1996639,1996841,204,984.4,585.3,4670,NA
23,2,binary,40,2,trial,1996914.0,1999314.0,2400.0,90,R,1996851,1997113,264,980.2,568.3,4675,NA
23,2,binary,40,2,trial,1996914.0,1999314.0,2400.0,90,R,1997155,1997565,412,560.1,572.4,4527,left
23,2,binary,40,2,trial,1996914.0,1999314.0,2400.0,90,R,1997627,1997901,276,1389.7,567.5,4167,right
23,2,binary,40,2,trial,1996914.0,1999314.0,2400.0,90,R,1997927,1998213,288,1458.9,506.9,4180,right
23,2,binary,40,2,trial,1996914.0,1999314.0,2400.0,90,R,1998245,1998613,370,1535.8,614.4,4302,right
23,2,binary,40,2,trial,1996914.0,1999314.0,2400.0,90,R,1998621,1998903,284,1520.8,604.1,4250,right
23,2,binary,40,2,trial,1996914.0,1999314.0,2400.0,90,R,1998977,1999211,236,543.6,552.0,4268,left
23,2,binary,40,2,postResponse,1996914.0,1999314.0,2400.0,90,R,1999273,1999649,378,1414.3,548.1,4208,right
23,2,binary,41,2,fixationCross,2000497.0,2002798.0,2301.0,91,R,1999723,1999837,116,1401.6,561.5,4351,right
23,2,binary,41,2,fixationCross,2000497.0,2002798.0,2301.0,91,R,2000049,2000185,138,1095.6,500.0,4670,NA
23,2,binary,41,2,trial,2000497.0,2002798.0,2301.0,91,R,2000207,2000683,478,994.6,500.7,4739,NA
23,2,binary,41,2,trial,2000497.0,2002798.0,2301.0,91,R,2000727,2000957,232,528.9,528.9,4501,left
23,2,binary,41,2,trial,2000497.0,2002798.0,2301.0,91,R,2000981,2001237,258,451.1,650.2,4058,left
23,2,binary,41,2,trial,2000497.0,2002798.0,2301.0,91,R,2001311,2001573,264,1484.1,513.3,3910,right
23,2,binary,41,2,trial,2000497.0,2002798.0,2301.0,91,R,2001593,2001783,192,1423.3,578.0,3981,right
23,2,binary,41,2,trial,2000497.0,2002798.0,2301.0,91,R,2001795,2002119,326,1395.6,600.0,4150,right
23,2,binary,41,2,trial,2000497.0,2002798.0,2301.0,91,R,2002147,2002465,320,1443.8,447.0,4191,right
23,2,binary,41,2,trial,2000497.0,2002798.0,2301.0,91,R,2002489,2002787,300,1309.0,484.8,4109,right
23,2,binary,41,2,postResponse,2000497.0,2002798.0,2301.0,91,R,2002797,2003131,336,1286.7,481.8,4115,right
23,2,binary,42,1,fixationCross,2003897.0,2005814.0,1917.0,92,R,2003205,2003563,360,1292.4,490.6,4344,right
23,2,binary,42,1,fixationCross,2003897.0,2005814.0,1917.0,92,R,2003599,2003777,180,991.3,537.0,4567,NA
23,2,binary,42,1,trial,2003897.0,2005814.0,1917.0,92,R,2003951,2004085,136,954.9,494.0,4688,NA
23,2,binary,42,1,trial,2003897.0,2005814.0,1917.0,92,R,2004127,2004569,444,545.4,470.2,4668,left
23,2,binary,42,1,trial,2003897.0,2005814.0,1917.0,92,R,2004629,2004831,204,1339.3,557.3,4098,right
23,2,binary,42,1,trial,2003897.0,2005814.0,1917.0,92,R,2004857,2005113,258,1470.6,575.7,4008,right
23,2,binary,42,1,trial,2003897.0,2005814.0,1917.0,92,R,2005133,2005285,154,1518.4,607.8,4110,right
23,2,binary,42,1,trial,2003897.0,2005814.0,1917.0,92,R,2005365,2006079,716,545.4,505.2,4277,left
23,2,binary,43,2,fixationCross,2006881.0,2009397.0,2516.0,93,R,2006351,2006573,224,1190.5,488.8,4602,right
23,2,binary,43,2,trial,2006881.0,2009397.0,2516.0,93,R,2006601,2007103,504,988.0,507.9,4984,NA
23,2,binary,43,2,trial,2006881.0,2009397.0,2516.0,93,R,2007147,2007367,222,568.8,535.0,4813,left
23,2,binary,43,2,trial,2006881.0,2009397.0,2516.0,93,R,2007395,2007541,148,399.9,538.8,4392,left
23,2,binary,43,2,trial,2006881.0,2009397.0,2516.0,93,R,2007617,2007943,328,1546.8,502.3,4170,right
23,2,binary,43,2,trial,2006881.0,2009397.0,2516.0,93,R,2007961,2008109,150,1524.9,456.1,4394,right
23,2,binary,43,2,trial,2006881.0,2009397.0,2516.0,93,R,2008193,2008381,190,481.7,494.3,4673,left
23,2,binary,43,2,trial,2006881.0,2009397.0,2516.0,93,R,2008417,2008747,332,607.1,463.8,4526,left
23,2,binary,43,2,trial,2006881.0,2009397.0,2516.0,93,R,2008811,2009035,226,1507.7,486.9,4396,right
23,2,binary,43,2,postResponse,2006881.0,2009397.0,2516.0,93,R,2009057,2009735,680,1549.9,497.0,4611,right
23,2,binary,44,2,fixationCross,2010615.0,2012948.0,2333.0,94,R,2009809,2009983,176,1552.9,502.1,4580,right
23,2,binary,44,2,fixationCross,2010615.0,2012948.0,2333.0,94,R,2010157,2010301,146,1084.3,485.0,4730,NA
23,2,binary,44,2,trial,2010615.0,2012948.0,2333.0,94,R,2010325,2010781,458,989.8,512.7,4919,NA
23,2,binary,44,2,trial,2010615.0,2012948.0,2333.0,94,R,2010827,2011099,274,547.4,484.1,4651,left
23,2,binary,44,2,trial,2010615.0,2012948.0,2333.0,94,R,2011123,2011317,196,469.1,547.7,4262,left
23,2,binary,44,2,trial,2010615.0,2012948.0,2333.0,94,R,2011383,2011715,334,1356.2,548.5,4114,right
23,2,binary,44,2,trial,2010615.0,2012948.0,2333.0,94,R,2011737,2012115,380,1466.4,543.7,4083,right
23,2,binary,44,2,trial,2010615.0,2012948.0,2333.0,94,R,2012129,2012241,114,1490.8,570.9,4064,right
23,2,binary,44,2,trial,2010615.0,2012948.0,2333.0,94,R,2012309,2012551,244,602.9,583.5,4212,left
23,2,binary,44,2,trial,2010615.0,2012948.0,2333.0,94,R,2012619,2013019,402,1509.4,575.7,4195,right
23,2,binary,44,2,postResponse,2010615.0,2012948.0,2333.0,94,R,2013039,2013281,244,1475.5,567.4,4177,right
23,2,binary,45,2,fixationCross,2014081.0,2016948.0,2867.0,95,R,2013355,2013739,386,1473.2,570.0,4314,right
23,2,binary,45,2,trial,2014081.0,2016948.0,2867.0,95,R,2013789,2014255,468,987.3,551.1,4677,NA
23,2,binary,45,2,trial,2014081.0,2016948.0,2867.0,95,R,2014301,2014545,246,542.6,559.9,4615,left
23,2,binary,45,2,trial,2014081.0,2016948.0,2867.0,95,R,2014559,2014669,112,491.8,564.8,4331,left
23,2,binary,45,2,trial,2014081.0,2016948.0,2867.0,95,R,2014733,2015207,476,1344.3,614.4,4137,right
23,2,binary,45,2,trial,2014081.0,2016948.0,2867.0,95,R,2015235,2015409,176,1503.5,504.0,4288,right
23,2,binary,45,2,trial,2014081.0,2016948.0,2867.0,95,R,2015431,2015723,294,1539.6,448.7,4332,right
23,2,binary,45,2,trial,2014081.0,2016948.0,2867.0,95,R,2015755,2015969,216,1329.9,610.4,4530,right
23,2,binary,45,2,trial,2014081.0,2016948.0,2867.0,95,R,2016033,2016405,374,525.6,567.6,4577,left
23,2,binary,45,2,trial,2014081.0,2016948.0,2867.0,95,R,2016417,2016471,56,493.5,573.9,4386,left
23,2,binary,45,2,trial,2014081.0,2016948.0,2867.0,95,R,2016533,2016873,342,1412.6,621.2,4295,right
23,2,binary,45,2,postResponse,2014081.0,2016948.0,2867.0,95,R,2016891,2017283,394,1348.2,608.1,4597,right
23,2,binary,46,2,fixationCross,2018031.0,2019998.0,1967.0,96,R,2017357,2017411,56,1356.6,626.2,4859,right
23,2,binary,46,2,fixationCross,2018031.0,2019998.0,1967.0,96,R,2017591,2017723,134,1199.7,519.9,4793,right
23,2,binary,46,2,trial,2018031.0,2019998.0,1967.0,96,R,2017751,2018225,476,997.6,510.9,4806,NA
23,2,binary,46,2,trial,2018031.0,2019998.0,1967.0,96,R,2018265,2018543,280,624.7,544.6,4602,left
23,2,binary,46,2,trial,2018031.0,2019998.0,1967.0,96,R,2018559,2018971,414,551.8,572.9,4061,left
23,2,binary,46,2,trial,2018031.0,2019998.0,1967.0,96,R,2019039,2020273,1236,1486.7,590.6,4225,right
23,2,binary,46,2,postResponse,2018031.0,2019998.0,1967.0,96,R,2020289,2020333,46,1439.8,561.9,4492,right
23,2,binary,47,1,fixationCross,2022131.0,2024064.0,1933.0,97,R,2020407,2021801,1396,1438.6,560.2,4733,right
23,2,binary,47,1,fixationCross,2022131.0,2024064.0,1933.0,97,R,2021845,2022015,172,1031.7,563.2,4953,NA
23,2,binary,47,1,trial,2022131.0,2024064.0,1933.0,97,R,2022033,2022159,128,981.2,568.5,4938,NA
23,2,binary,47,1,trial,2022131.0,2024064.0,1933.0,97,R,2022305,2022387,84,1001.7,531.6,4861,NA
23,2,binary,47,1,trial,2022131.0,2024064.0,1933.0,97,R,2022427,2022779,354,1411.7,514.6,4738,right
23,2,binary,47,1,trial,2022131.0,2024064.0,1933.0,97,R,2022859,2023055,198,577.3,476.9,4373,left
23,2,binary,47,1,trial,2022131.0,2024064.0,1933.0,97,R,2023081,2023689,610,482.7,395.9,4046,left
23,2,binary,47,1,trial,2022131.0,2024064.0,1933.0,97,R,2023745,2023917,174,471.2,926.3,4177,NA
23,2,binary,47,1,trial,2022131.0,2024064.0,1933.0,97,R,2023941,2024317,378,516.8,979.6,4360,NA
23,2,binary,48,2,fixationCross,2025198.0,2028481.0,3283.0,98,R,2024499,2024873,376,1152.5,431.2,4718,NA
23,2,binary,48,2,trial,2025198.0,2028481.0,3283.0,98,R,2024899,2025351,454,1000.0,505.0,4929,NA
23,2,binary,48,2,trial,2025198.0,2028481.0,3283.0,98,R,2025399,2025553,156,551.0,557.3,4916,left
23,2,binary,48,2,trial,2025198.0,2028481.0,3283.0,98,R,2025573,2025983,412,509.4,610.5,4480,left
23,2,binary,48,2,trial,2025198.0,2028481.0,3283.0,98,R,2026047,2026219,174,1433.5,475.8,4261,right
23,2,binary,48,2,trial,2025198.0,2028481.0,3283.0,98,R,2026247,2026839,594,1571.2,505.2,4257,right
23,2,binary,48,2,trial,2025198.0,2028481.0,3283.0,98,R,2026909,2027089,182,602.1,689.0,4461,left
