participantNo,block,task,blockTrial,response,trialStage,trialStartTime,trialFinishTime,rt,trial,eye,fixStart,fixEnd,fixLength,fixPosX,fixPosY,dilation,aoi
50,1,binary,1,1,fixationCross,10048968.0,10058051.0,9083.0,1,R,10048400,10048554,156,1060.9,829.1,5622,likertHorizontal
50,1,binary,1,1,fixationCross,10048968.0,10058051.0,9083.0,1,R,10048592,10048846,256,1011.1,545.1,5565,NA
50,1,binary,1,1,trial,10048968.0,10058051.0,9083.0,1,R,10048862,10049120,260,957.0,557.9,5457,NA
50,1,binary,1,1,trial,10048968.0,10058051.0,9083.0,1,R,10049166,10049628,464,541.3,528.1,5204,left
50,1,binary,1,1,trial,10048968.0,10058051.0,9083.0,1,R,10049682,10049736,56,498.2,931.2,4902,NA
50,1,binary,1,1,trial,10048968.0,10058051.0,9083.0,1,R,10049772,10050008,238,469.2,1138.9,4911,NA
50,1,binary,1,1,trial,10048968.0,10058051.0,9083.0,1,R,10050078,10050236,160,1377.2,583.5,5083,right
50,1,binary,1,1,trial,10048968.0,10058051.0,9083.0,1,R,10050258,10050606,350,1391.8,515.1,5227,right
50,1,binary,1,1,trial,10048968.0,10058051.0,9083.0,1,R,10050972,10051108,138,407.4,535.5,5131,left
50,1,binary,1,1,trial,10048968.0,10058051.0,9083.0,1,R,10051182,10051264,84,1364.6,998.5,4944,NA
50,1,binary,1,1,trial,10048968.0,10058051.0,9083.0,1,R,10051286,10051430,146,1397.6,1087.2,4833,NA
50,1,binary,1,1,trial,10048968.0,10058051.0,9083.0,1,R,10051444,10051618,176,1414.7,1126.8,4861,NA
50,1,binary,1,1,trial,10048968.0,10058051.0,9083.0,1,R,10051672,10052094,424,1451.1,510.7,5119,right
50,1,binary,1,1,trial,10048968.0,10058051.0,9083.0,1,R,10052146,10052240,96,1439.2,958.0,5349,NA
50,1,binary,1,1,trial,10048968.0,10058051.0,9083.0,1,R,10052264,10052480,218,1431.0,1064.1,5396,NA
50,1,binary,1,1,trial,10048968.0,10058051.0,9083.0,1,R,10052652,10052684,34,520.0,1001.9,5676,NA
50,1,binary,1,1,trial,10048968.0,10058051.0,9083.0,1,R,10052838,10052870,34,1354.6,614.5,5830,right
50,1,binary,1,1,trial,10048968.0,10058051.0,9083.0,1,R,10052878,10053094,218,1341.2,666.9,5648,right
50,1,binary,1,1,trial,10048968.0,10058051.0,9083.0,1,R,10053166,10053340,176,440.4,629.6,5754,left
50,1,binary,1,1,trial,10048968.0,10058051.0,9083.0,1,R,10053362,10053644,284,421.1,559.1,5476,left
50,1,binary,1,1,trial,10048968.0,10058051.0,9083.0,1,R,10053662,10053960,300,354.4,534.9,4881,left
50,1,binary,1,1,trial,10048968.0,10058051.0,9083.0,1,R,10054232,10054480,250,438.4,1106.8,4806,NA
50,1,binary,1,1,trial,10048968.0,10058051.0,9083.0,1,R,10054494,10054988,496,450.6,1072.9,4988,NA
50,1,binary,1,1,trial,10048968.0,10058051.0,9083.0,1,R,10055042,10055170,130,381.4,593.8,4879,left
50,1,binary,1,1,trial,10048968.0,10058051.0,9083.0,1,R,10055190,10055516,328,414.2,545.3,4746,left
50,1,binary,1,1,trial,10048968.0,10058051.0,9083.0,1,R,10055568,10055638,72,429.6,1010.2,4576,NA
50,1,binary,1,1,trial,10048968.0,10058051.0,9083.0,1,R,10055664,10055790,128,418.5,1125.8,4548,NA
50,1,binary,1,1,trial,10048968.0,10058051.0,9083.0,1,R,10055858,10056028,172,1363.1,616.6,4572,right
50,1,binary,1,1,trial,10048968.0,10058051.0,9083.0,1,R,10056052,10056362,312,1405.6,535.4,4842,right
50,1,binary,1,1,trial,10048968.0,10058051.0,9083.0,1,R,10056378,10056482,106,1425.4,493.0,4915,right
50,1,binary,1,1,trial,10048968.0,10058051.0,9083.0,1,R,10056654,10056872,220,446.5,589.1,4914,left
50,1,binary,1,1,trial,10048968.0,10058051.0,9083.0,1,R,10056922,10057410,490,438.3,1071.1,4787,NA
50,1,binary,1,1,trial,10048968.0,10058051.0,9083.0,1,R,10057460,10057626,168,400.6,626.5,4753,left
50,1,binary,1,1,trial,10048968.0,10058051.0,9083.0,1,R,10057670,10057760,92,444.2,989.4,4820,NA
50,1,binary,1,1,trial,10048968.0,10058051.0,9083.0,1,R,10057782,10058314,534,442.6,1073.9,4927,NA
50,1,binary,1,1,postResponse,10048968.0,10058051.0,9083.0,1,R,10058374,10058416,44,658.5,476.2,5223,left
50,1,binary,2,1,fixationCross,10059268.0,10060434.0,1166.0,2,R,10058518,10058848,332,659.6,477.6,5401,left
50,1,binary,2,1,fixationCross,10059268.0,10060434.0,1166.0,2,R,10058884,10058988,106,946.2,523.3,5517,NA
50,1,binary,2,1,trial,10059268.0,10060434.0,1166.0,2,R,10059156,10059436,282,950.1,533.6,5687,NA
50,1,binary,2,1,trial,10059268.0,10060434.0,1166.0,2,R,10059476,10059664,190,639.2,596.4,5789,left
50,1,binary,2,1,trial,10059268.0,10060434.0,1166.0,2,R,10059718,10059862,146,490.9,1066.6,5506,NA
50,1,binary,2,1,trial,10059268.0,10060434.0,1166.0,2,R,10059924,10060350,428,1285.4,587.4,5086,right
50,1,binary,2,1,postResponse,10059268.0,10060434.0,1166.0,2,R,10060408,10060800,394,688.5,561.0,5383,left
50,1,binary,3,2,fixationCross,10061551.0,10063018.0,1467.0,3,R,10060900,10061236,338,813.2,467.6,5395,NA
50,1,binary,3,2,trial,10061551.0,10063018.0,1467.0,3,R,10061262,10061702,442,951.7,543.2,5656,NA
50,1,binary,3,2,trial,10061551.0,10063018.0,1467.0,3,R,10061750,10061874,126,574.0,510.6,5633,left
50,1,binary,3,2,trial,10061551.0,10063018.0,1467.0,3,R,10061890,10062062,174,514.6,495.9,5341,left
50,1,binary,3,2,trial,10061551.0,10063018.0,1467.0,3,R,10062124,10062388,266,1357.1,549.1,4840,right
50,1,binary,3,2,trial,10061551.0,10063018.0,1467.0,3,R,10062406,10062588,184,1441.0,546.5,4678,right
50,1,binary,3,2,trial,10061551.0,10063018.0,1467.0,3,R,10062608,10063230,624,1495.7,524.9,4542,right
50,1,binary,4,1,fixationCross,10064151.0,10065734.0,1583.0,4,R,10063468,10063796,330,547.2,526.7,5001,left
50,1,binary,4,1,trial,10064151.0,10065734.0,1583.0,4,R,10063834,10064284,452,868.4,533.0,4969,NA
50,1,binary,4,1,trial,10064151.0,10065734.0,1583.0,4,R,10064328,10064492,166,515.0,511.4,4926,left
50,1,binary,4,1,trial,10064151.0,10065734.0,1583.0,4,R,10064510,10064612,104,429.2,510.0,4825,left
50,1,binary,4,1,trial,10064151.0,10065734.0,1583.0,4,R,10064678,10064914,238,1384.2,528.0,4614,right
50,1,binary,4,1,trial,10064151.0,10065734.0,1583.0,4,R,10064936,10065122,188,1476.8,533.3,4550,right
50,1,binary,4,1,trial,10064151.0,10065734.0,1583.0,4,R,10065148,10065266,120,1290.9,517.8,4659,right
50,1,binary,4,1,trial,10064151.0,10065734.0,1583.0,4,R,10065332,10065678,348,458.9,532.3,4777,left
50,1,binary,4,1,trial,10064151.0,10065734.0,1583.0,4,R,10065696,10065982,288,376.5,513.0,4739,left
50,1,binary,5,1,fixationCross,10066900.0,10068135.0,1235.0,5,R,10066206,10066594,390,786.9,505.3,4906,NA
50,1,binary,5,1,trial,10066900.0,10068135.0,1235.0,5,R,10066616,10067036,422,912.3,532.2,5146,NA
50,1,binary,5,1,trial,10066900.0,10068135.0,1235.0,5,R,10067080,10067180,102,542.7,515.9,5049,left
50,1,binary,5,1,trial,10066900.0,10068135.0,1235.0,5,R,10067202,10067522,322,466.9,572.2,4954,left
50,1,binary,5,1,trial,10066900.0,10068135.0,1235.0,5,R,10067588,10067980,394,1395.1,573.6,4782,right
50,1,binary,5,1,trial,10066900.0,10068135.0,1235.0,5,R,10067994,10068396,404,1384.8,624.0,4877,right
50,1,binary,6,1,fixationCross,10069234.0,10071418.0,2184.0,6,R,10068570,10068934,366,832.7,522.3,4917,NA
50,1,binary,6,1,trial,10069234.0,10071418.0,2184.0,6,R,10068952,10069382,432,913.0,536.5,4900,NA
50,1,binary,6,1,trial,10069234.0,10071418.0,2184.0,6,R,10069430,10069572,144,507.2,519.0,4979,left
50,1,binary,6,1,trial,10069234.0,10071418.0,2184.0,6,R,10069592,10069692,102,462.5,596.3,4918,left
50,1,binary,6,1,trial,10069234.0,10071418.0,2184.0,6,R,10069756,10070212,458,1365.5,579.8,4697,right
50,1,binary,6,1,trial,10069234.0,10071418.0,2184.0,6,R,10070230,10070586,358,1351.9,542.8,4805,right
50,1,binary,6,1,trial,10069234.0,10071418.0,2184.0,6,R,10070660,10071246,588,475.5,633.9,5105,left
50,1,binary,6,1,postResponse,10069234.0,10071418.0,2184.0,6,R,10071398,10071750,354,450.2,552.0,5155,left
50,1,binary,7,1,fixationCross,10072501.0,10073968.0,1467.0,7,R,10071852,10072180,330,515.1,513.6,4873,left
50,1,binary,7,1,fixationCross,10072501.0,10073968.0,1467.0,7,R,10072222,10072326,106,881.0,548.6,4829,NA
50,1,binary,7,1,trial,10072501.0,10073968.0,1467.0,7,R,10072340,10072646,308,925.1,543.6,4823,NA
50,1,binary,7,1,trial,10072501.0,10073968.0,1467.0,7,R,10072690,10072784,96,548.3,557.5,4948,left
50,1,binary,7,1,trial,10072501.0,10073968.0,1467.0,7,R,10072800,10073028,230,476.5,577.9,4880,left
50,1,binary,7,1,trial,10072501.0,10073968.0,1467.0,7,R,10073046,10073126,82,407.9,574.5,4759,left
50,1,binary,7,1,trial,10072501.0,10073968.0,1467.0,7,R,10073190,10073740,552,1344.5,583.8,4704,right
50,1,binary,7,1,trial,10072501.0,10073968.0,1467.0,7,R,10073812,10074028,218,466.1,551.3,5053,left
50,1,binary,7,1,trial,10072501.0,10073968.0,1467.0,7,R,10074044,10074202,160,411.8,573.6,5127,left
50,1,binary,8,2,fixationCross,10074885.0,10076285.0,1400.0,8,R,10074418,10074798,382,869.1,560.7,5171,NA
50,1,binary,8,2,trial,10074885.0,10076285.0,1400.0,8,R,10074812,10075028,218,920.5,550.8,5238,NA
50,1,binary,8,2,trial,10074885.0,10076285.0,1400.0,8,R,10075076,10075206,132,491.2,553.7,5092,left
50,1,binary,8,2,trial,10074885.0,10076285.0,1400.0,8,R,10075218,10075456,240,459.0,568.7,4977,left
50,1,binary,8,2,trial,10074885.0,10076285.0,1400.0,8,R,10075526,10076070,546,1447.1,607.4,4611,right
50,1,binary,8,2,trial,10074885.0,10076285.0,1400.0,8,R,10076122,10076242,122,1417.4,988.4,4744,NA
50,1,binary,8,2,trial,10074885.0,10076285.0,1400.0,8,R,10076288,10076532,246,1455.6,578.0,4817,right
50,1,binary,9,2,fixationCross,10078217.0,10079318.0,1101.0,9,R,10076736,10076950,216,645.8,602.9,5048,left
50,1,binary,9,2,fixationCross,10078217.0,10079318.0,1101.0,9,R,10076972,10077776,806,593.4,525.8,4959,left
50,1,binary,9,2,fixationCross,10078217.0,10079318.0,1101.0,9,R,10077810,10077924,116,842.7,543.2,4835,NA
50,1,binary,9,2,trial,10078217.0,10079318.0,1101.0,9,R,10077942,10078366,426,933.4,534.4,4890,NA
50,1,binary,9,2,trial,10078217.0,10079318.0,1101.0,9,R,10078412,10078576,166,527.4,522.9,5078,left
50,1,binary,9,2,trial,10078217.0,10079318.0,1101.0,9,R,10078586,10078694,110,502.3,539.9,4892,left
50,1,binary,9,2,trial,10078217.0,10079318.0,1101.0,9,R,10078752,10079224,474,1352.8,547.1,4586,right
50,1,binary,9,2,trial,10078217.0,10079318.0,1101.0,9,R,10079242,10079300,60,1409.3,528.2,4480,right
50,1,binary,9,2,trial,10078217.0,10079318.0,1101.0,9,R,10079368,10079570,204,528.4,539.2,4540,left
50,1,binary,10,1,fixationCross,10080468.0,10081701.0,1233.0,10,R,10079790,10080166,378,777.9,610.4,4784,NA
50,1,binary,10,1,trial,10080468.0,10081701.0,1233.0,10,R,10080192,10080608,418,920.9,541.0,4895,NA
50,1,binary,10,1,trial,10080468.0,10081701.0,1233.0,10,R,10080652,10080830,180,545.4,536.8,4776,left
50,1,binary,10,1,trial,10080468.0,10081701.0,1233.0,10,R,10080848,10080982,136,470.0,569.7,4664,left
50,1,binary,10,1,trial,10080468.0,10081701.0,1233.0,10,R,10081048,10081550,504,1385.1,569.4,4464,right
50,1,binary,10,1,postResponse,10080468.0,10081701.0,1233.0,10,R,10081630,10082050,422,525.2,527.1,4480,left
50,1,binary,11,1,fixationCross,10082785.0,10084018.0,1233.0,11,R,10082126,10082454,330,523.1,525.7,4489,left
50,1,binary,11,1,trial,10082785.0,10084018.0,1233.0,11,R,10082496,10082926,432,914.8,540.7,4565,NA
50,1,binary,11,1,trial,10082785.0,10084018.0,1233.0,11,R,10082970,10083120,152,566.9,526.2,4787,left
50,1,binary,11,1,trial,10082785.0,10084018.0,1233.0,11,R,10083138,10083408,272,493.1,521.1,4680,left
50,1,binary,11,1,trial,10082785.0,10084018.0,1233.0,11,R,10083428,10083536,110,500.8,460.8,4560,left
50,1,binary,11,1,postResponse,10082785.0,10084018.0,1233.0,11,R,10083604,10084364,762,1409.7,494.6,4489,right
50,1,binary,12,1,fixationCross,10084918.0,10086551.0,1633.0,12,R,10084474,10084516,44,903.2,499.6,4730,NA
50,1,binary,12,1,fixationCross,10084918.0,10086551.0,1633.0,12,R,10084526,10084898,374,887.3,518.6,4749,NA
50,1,binary,12,1,trial,10084918.0,10086551.0,1633.0,12,R,10085056,10085158,104,914.9,528.7,4854,NA
50,1,binary,12,1,trial,10084918.0,10086551.0,1633.0,12,R,10085206,10085372,168,502.0,567.8,4843,left
50,1,binary,12,1,trial,10084918.0,10086551.0,1633.0,12,R,10085392,10085564,174,444.7,607.5,4745,left
50,1,binary,12,1,trial,10084918.0,10086551.0,1633.0,12,R,10085580,10085682,104,441.0,643.5,4615,left
50,1,binary,12,1,trial,10084918.0,10086551.0,1633.0,12,R,10085746,10085884,140,1303.2,464.4,4453,right
50,1,binary,12,1,trial,10084918.0,10086551.0,1633.0,12,R,10085900,10086024,126,1337.2,440.6,4434,right
50,1,binary,12,1,trial,10084918.0,10086551.0,1633.0,12,R,10086048,10086270,224,1422.5,527.1,4481,right
50,1,binary,12,1,trial,10084918.0,10086551.0,1633.0,12,R,10086280,10086780,502,1385.1,526.8,4683,right
50,1,binary,13,1,fixationCross,10087934.0,10089984.0,2050.0,13,R,10086988,10087284,298,707.0,606.8,4646,left
50,1,binary,13,1,fixationCross,10087934.0,10089984.0,2050.0,13,R,10087306,10087624,320,709.2,514.4,4785,left
50,1,binary,13,1,fixationCross,10087934.0,10089984.0,2050.0,13,R,10087648,10087788,142,864.0,522.5,4805,NA
50,1,binary,13,1,trial,10087934.0,10089984.0,2050.0,13,R,10087802,10088078,278,912.5,534.0,4833,NA
50,1,binary,13,1,trial,10087934.0,10089984.0,2050.0,13,R,10088120,10088566,448,595.0,505.8,4844,left
50,1,binary,13,1,trial,10087934.0,10089984.0,2050.0,13,R,10088608,10089000,394,1000.9,515.6,4677,NA
50,1,binary,13,1,trial,10087934.0,10089984.0,2050.0,13,R,10089048,10089198,152,572.6,502.0,4914,left
50,1,binary,13,1,postResponse,10087934.0,10089984.0,2050.0,13,R,10089214,10090334,1122,563.0,467.6,4840,left
50,1,binary,14,2,fixationCross,10093601.0,10095101.0,1500.0,14,R,10090410,10090988,580,561.3,475.6,4809,left
50,1,binary,14,2,fixationCross,10093601.0,10095101.0,1500.0,14,R,10091204,10092898,1696,745.6,500.2,5002,NA
50,1,binary,14,2,fixationCross,10093601.0,10095101.0,1500.0,14,R,10092920,10093288,370,837.8,519.0,5211,NA
50,1,binary,14,2,trial,10093601.0,10095101.0,1500.0,14,R,10093308,10093756,450,931.9,532.1,5287,NA
50,1,binary,14,2,trial,10093601.0,10095101.0,1500.0,14,R,10093804,10093900,98,545.5,541.4,5192,left
50,1,binary,14,2,trial,10093601.0,10095101.0,1500.0,14,R,10093920,10094430,512,451.3,562.9,4838,left
50,1,binary,14,2,trial,10093601.0,10095101.0,1500.0,14,R,10094496,10095000,506,1343.5,563.5,4542,right
50,1,binary,14,2,postResponse,10093601.0,10095101.0,1500.0,14,R,10095016,10095450,436,1394.0,546.5,4626,right
50,1,binary,15,2,fixationCross,10096485.0,10097602.0,1117.0,15,R,10095530,10095626,98,1330.7,511.9,4743,right
50,1,binary,15,2,fixationCross,10096485.0,10097602.0,1117.0,15,R,10095816,10095850,36,1409.1,507.9,5033,right
50,1,binary,15,2,fixationCross,10096485.0,10097602.0,1117.0,15,R,10095866,10095940,76,1408.3,542.3,4926,right
50,1,binary,15,2,fixationCross,10096485.0,10097602.0,1117.0,15,R,10096090,10096122,34,930.7,457.8,5433,NA
50,1,binary,15,2,fixationCross,10096485.0,10097602.0,1117.0,15,R,10096314,10096428,116,982.8,573.2,5278,NA
50,1,binary,15,2,trial,10096485.0,10097602.0,1117.0,15,R,10096442,10096640,200,945.2,555.8,5255,NA
50,1,binary,15,2,trial,10096485.0,10097602.0,1117.0,15,R,10096690,10096976,288,513.7,526.3,4907,left
50,1,binary,15,2,trial,10096485.0,10097602.0,1117.0,15,R,10097040,10097454,416,1403.6,532.6,4385,right
50,1,binary,15,2,postResponse,10096485.0,10097602.0,1117.0,15,R,10097472,10097948,478,1421.2,495.8,4345,right
50,1,binary,16,1,fixationCross,10098718.0,10099951.0,1233.0,16,R,10098056,10098404,350,1415.5,500.1,4327,right
50,1,binary,16,1,trial,10098718.0,10099951.0,1233.0,16,R,10098454,10098862,410,940.5,525.1,4852,NA
50,1,binary,16,1,trial,10098718.0,10099951.0,1233.0,16,R,10098908,10099058,152,561.2,510.7,5024,left
50,1,binary,16,1,trial,10098718.0,10099951.0,1233.0,16,R,10099084,10099310,228,418.9,542.3,4866,left
50,1,binary,16,1,trial,10098718.0,10099951.0,1233.0,16,R,10099374,10099644,272,1344.2,549.4,4616,right
50,1,binary,16,1,trial,10098718.0,10099951.0,1233.0,16,R,10099664,10100016,354,1418.0,521.6,4544,right
50,1,binary,16,1,postResponse,10098718.0,10099951.0,1233.0,16,R,10100084,10100286,204,584.6,537.0,4608,left
50,1,binary,17,2,fixationCross,10101034.0,10102185.0,1151.0,17,R,10100362,10100708,348,577.0,539.6,4623,left
50,1,binary,17,2,fixationCross,10101034.0,10102185.0,1151.0,17,R,10100752,10100848,98,914.0,532.4,4600,NA
50,1,binary,17,2,fixationCross,10101034.0,10102185.0,1151.0,17,R,10100856,10100928,74,939.2,517.8,4661,NA
50,1,binary,17,2,trial,10101034.0,10102185.0,1151.0,17,R,10100936,10101044,110,935.2,538.7,4581,NA
50,1,binary,17,2,trial,10101034.0,10102185.0,1151.0,17,R,10101196,10101258,64,910.6,519.7,4743,NA
50,1,binary,17,2,trial,10101034.0,10102185.0,1151.0,17,R,10101306,10101440,136,526.9,541.1,4790,left
50,1,binary,17,2,trial,10101034.0,10102185.0,1151.0,17,R,10101462,10101628,168,441.1,547.0,4801,left
50,1,binary,17,2,postResponse,10101034.0,10102185.0,1151.0,17,R,10101698,10102528,832,1470.3,562.8,4351,right
50,1,binary,18,2,fixationCross,10103218.0,10104851.0,1633.0,18,R,10102604,10102728,126,1467.7,563.1,4446,right
50,1,binary,18,2,fixationCross,10103218.0,10104851.0,1633.0,18,R,10102944,10102982,40,942.9,495.9,4926,NA
50,1,binary,18,2,trial,10103218.0,10104851.0,1633.0,18,R,10102990,10103352,364,929.0,529.5,4969,NA
50,1,binary,18,2,trial,10103218.0,10104851.0,1633.0,18,R,10103398,10103520,124,529.7,531.7,5129,left
50,1,binary,18,2,trial,10103218.0,10104851.0,1633.0,18,R,10103542,10103786,246,433.1,529.5,4861,left
50,1,binary,18,2,trial,10103218.0,10104851.0,1633.0,18,R,10103852,10104070,220,1346.2,490.8,4478,right
50,1,binary,18,2,postResponse,10103218.0,10104851.0,1633.0,18,R,10104088,10105174,1088,1386.4,462.1,4539,right
50,1,binary,19,2,fixationCross,10106051.0,10107085.0,1034.0,19,R,10105298,10105434,138,475.2,500.7,4778,left
50,1,binary,19,2,fixationCross,10106051.0,10107085.0,1034.0,19,R,10105614,10105740,128,623.1,512.4,4965,left
50,1,binary,19,2,fixationCross,10106051.0,10107085.0,1034.0,19,R,10105780,10105946,168,916.5,527.7,4995,NA
50,1,binary,19,2,trial,10106051.0,10107085.0,1034.0,19,R,10106116,10106208,94,861.6,477.9,5230,NA
50,1,binary,19,2,trial,10106051.0,10107085.0,1034.0,19,R,10106250,10106476,228,527.4,509.0,5192,left
50,1,binary,19,2,trial,10106051.0,10107085.0,1034.0,19,R,10106538,10107058,522,1381.5,532.5,4589,right
50,1,binary,19,2,trial,10106051.0,10107085.0,1034.0,19,R,10107074,10107322,250,1433.2,515.8,4449,right
50,1,binary,20,1,fixationCross,10108302.0,10110568.0,2266.0,20,R,10107532,10107958,428,666.3,567.3,4711,left
50,1,binary,20,1,trial,10108302.0,10110568.0,2266.0,20,R,10107990,10108438,450,923.7,534.4,4662,NA
50,1,binary,20,1,trial,10108302.0,10110568.0,2266.0,20,R,10108484,10108630,148,537.8,508.4,4784,left
50,1,binary,20,1,trial,10108302.0,10110568.0,2266.0,20,R,10108644,10108766,124,502.6,530.7,4698,left
50,1,binary,20,1,trial,10108302.0,10110568.0,2266.0,20,R,10108826,10108960,136,1297.5,464.7,4475,right
50,1,binary,20,1,trial,10108302.0,10110568.0,2266.0,20,R,10108972,10109324,354,1327.7,454.8,4445,right
50,1,binary,20,1,trial,10108302.0,10110568.0,2266.0,20,R,10109394,10109820,428,523.3,575.8,4547,left
50,1,binary,20,1,trial,10108302.0,10110568.0,2266.0,20,R,10109842,10110224,384,413.6,529.6,4534,left
50,1,binary,20,1,trial,10108302.0,10110568.0,2266.0,20,R,10110240,10110338,100,360.1,477.6,4542,left
50,1,binary,20,1,trial,10108302.0,10110568.0,2266.0,20,R,10110442,10110536,96,361.9,474.2,4638,left
50,1,binary,20,1,trial,10108302.0,10110568.0,2266.0,20,R,10110556,10110758,204,412.6,521.2,4646,left
50,1,binary,21,1,fixationCross,10111635.0,10112818.0,1183.0,21,R,10111014,10111330,318,1257.2,586.0,4910,right
50,1,binary,21,1,trial,10111635.0,10112818.0,1183.0,21,R,10111372,10111770,400,925.7,532.3,5032,NA
50,1,binary,21,1,trial,10111635.0,10112818.0,1183.0,21,R,10111816,10111906,92,521.8,520.1,4905,left
50,1,binary,21,1,trial,10111635.0,10112818.0,1183.0,21,R,10111926,10112216,292,437.5,509.8,4779,left
50,1,binary,21,1,trial,10111635.0,10112818.0,1183.0,21,R,10112282,10112768,488,1386.7,536.8,4500,right
50,1,binary,21,1,trial,10111635.0,10112818.0,1183.0,21,R,10112790,10112864,76,1376.8,618.2,4580,right
50,1,binary,21,1,postResponse,10111635.0,10112818.0,1183.0,21,R,10112932,10113166,236,519.7,514.2,4705,left
50,1,binary,22,1,fixationCross,10113918.0,10115668.0,1750.0,22,R,10113242,10113434,194,518.6,522.2,4653,left
50,1,binary,22,1,fixationCross,10113918.0,10115668.0,1750.0,22,R,10113648,10113796,150,979.3,576.8,4716,NA
50,1,binary,22,1,trial,10113918.0,10115668.0,1750.0,22,R,10113812,10114050,240,927.2,556.9,4873,NA
50,1,binary,22,1,trial,10113918.0,10115668.0,1750.0,22,R,10114100,10114242,144,488.2,540.8,5109,left
50,1,binary,22,1,trial,10113918.0,10115668.0,1750.0,22,R,10114252,10114362,112,497.2,572.4,4961,left
50,1,binary,22,1,trial,10113918.0,10115668.0,1750.0,22,R,10114422,10114654,234,1353.2,571.9,4541,right
50,1,binary,22,1,trial,10113918.0,10115668.0,1750.0,22,R,10114672,10114776,106,1383.5,617.4,4388,right
50,1,binary,22,1,trial,10113918.0,10115668.0,1750.0,22,R,10114842,10114978,138,548.8,593.1,4481,left
50,1,binary,22,1,trial,10113918.0,10115668.0,1750.0,22,R,10114996,10115598,604,463.5,588.9,4420,left
50,1,binary,22,1,trial,10113918.0,10115668.0,1750.0,22,R,10115732,10115894,164,415.6,456.2,4275,left
50,1,binary,22,1,postResponse,10113918.0,10115668.0,1750.0,22,R,10115966,10116016,52,1279.0,516.2,4293,right
50,1,binary,23,1,fixationCross,10116718.0,10117835.0,1117.0,23,R,10116118,10116416,300,1273.4,517.4,4421,right
50,1,binary,23,1,trial,10116718.0,10117835.0,1117.0,23,R,10116460,10116862,404,916.6,541.1,4779,NA
50,1,binary,23,1,trial,10116718.0,10117835.0,1117.0,23,R,10116908,10117072,166,536.9,531.9,4945,left
50,1,binary,23,1,trial,10116718.0,10117835.0,1117.0,23,R,10117090,10117350,262,459.7,530.4,4815,left
50,1,binary,23,1,trial,10116718.0,10117835.0,1117.0,23,R,10117416,10117728,314,1368.5,554.7,4525,right
50,1,binary,23,1,postResponse,10116718.0,10117835.0,1117.0,23,R,10117794,10118182,390,555.0,596.5,4719,left
50,1,binary,24,2,fixationCross,10118785.0,10119902.0,1117.0,24,R,10118258,10118316,60,550.6,601.2,4723,left
50,1,binary,24,2,fixationCross,10118785.0,10119902.0,1117.0,24,R,10118510,10118686,178,983.8,561.7,4820,NA
50,1,binary,24,2,trial,10118785.0,10119902.0,1117.0,24,R,10118704,10118930,228,928.5,545.9,4944,NA
50,1,binary,24,2,trial,10118785.0,10119902.0,1117.0,24,R,10118974,10119224,252,555.4,529.9,4983,left
50,1,binary,24,2,postResponse,10118785.0,10119902.0,1117.0,24,R,10119286,10120246,962,1404.7,542.2,4312,right
50,1,binary,25,1,fixationCross,10122084.0,10123518.0,1434.0,25,R,10120348,10120632,286,1396.1,549.5,4410,right
50,1,binary,25,1,fixationCross,10122084.0,10123518.0,1434.0,25,R,10120688,10120888,202,843.9,548.1,4783,NA
50,1,binary,25,1,fixationCross,10122084.0,10123518.0,1434.0,25,R,10121070,10121834,766,785.9,521.7,4966,NA
50,1,binary,25,1,fixationCross,10122084.0,10123518.0,1434.0,25,R,10121858,10122012,156,909.4,528.0,4675,NA
50,1,binary,25,1,trial,10122084.0,10123518.0,1434.0,25,R,10122022,10122222,202,933.3,532.1,4694,NA
50,1,binary,25,1,trial,10122084.0,10123518.0,1434.0,25,R,10122270,10122494,226,546.0,521.4,4862,left
50,1,binary,25,1,trial,10122084.0,10123518.0,1434.0,25,R,10122506,10122618,114,514.3,507.0,4629,left
50,1,binary,25,1,trial,10122084.0,10123518.0,1434.0,25,R,10122680,10122894,216,1381.4,580.7,4336,right
50,1,binary,25,1,trial,10122084.0,10123518.0,1434.0,25,R,10122906,10123150,246,1344.5,601.6,4246,right
50,1,binary,25,1,trial,10122084.0,10123518.0,1434.0,25,R,10123214,10123468,256,652.9,569.8,4295,left
50,1,binary,25,1,postResponse,10122084.0,10123518.0,1434.0,25,R,10123526,10123842,318,1363.7,492.6,4183,right
50,1,binary,26,1,fixationCross,10196003.0,10197719.0,1716.0,26,L,10195176,10195458,284,183.4,13.5,4631,NA
50,1,binary,26,1,fixationCross,10196003.0,10197719.0,1716.0,26,L,10195622,10195690,70,774.8,476.2,4637,NA
50,1,binary,26,1,trial,10196003.0,10197719.0,1716.0,26,L,10195716,10196152,438,958.1,540.1,4933,NA
50,1,binary,26,1,trial,10196003.0,10197719.0,1716.0,26,L,10196196,10196336,142,598.9,508.6,5250,left
50,1,binary,26,1,trial,10196003.0,10197719.0,1716.0,26,L,10196352,10196622,272,580.0,551.1,5082,left
50,1,binary,26,1,trial,10196003.0,10197719.0,1716.0,26,L,10196680,10196818,140,434.3,1001.1,5058,NA
50,1,binary,26,1,trial,10196003.0,10197719.0,1716.0,26,L,10196888,10197066,180,1326.9,497.6,5016,right
50,1,binary,26,1,trial,10196003.0,10197719.0,1716.0,26,L,10197076,10197214,140,1346.3,492.4,5043,right
50,1,binary,26,1,trial,10196003.0,10197719.0,1716.0,26,L,10197276,10197956,682,631.4,608.8,5236,left
50,1,binary,27,1,fixationCross,10198769.0,10199753.0,984.0,27,L,10198144,10198466,324,1092.1,436.5,5340,NA
50,1,binary,27,1,trial,10198769.0,10199753.0,984.0,27,L,10198494,10198908,416,978.3,568.7,5715,NA
50,1,binary,27,1,trial,10198769.0,10199753.0,984.0,27,L,10198956,10199104,150,575.4,513.6,5647,left
50,1,binary,27,1,trial,10198769.0,10199753.0,984.0,27,L,10199130,10199668,540,522.0,664.7,5374,left
50,1,binary,27,1,trial,10198769.0,10199753.0,984.0,27,L,10199732,10199994,264,1314.0,578.3,5066,right
50,1,binary,28,1,trial,10200652.0,10202453.0,1801.0,28,L,10200188,10200792,606,958.8,564.4,5384,NA
50,1,binary,28,1,trial,10200652.0,10202453.0,1801.0,28,L,10200838,10201036,200,585.7,540.1,5523,left
50,1,binary,28,1,trial,10200652.0,10202453.0,1801.0,28,L,10201098,10201464,368,1397.9,560.2,5020,right
50,1,binary,28,1,trial,10200652.0,10202453.0,1801.0,28,L,10201534,10202040,508,551.6,541.9,4820,left
50,1,binary,28,1,trial,10200652.0,10202453.0,1801.0,28,L,10202096,10202328,234,906.2,936.8,4969,likertHorizontal
50,1,binary,28,1,trial,10200652.0,10202453.0,1801.0,28,L,10202374,10202458,86,490.8,969.0,5176,NA
50,1,binary,28,1,trial,10200652.0,10202453.0,1801.0,28,L,10202606,10202754,150,551.9,510.3,5353,left
50,1,binary,29,1,fixationCross,10203386.0,10204353.0,967.0,29,L,10202906,10202930,26,916.5,485.2,5780,NA
50,1,binary,29,1,fixationCross,10203386.0,10204353.0,967.0,29,L,10202948,10203282,336,915.3,551.9,5523,NA
50,1,binary,29,1,trial,10203386.0,10204353.0,967.0,29,L,10203296,10203530,236,968.2,566.0,5441,NA
50,1,binary,29,1,trial,10203386.0,10204353.0,967.0,29,L,10203574,10203724,152,638.9,594.2,5250,left
50,1,binary,29,1,trial,10203386.0,10204353.0,967.0,29,L,10203742,10203960,220,578.3,639.8,5056,left
50,1,binary,29,1,trial,10203386.0,10204353.0,967.0,29,L,10204022,10204212,192,1416.4,559.6,4736,right
50,1,binary,29,1,trial,10203386.0,10204353.0,967.0,29,L,10204226,10204338,114,1442.0,596.1,4642,right
50,1,binary,29,1,trial,10203386.0,10204353.0,967.0,29,L,10204356,10204604,250,1470.7,635.8,4676,right
50,1,binary,30,1,fixationCross,10205269.0,10206586.0,1317.0,30,L,10204800,10204812,14,906.9,583.3,5089,NA
50,1,binary,30,1,trial,10205269.0,10206586.0,1317.0,30,L,10204830,10205402,574,903.4,616.7,5055,NA
50,1,binary,30,1,trial,10205269.0,10206586.0,1317.0,30,L,10205446,10205614,170,623.9,467.1,5209,left
50,1,binary,30,1,trial,10205269.0,10206586.0,1317.0,30,L,10205692,10206096,406,1429.1,490.5,4828,right
50,1,binary,30,1,trial,10205269.0,10206586.0,1317.0,30,L,10206158,10206266,110,678.1,443.0,4912,left
50,1,binary,30,1,trial,10205269.0,10206586.0,1317.0,30,L,10206284,10206508,226,601.9,455.5,4863,left
50,1,binary,30,1,trial,10205269.0,10206586.0,1317.0,30,L,10206520,10206808,290,599.8,428.7,4901,left
50,1,binary,31,1,fixationCross,10207753.0,10209085.0,1332.0,31,L,10207080,10207466,388,839.9,616.0,4967,NA
50,1,binary,31,1,trial,10207753.0,10209085.0,1332.0,31,L,10207490,10207890,402,928.7,545.2,5188,NA
50,1,binary,31,1,trial,10207753.0,10209085.0,1332.0,31,L,10207934,10208118,186,552.5,522.3,5153,left
50,1,binary,31,1,trial,10207753.0,10209085.0,1332.0,31,L,10208134,10208210,78,525.3,495.6,4945,left
50,1,binary,31,1,trial,10207753.0,10209085.0,1332.0,31,L,10208274,10208418,146,1402.1,525.3,4621,right
50,1,binary,31,1,trial,10207753.0,10209085.0,1332.0,31,L,10208430,10208600,172,1428.6,519.6,4441,right
50,1,binary,31,1,trial,10207753.0,10209085.0,1332.0,31,L,10208624,10208936,314,1541.0,544.2,4403,right
50,1,binary,31,1,trial,10207753.0,10209085.0,1332.0,31,L,10208956,10209300,346,1439.5,518.3,4535,right
50,1,binary,32,2,fixationCross,10210185.0,10211169.0,984.0,32,L,10209524,10209880,358,705.9,545.3,4661,left
50,1,binary,32,2,trial,10210185.0,10211169.0,984.0,32,L,10209910,10210318,410,938.5,540.7,4819,NA
50,1,binary,32,2,trial,10210185.0,10211169.0,984.0,32,L,10210364,10210608,246,605.1,553.4,4928,left
50,1,binary,32,2,trial,10210185.0,10211169.0,984.0,32,L,10210672,10211028,358,1406.7,528.4,4527,right
50,1,binary,32,2,trial,10210185.0,10211169.0,984.0,32,L,10211046,10211376,332,1423.4,588.8,4567,right
50,1,binary,33,2,fixationCross,10212319.0,10213553.0,1234.0,33,L,10211604,10212012,410,894.4,627.4,4946,NA
50,1,binary,33,2,trial,10212319.0,10213553.0,1234.0,33,L,10212032,10212452,422,937.0,577.4,4953,NA
50,1,binary,33,2,trial,10212319.0,10213553.0,1234.0,33,L,10212496,10212716,222,588.8,572.2,4863,left
50,1,binary,33,2,trial,10212319.0,10213553.0,1234.0,33,L,10212730,10212950,222,595.8,538.1,4717,left
50,1,binary,33,2,trial,10212319.0,10213553.0,1234.0,33,L,10213012,10213786,776,1412.1,547.4,4662,right
50,1,binary,34,1,fixationCross,10214736.0,10215569.0,833.0,34,L,10214026,10214442,418,831.3,573.1,5160,NA
50,1,binary,34,1,trial,10214736.0,10215569.0,833.0,34,L,10214464,10214872,410,931.6,558.8,5163,NA
50,1,binary,34,1,trial,10214736.0,10215569.0,833.0,34,L,10214916,10215120,206,539.9,544.8,5004,left
50,1,binary,34,1,trial,10214736.0,10215569.0,833.0,34,L,10215184,10215536,354,1403.3,551.9,4773,right
50,1,binary,34,1,trial,10214736.0,10215569.0,833.0,34,L,10215554,10215766,214,1434.1,589.2,4644,right
50,1,binary,35,1,fixationCross,10216503.0,10218102.0,1599.0,35,L,10216020,10216392,374,1005.0,602.4,4762,NA
50,1,binary,35,1,trial,10216503.0,10218102.0,1599.0,35,L,10216408,10216642,236,967.2,569.7,5050,NA
50,1,binary,35,1,trial,10216503.0,10218102.0,1599.0,35,L,10216690,10216940,252,558.0,535.0,4919,left
50,1,binary,35,1,trial,10216503.0,10218102.0,1599.0,35,L,10217002,10217384,384,1433.9,476.7,4505,right
50,1,binary,35,1,trial,10216503.0,10218102.0,1599.0,35,L,10217404,10217478,76,1444.5,529.8,4500,right
50,1,binary,35,1,trial,10216503.0,10218102.0,1599.0,35,L,10217552,10217974,424,567.4,566.8,4685,left
50,1,binary,35,1,trial,10216503.0,10218102.0,1599.0,35,L,10217998,10218158,162,462.6,568.3,4715,left
50,1,binary,35,1,trial,10216503.0,10218102.0,1599.0,35,L,10218224,10218336,114,1382.7,499.0,4601,right
50,1,binary,36,2,fixationCross,10219036.0,10220586.0,1550.0,36,L,10218558,10218580,24,1049.2,539.3,4801,NA
50,1,binary,36,2,fixationCross,10219036.0,10220586.0,1550.0,36,L,10218598,10218922,326,1035.5,581.5,4726,NA
50,1,binary,36,2,trial,10219036.0,10220586.0,1550.0,36,L,10218942,10219176,236,952.4,561.2,4981,NA
50,1,binary,36,2,trial,10219036.0,10220586.0,1550.0,36,L,10219222,10219502,282,550.1,561.0,4824,left
50,1,binary,36,2,trial,10219036.0,10220586.0,1550.0,36,L,10219566,10219810,246,1431.8,526.6,4536,right
50,1,binary,36,2,trial,10219036.0,10220586.0,1550.0,36,L,10219834,10220008,176,1417.4,632.9,4531,right
50,1,binary,36,2,trial,10219036.0,10220586.0,1550.0,36,L,10220018,10220590,574,1386.8,655.1,4550,right
50,1,binary,36,2,postResponse,10219036.0,10220586.0,1550.0,36,L,10220674,10220920,248,608.2,536.4,4665,left
50,1,binary,37,2,fixationCross,10221653.0,10222753.0,1100.0,37,L,10221024,10221344,322,616.2,541.4,4844,left
50,1,binary,37,2,trial,10221653.0,10222753.0,1100.0,37,L,10221380,10221802,424,935.1,568.1,4951,NA
50,1,binary,37,2,trial,10221653.0,10222753.0,1100.0,37,L,10221842,10222050,210,663.7,534.6,5099,left
50,1,binary,37,2,trial,10221653.0,10222753.0,1100.0,37,L,10222074,10222196,124,533.9,564.5,4998,left
50,1,binary,37,2,trial,10221653.0,10222753.0,1100.0,37,L,10222262,10222714,454,1461.5,538.1,4717,right
50,1,binary,37,2,postResponse,10221653.0,10222753.0,1100.0,37,L,10222906,10223088,184,1450.2,533.0,4713,right
50,1,binary,38,1,fixationCross,10224586.0,10225936.0,1350.0,38,L,10223190,10223216,28,1455.3,528.2,4840,right
50,1,binary,38,1,fixationCross,10224586.0,10225936.0,1350.0,38,L,10223286,10223782,498,800.9,559.6,5163,NA
50,1,binary,38,1,fixationCross,10224586.0,10225936.0,1350.0,38,L,10223804,10224280,478,725.9,531.6,5018,left
50,1,binary,38,1,fixationCross,10224586.0,10225936.0,1350.0,38,L,10224306,10224428,124,886.2,549.8,5018,NA
50,1,binary,38,1,trial,10224586.0,10225936.0,1350.0,38,L,10224444,10224736,294,954.6,557.6,5011,NA
50,1,binary,38,1,trial,10224586.0,10225936.0,1350.0,38,L,10224786,10224920,136,553.3,543.6,5168,left
50,1,binary,38,1,trial,10224586.0,10225936.0,1350.0,38,L,10224940,10225278,340,516.8,595.8,4955,left
50,1,binary,38,1,trial,10224586.0,10225936.0,1350.0,38,L,10225342,10225492,152,1409.6,592.8,4809,right
50,1,binary,38,1,trial,10224586.0,10225936.0,1350.0,38,L,10225508,10225632,126,1454.3,592.7,4811,right
50,1,binary,38,1,trial,10224586.0,10225936.0,1350.0,38,L,10225698,10225932,236,611.4,715.3,4914,left
50,1,binary,38,1,postResponse,10224586.0,10225936.0,1350.0,38,L,10225960,10226284,326,497.0,559.1,4897,left
50,1,binary,39,1,fixationCross,10227069.0,10228119.0,1050.0,39,L,10226386,10226736,352,499.3,557.8,5028,left
50,1,binary,39,1,fixationCross,10227069.0,10228119.0,1050.0,39,L,10226786,10226920,136,910.8,559.9,5115,NA
50,1,binary,39,1,fixationCross,10227069.0,10228119.0,1050.0,39,L,10226934,10226954,22,954.7,552.5,5120,NA
50,1,binary,39,1,trial,10227069.0,10228119.0,1050.0,39,L,10227218,10227264,48,917.4,555.7,5091,NA
50,1,binary,39,1,trial,10227069.0,10228119.0,1050.0,39,L,10227310,10227476,168,543.2,520.2,5227,left
50,1,binary,39,1,trial,10227069.0,10228119.0,1050.0,39,L,10227496,10227702,208,447.9,537.2,5143,left
50,1,binary,39,1,postResponse,10227069.0,10228119.0,1050.0,39,L,10227858,10228464,608,1350.5,544.1,4608,right
50,1,binary,40,1,fixationCross,10230002.0,10231170.0,1168.0,40,L,10228564,10228712,150,1352.9,542.3,4431,right
50,1,binary,40,1,fixationCross,10230002.0,10231170.0,1168.0,40,L,10228786,10229322,538,658.0,578.6,4729,left
50,1,binary,40,1,fixationCross,10230002.0,10231170.0,1168.0,40,L,10229332,10229672,342,683.7,554.8,4904,left
50,1,binary,40,1,fixationCross,10230002.0,10231170.0,1168.0,40,L,10229696,10229840,146,859.0,544.0,5006,NA
50,1,binary,40,1,trial,10230002.0,10231170.0,1168.0,40,L,10229858,10230144,288,936.4,550.2,5003,NA
50,1,binary,40,1,trial,10230002.0,10231170.0,1168.0,40,L,10230196,10230324,130,480.4,574.6,5153,left
50,1,binary,40,1,trial,10230002.0,10231170.0,1168.0,40,L,10230334,10230722,390,452.9,585.7,5021,left
50,1,binary,40,1,trial,10230002.0,10231170.0,1168.0,40,L,10230792,10231160,370,1402.9,560.8,4881,right
50,1,binary,40,1,postResponse,10230002.0,10231170.0,1168.0,40,L,10231232,10231516,286,538.6,598.2,5131,left
50,1,binary,41,2,trial,10232102.0,10233686.0,1584.0,41,L,10231784,10232248,466,898.4,588.8,5456,NA
50,1,binary,41,2,trial,10232102.0,10233686.0,1584.0,41,L,10232294,10232578,286,541.3,554.7,5419,left
50,1,binary,41,2,trial,10232102.0,10233686.0,1584.0,41,L,10232644,10233096,454,1526.9,533.7,4619,right
50,1,binary,41,2,trial,10232102.0,10233686.0,1584.0,41,L,10233170,10233488,320,550.4,568.7,4982,left
50,1,binary,41,2,trial,10232102.0,10233686.0,1584.0,41,L,10233510,10233708,200,450.8,595.5,4986,left
50,1,binary,41,2,postResponse,10232102.0,10233686.0,1584.0,41,L,10233782,10234034,254,1522.7,502.4,4759,right
50,1,binary,42,1,fixationCross,10234819.0,10235720.0,901.0,42,L,10234136,10234184,50,1520.5,503.3,4656,right
50,1,binary,42,1,fixationCross,10234819.0,10235720.0,901.0,42,L,10234414,10234444,32,1089.3,513.0,5177,NA
50,1,binary,42,1,fixationCross,10234819.0,10235720.0,901.0,42,L,10234462,10234568,108,1086.9,559.6,5031,NA
50,1,binary,42,1,trial,10234819.0,10235720.0,901.0,42,L,10234590,10234956,368,974.4,551.7,5215,NA
50,1,binary,42,1,trial,10234819.0,10235720.0,901.0,42,L,10235000,10235140,142,600.3,519.0,5218,left
50,1,binary,42,1,trial,10234819.0,10235720.0,901.0,42,L,10235156,10235570,416,532.1,528.5,4996,left
50,1,binary,42,1,postResponse,10234819.0,10235720.0,901.0,42,L,10235636,10236068,434,1501.3,514.4,4800,right
50,1,binary,43,1,fixationCross,10236820.0,10238486.0,1666.0,43,L,10236314,10236340,28,1304.3,485.4,5237,right
50,1,binary,43,1,fixationCross,10236820.0,10238486.0,1666.0,43,L,10236370,10236510,142,1286.5,552.5,5042,right
50,1,binary,43,1,trial,10236820.0,10238486.0,1666.0,43,L,10236552,10236946,396,972.3,572.0,5226,NA
50,1,binary,43,1,trial,10236820.0,10238486.0,1666.0,43,L,10236994,10237210,218,593.7,533.8,5175,left
50,1,binary,43,1,trial,10236820.0,10238486.0,1666.0,43,L,10237270,10237698,430,1447.5,528.0,4646,right
50,1,binary,43,1,trial,10236820.0,10238486.0,1666.0,43,L,10237770,10238366,598,578.4,534.2,4896,left
50,1,binary,43,1,postResponse,10236820.0,10238486.0,1666.0,43,L,10238390,10238836,448,468.9,498.7,4727,left
50,1,binary,44,1,fixationCross,10239586.0,10241253.0,1667.0,44,L,10238912,10238942,32,469.3,501.8,4699,left
50,1,binary,44,1,fixationCross,10239586.0,10241253.0,1667.0,44,L,10239020,10239262,244,1299.3,511.0,4755,right
50,1,binary,44,1,trial,10239586.0,10241253.0,1667.0,44,L,10239306,10239628,324,961.3,544.7,5013,NA
50,1,binary,44,1,trial,10239586.0,10241253.0,1667.0,44,L,10239836,10240110,276,529.3,536.7,5115,left
50,1,binary,44,1,trial,10239586.0,10241253.0,1667.0,44,L,10240172,10240460,290,1441.2,578.6,4733,right
50,1,binary,44,1,trial,10239586.0,10241253.0,1667.0,44,L,10240528,10240704,178,527.8,513.3,4601,left
50,1,binary,44,1,trial,10239586.0,10241253.0,1667.0,44,L,10240724,10241074,352,522.9,453.8,4580,left
50,1,binary,44,1,trial,10239586.0,10241253.0,1667.0,44,L,10241142,10241538,398,1446.3,569.8,4477,right
50,1,binary,45,1,fixationCross,10242419.0,10243619.0,1200.0,45,L,10241728,10241728,2,874.5,469.2,5033,NA
50,1,binary,45,1,fixationCross,10242419.0,10243619.0,1200.0,45,L,10241766,10242128,364,850.1,547.1,4913,NA
50,1,binary,45,1,trial,10242419.0,10243619.0,1200.0,45,L,10242148,10242624,478,924.9,546.6,5085,NA
50,1,binary,45,1,trial,10242419.0,10243619.0,1200.0,45,L,10242668,10242828,162,1370.7,549.5,4963,right
50,1,binary,45,1,trial,10242419.0,10243619.0,1200.0,45,L,10242846,10243022,178,1432.0,538.1,4795,right
50,1,binary,45,1,trial,10242419.0,10243619.0,1200.0,45,L,10243088,10243448,362,617.7,564.9,4825,left
50,1,binary,45,1,trial,10242419.0,10243619.0,1200.0,45,L,10243470,10243566,98,529.5,567.0,4804,left
50,1,binary,45,1,trial,10242419.0,10243619.0,1200.0,45,L,10243628,10243934,308,1430.0,538.2,4628,right
50,1,binary,46,1,fixationCross,10244686.0,10246053.0,1367.0,46,L,10244170,10244372,204,1321.7,548.3,4812,right
50,1,binary,46,1,trial,10244686.0,10246053.0,1367.0,46,L,10244418,10244820,404,949.7,546.8,5175,NA
50,1,binary,46,1,trial,10244686.0,10246053.0,1367.0,46,L,10244864,10245014,152,561.9,519.3,5139,left
50,1,binary,46,1,trial,10244686.0,10246053.0,1367.0,46,L,10245028,10245382,356,521.1,501.6,4820,left
50,1,binary,46,1,postResponse,10244686.0,10246053.0,1367.0,46,L,10245448,10246388,942,1427.7,509.2,4455,right
50,1,binary,47,1,fixationCross,10248053.0,10250403.0,2350.0,47,L,10246490,10246936,448,625.4,483.7,4705,left
50,1,binary,47,1,fixationCross,10248053.0,10250403.0,2350.0,47,L,10247130,10247736,608,692.5,509.4,5017,left
50,1,binary,47,1,fixationCross,10248053.0,10250403.0,2350.0,47,L,10247762,10247868,108,865.8,527.7,5104,NA
50,1,binary,47,1,fixationCross,10248053.0,10250403.0,2350.0,47,L,10247884,10248018,136,933.6,543.9,5068,NA
50,1,binary,47,1,trial,10248053.0,10250403.0,2350.0,47,L,10248028,10248206,180,965.1,547.9,5087,NA
50,1,binary,47,1,trial,10248053.0,10250403.0,2350.0,47,L,10248252,10248338,88,599.3,500.4,5215,left
50,1,binary,47,1,trial,10248053.0,10250403.0,2350.0,47,L,10248362,10248666,306,424.0,483.0,4979,left
50,1,binary,47,1,trial,10248053.0,10250403.0,2350.0,47,L,10248738,10248954,218,1426.6,546.2,4608,right
50,1,binary,47,1,trial,10248053.0,10250403.0,2350.0,47,L,10248978,10249324,348,1532.5,505.5,4449,right
50,1,binary,47,1,trial,10248053.0,10250403.0,2350.0,47,L,10249352,10249552,202,1367.1,581.4,4532,right
50,1,binary,47,1,trial,10248053.0,10250403.0,2350.0,47,L,10249622,10250314,694,484.3,560.8,4740,left
50,1,binary,47,1,trial,10248053.0,10250403.0,2350.0,47,L,10250340,10250614,276,397.3,473.8,4879,left
50,1,binary,48,2,fixationCross,10251486.0,10252487.0,1001.0,48,L,10250816,10250832,18,1386.7,467.1,5131,right
50,1,binary,48,2,fixationCross,10251486.0,10252487.0,1001.0,48,L,10250854,10251154,302,1378.7,537.7,4869,right
50,1,binary,48,2,trial,10251486.0,10252487.0,1001.0,48,L,10251202,10251606,406,967.0,553.5,5136,NA
50,1,binary,48,2,trial,10251486.0,10252487.0,1001.0,48,L,10251670,10251864,196,564.4,528.1,5094,left
50,1,binary,48,2,trial,10251486.0,10252487.0,1001.0,48,L,10251928,10252130,204,1454.2,512.9,4644,right
50,1,binary,48,2,trial,10251486.0,10252487.0,1001.0,48,L,10252152,10252438,288,1545.8,508.7,4469,right
50,1,binary,48,2,trial,10251486.0,10252487.0,1001.0,48,L,10252484,10252698,216,1471.9,802.1,4692,NA
50,1,binary,49,2,fixationCross,10254170.0,10255570.0,1400.0,49,L,10252954,10253112,160,1419.8,531.7,4832,right
50,1,binary,49,2,fixationCross,10254170.0,10255570.0,1400.0,49,L,10253176,10253916,742,839.5,530.6,5139,NA
50,1,binary,49,2,fixationCross,10254170.0,10255570.0,1400.0,49,L,10253938,10254070,134,917.6,540.9,4981,NA
50,1,binary,49,2,trial,10254170.0,10255570.0,1400.0,49,L,10254082,10254312,232,952.5,540.3,5017,NA
50,1,binary,49,2,trial,10254170.0,10255570.0,1400.0,49,L,10254358,10254472,116,562.1,504.5,5181,left
50,1,binary,49,2,trial,10254170.0,10255570.0,1400.0,49,L,10254494,10254734,242,480.6,574.0,5071,left
50,1,binary,49,2,trial,10254170.0,10255570.0,1400.0,49,L,10254802,10255088,288,1470.2,497.1,4767,right
50,1,binary,49,2,trial,10254170.0,10255570.0,1400.0,49,L,10255108,10255580,474,1490.6,442.4,4685,right
50,1,binary,49,2,postResponse,10254170.0,10255570.0,1400.0,49,L,10255786,10255906,122,1474.3,478.6,4660,right
50,1,binary,50,1,fixationCross,10256720.0,10258204.0,1484.0,50,L,10256006,10256392,388,1471.9,482.8,4803,right
50,1,binary,50,1,trial,10256720.0,10258204.0,1484.0,50,L,10256446,10256878,434,953.4,547.2,5110,NA
50,1,binary,50,1,trial,10256720.0,10258204.0,1484.0,50,L,10256926,10257188,264,532.7,532.1,5162,left
50,1,binary,50,1,trial,10256720.0,10258204.0,1484.0,50,L,10257256,10257422,168,1437.0,538.0,4781,right
50,1,binary,50,1,trial,10256720.0,10258204.0,1484.0,50,L,10257450,10257578,130,1604.4,471.4,4572,right
50,1,binary,50,1,trial,10256720.0,10258204.0,1484.0,50,L,10257590,10257734,146,1634.3,459.5,4523,right
50,1,binary,50,1,trial,10256720.0,10258204.0,1484.0,50,L,10257814,10258092,280,569.5,546.9,4718,left
50,1,binary,50,1,trial,10256720.0,10258204.0,1484.0,50,L,10258112,10258418,308,480.1,573.9,4746,left
50,2,continuous,1,83,fixationCross,10350654.0,10363704.0,13050.0,51,L,10349931,10350107,178,884.5,385.9,4943,NA
50,2,continuous,1,83,fixationCross,10350654.0,10363704.0,13050.0,51,L,10350161,10350339,180,927.2,913.2,5115,likertHorizontal
50,2,continuous,1,83,fixationCross,10350654.0,10363704.0,13050.0,51,L,10350381,10350519,140,903.6,531.8,5205,NA
50,2,continuous,1,83,trial,10350654.0,10363704.0,13050.0,51,L,10350529,10350793,266,930.5,545.6,5349,NA
50,2,continuous,1,83,trial,10350654.0,10363704.0,13050.0,51,L,10350837,10350995,160,516.4,492.0,5550,left
50,2,continuous,1,83,trial,10350654.0,10363704.0,13050.0,51,L,10351153,10351261,110,628.8,910.2,5325,NA
50,2,continuous,1,83,trial,10350654.0,10363704.0,13050.0,51,L,10351285,10351587,304,516.0,993.3,5331,NA
50,2,continuous,1,83,trial,10350654.0,10363704.0,13050.0,51,L,10351597,10351849,254,481.3,1012.2,5573,NA
50,2,continuous,1,83,trial,10350654.0,10363704.0,13050.0,51,L,10351913,10352279,368,479.4,512.8,5545,left
50,2,continuous,1,83,trial,10350654.0,10363704.0,13050.0,51,L,10352357,10352723,368,1516.1,524.8,5061,right
50,2,continuous,1,83,trial,10350654.0,10363704.0,13050.0,51,L,10352777,10352923,148,1082.1,789.7,5148,likertHorizontal
50,2,continuous,1,83,trial,10350654.0,10363704.0,13050.0,51,L,10352965,10353091,128,1371.5,982.8,5138,NA
50,2,continuous,1,83,trial,10350654.0,10363704.0,13050.0,51,L,10353515,10353569,56,462.1,596.2,5614,left
50,2,continuous,1,83,trial,10350654.0,10363704.0,13050.0,51,L,10353581,10353697,118,473.9,653.4,5544,left
50,2,continuous,1,83,trial,10350654.0,10363704.0,13050.0,51,L,10353727,10354475,750,443.5,494.6,5280,left
50,2,continuous,1,83,trial,10350654.0,10363704.0,13050.0,51,L,10354533,10354775,244,894.4,1037.5,5045,likertHorizontal
50,2,continuous,1,83,trial,10350654.0,10363704.0,13050.0,51,L,10354785,10354981,198,916.9,1021.5,5022,likertHorizontal
50,2,continuous,1,83,trial,10350654.0,10363704.0,13050.0,51,L,10355027,10355269,244,1328.2,985.2,5036,NA
50,2,continuous,1,83,trial,10350654.0,10363704.0,13050.0,51,L,10355293,10355869,578,1214.1,994.6,5098,NA
50,2,continuous,1,83,trial,10350654.0,10363704.0,13050.0,51,L,10355905,10355959,56,1308.1,836.0,5124,NA
50,2,continuous,1,83,trial,10350654.0,10363704.0,13050.0,51,L,10355999,10356217,220,1364.1,589.1,5088,right
50,2,continuous,1,83,trial,10350654.0,10363704.0,13050.0,51,L,10356389,10356649,262,1418.8,637.3,4956,right
50,2,continuous,1,83,trial,10350654.0,10363704.0,13050.0,51,L,10356693,10356805,114,1453.6,956.2,5105,NA
50,2,continuous,1,83,trial,10350654.0,10363704.0,13050.0,51,L,10356817,10357115,300,1458.7,988.2,5020,NA
50,2,continuous,1,83,trial,10350654.0,10363704.0,13050.0,51,L,10357173,10357425,254,1459.4,508.7,4780,right
50,2,continuous,1,83,trial,10350654.0,10363704.0,13050.0,51,L,10357631,10357657,28,451.6,482.4,4970,left
50,2,continuous,1,83,trial,10350654.0,10363704.0,13050.0,51,L,10357691,10357849,160,468.1,570.1,4759,left
50,2,continuous,1,83,trial,10350654.0,10363704.0,13050.0,51,L,10357877,10358151,276,452.5,486.9,4688,left
50,2,continuous,1,83,trial,10350654.0,10363704.0,13050.0,51,L,10358163,10358529,368,421.7,462.8,4441,left
50,2,continuous,1,83,trial,10350654.0,10363704.0,13050.0,51,L,10358609,10358773,166,1402.6,726.3,4420,right
50,2,continuous,1,83,trial,10350654.0,10363704.0,13050.0,51,L,10358809,10358907,100,1418.7,935.7,4496,NA
50,2,continuous,1,83,trial,10350654.0,10363704.0,13050.0,51,L,10358921,10359349,430,1448.6,973.3,4842,NA
50,2,continuous,1,83,trial,10350654.0,10363704.0,13050.0,51,L,10359403,10359699,298,1436.1,533.8,5249,right
50,2,continuous,1,83,trial,10350654.0,10363704.0,13050.0,51,L,10359879,10360525,648,1403.4,564.6,5462,right
50,2,continuous,1,83,trial,10350654.0,10363704.0,13050.0,51,L,10360549,10362175,1628,1536.0,503.4,5163,right
50,2,continuous,1,83,trial,10350654.0,10363704.0,13050.0,51,L,10362361,10362585,226,1506.1,577.7,5081,right
50,2,continuous,1,83,trial,10350654.0,10363704.0,13050.0,51,L,10362635,10362785,152,1320.4,917.7,5249,NA
50,2,continuous,1,83,trial,10350654.0,10363704.0,13050.0,51,L,10362805,10363181,378,1252.3,989.3,5040,NA
50,2,continuous,1,83,trial,10350654.0,10363704.0,13050.0,51,L,10363201,10363429,230,1359.3,977.3,4786,NA
50,2,continuous,1,83,trial,10350654.0,10363704.0,13050.0,51,L,10363455,10363645,192,1309.6,871.5,4803,NA
50,2,continuous,1,83,trial,10350654.0,10363704.0,13050.0,51,L,10363689,10364019,332,1346.9,598.2,4954,right
50,2,continuous,2,1,fixationCross,10364671.0,10366421.0,1750.0,52,L,10364177,10364459,284,1059.5,553.9,5421,NA
50,2,continuous,2,1,trial,10364671.0,10366421.0,1750.0,52,L,10364483,10364813,332,927.5,521.5,5609,NA
50,2,continuous,2,1,trial,10364671.0,10366421.0,1750.0,52,L,10364859,10365075,218,529.4,559.2,5443,left
50,2,continuous,2,1,trial,10364671.0,10366421.0,1750.0,52,L,10365095,10365193,100,442.4,527.9,5112,left
50,2,continuous,2,1,trial,10364671.0,10366421.0,1750.0,52,L,10365259,10365621,364,1392.2,513.0,4799,right
50,2,continuous,2,1,trial,10364671.0,10366421.0,1750.0,52,L,10365699,10365927,230,610.6,979.9,4973,NA
50,2,continuous,2,1,trial,10364671.0,10366421.0,1750.0,52,L,10365945,10366327,384,520.2,976.6,5116,NA
50,2,continuous,2,1,trial,10364671.0,10366421.0,1750.0,52,L,10366339,10366475,138,472.1,974.2,5377,NA
50,2,continuous,2,1,trial,10364671.0,10366421.0,1750.0,52,L,10366527,10366699,174,476.8,526.3,5432,left
50,2,continuous,3,40,fixationCross,10367504.0,10374138.0,6634.0,53,L,10366879,10367215,338,677.8,510.2,5711,left
50,2,continuous,3,40,trial,10367504.0,10374138.0,6634.0,53,L,10367249,10367657,410,923.2,538.0,5825,NA
50,2,continuous,3,40,trial,10367504.0,10374138.0,6634.0,53,L,10367699,10368045,348,599.7,513.2,5425,left
50,2,continuous,3,40,trial,10367504.0,10374138.0,6634.0,53,L,10368209,10368373,166,1497.9,562.8,4870,right
50,2,continuous,3,40,trial,10367504.0,10374138.0,6634.0,53,L,10368393,10368779,388,1444.3,622.5,4836,right
50,2,continuous,3,40,trial,10367504.0,10374138.0,6634.0,53,L,10368813,10369049,238,1429.2,502.2,4691,right
50,2,continuous,3,40,trial,10367504.0,10374138.0,6634.0,53,L,10369115,10369315,202,648.4,482.6,4664,left
50,2,continuous,3,40,trial,10367504.0,10374138.0,6634.0,53,L,10369329,10369659,332,630.5,517.1,4643,left
50,2,continuous,3,40,trial,10367504.0,10374138.0,6634.0,53,L,10369721,10370021,302,1406.1,631.1,4582,right
50,2,continuous,3,40,trial,10367504.0,10374138.0,6634.0,53,L,10370113,10370321,210,584.5,504.7,4623,left
50,2,continuous,3,40,trial,10367504.0,10374138.0,6634.0,53,L,10370341,10370547,208,578.8,443.3,4604,left
50,2,continuous,3,40,trial,10367504.0,10374138.0,6634.0,53,L,10370745,10370843,100,618.2,432.6,4635,left
50,2,continuous,3,40,trial,10367504.0,10374138.0,6634.0,53,L,10371017,10371461,446,1488.0,600.2,4821,right
50,2,continuous,3,40,trial,10367504.0,10374138.0,6634.0,53,L,10371509,10371607,100,1480.7,929.8,4802,NA
50,2,continuous,3,40,trial,10367504.0,10374138.0,6634.0,53,L,10371621,10371825,206,1475.7,971.1,4722,NA
50,2,continuous,3,40,trial,10367504.0,10374138.0,6634.0,53,L,10371871,10372341,472,1441.3,600.6,4584,right
50,2,continuous,3,40,trial,10367504.0,10374138.0,6634.0,53,L,10372413,10372611,200,593.5,513.0,4681,left
50,2,continuous,3,40,trial,10367504.0,10374138.0,6634.0,53,L,10372829,10373037,210,583.4,442.9,4510,left
50,2,continuous,3,40,trial,10367504.0,10374138.0,6634.0,53,L,10373095,10374025,932,889.6,982.4,4797,likertHorizontal
50,2,continuous,3,40,trial,10367504.0,10374138.0,6634.0,53,L,10374085,10374367,284,628.5,480.5,5196,left
50,2,continuous,4,10,fixationCross,10375287.0,10377204.0,1917.0,54,L,10374569,10374999,432,824.1,493.8,5135,NA
50,2,continuous,4,10,trial,10375287.0,10377204.0,1917.0,54,L,10375017,10375423,408,884.0,517.3,5212,NA
50,2,continuous,4,10,trial,10375287.0,10377204.0,1917.0,54,L,10375465,10375745,282,511.2,481.1,5025,left
50,2,continuous,4,10,trial,10375287.0,10377204.0,1917.0,54,L,10375759,10375919,162,472.3,464.9,4792,left
50,2,continuous,4,10,trial,10375287.0,10377204.0,1917.0,54,L,10375985,10376261,278,1303.2,544.0,4576,right
50,2,continuous,4,10,trial,10375287.0,10377204.0,1917.0,54,L,10376331,10376503,174,735.1,925.4,4693,NA
50,2,continuous,4,10,trial,10375287.0,10377204.0,1917.0,54,L,10376527,10376735,210,602.6,960.9,4768,NA
50,2,continuous,4,10,trial,10375287.0,10377204.0,1917.0,54,L,10376753,10376921,170,540.0,992.2,4887,NA
50,2,continuous,4,10,trial,10375287.0,10377204.0,1917.0,54,L,10376969,10377101,134,498.5,505.7,5031,left
50,2,continuous,4,10,trial,10375287.0,10377204.0,1917.0,54,L,10377253,10377287,36,725.4,485.0,5109,left
50,2,continuous,4,10,postResponse,10375287.0,10377204.0,1917.0,54,L,10377297,10377537,242,741.0,524.5,4954,NA
50,2,continuous,5,50,fixationCross,10378304.0,10379671.0,1367.0,55,L,10377639,10378001,364,743.3,531.3,5095,NA
50,2,continuous,5,50,trial,10378304.0,10379671.0,1367.0,55,L,10378025,10378451,428,920.8,530.6,5073,NA
50,2,continuous,5,50,trial,10378304.0,10379671.0,1367.0,55,L,10378499,10378635,138,540.7,488.5,5166,left
50,2,continuous,5,50,trial,10378304.0,10379671.0,1367.0,55,L,10378649,10378979,332,506.6,467.5,4972,left
50,2,continuous,5,50,trial,10378304.0,10379671.0,1367.0,55,L,10379047,10379205,160,1279.4,516.6,4788,right
50,2,continuous,5,50,trial,10378304.0,10379671.0,1367.0,55,L,10379261,10379393,134,1021.4,938.3,4862,likertHorizontal
50,2,continuous,5,50,trial,10378304.0,10379671.0,1367.0,55,L,10379407,10379585,180,999.0,982.5,4909,likertHorizontal
50,2,continuous,5,50,trial,10378304.0,10379671.0,1367.0,55,L,10379637,10379903,268,1377.0,552.3,4901,right
50,2,continuous,6,7,fixationCross,10380771.0,10382954.0,2183.0,56,L,10380313,10380345,34,1045.8,535.8,5183,NA
50,2,continuous,6,7,fixationCross,10380771.0,10382954.0,2183.0,56,L,10380373,10380595,224,847.7,520.7,5297,NA
50,2,continuous,6,7,trial,10380771.0,10382954.0,2183.0,56,L,10380611,10380915,306,914.9,541.7,5218,NA
50,2,continuous,6,7,trial,10380771.0,10382954.0,2183.0,56,L,10380959,10381465,508,506.3,507.8,4888,left
50,2,continuous,6,7,trial,10380771.0,10382954.0,2183.0,56,L,10381479,10381765,288,504.6,543.1,4585,left
50,2,continuous,6,7,trial,10380771.0,10382954.0,2183.0,56,L,10381833,10381949,118,1419.0,455.5,4588,right
50,2,continuous,6,7,trial,10380771.0,10382954.0,2183.0,56,L,10381961,10382121,162,1427.0,435.1,4605,right
50,2,continuous,6,7,trial,10380771.0,10382954.0,2183.0,56,L,10382205,10382419,216,614.2,964.7,4677,NA
50,2,continuous,6,7,trial,10380771.0,10382954.0,2183.0,56,L,10382573,10382763,192,547.6,874.5,4760,NA
50,2,continuous,6,7,trial,10380771.0,10382954.0,2183.0,56,L,10382805,10382925,122,494.0,562.6,4851,left
50,2,continuous,6,7,trial,10380771.0,10382954.0,2183.0,56,L,10382941,10383227,288,497.3,507.3,4945,left
50,2,continuous,7,92,fixationCross,10383838.0,10385888.0,2050.0,57,L,10383421,10383821,402,967.6,481.6,4920,NA
50,2,continuous,7,92,trial,10383838.0,10385888.0,2050.0,57,L,10383833,10384039,208,956.1,529.1,5110,NA
50,2,continuous,7,92,trial,10383838.0,10385888.0,2050.0,57,L,10384079,10384227,150,639.8,540.6,5008,left
50,2,continuous,7,92,trial,10383838.0,10385888.0,2050.0,57,L,10384287,10384553,268,1402.5,558.3,4648,right
50,2,continuous,7,92,trial,10383838.0,10385888.0,2050.0,57,L,10384573,10384787,216,1500.5,564.6,4464,right
50,2,continuous,7,92,trial,10383838.0,10385888.0,2050.0,57,L,10384807,10385051,246,1547.9,501.3,4378,right
50,2,continuous,7,92,trial,10383838.0,10385888.0,2050.0,57,L,10385071,10385219,150,1526.7,574.6,4351,right
50,2,continuous,7,92,trial,10383838.0,10385888.0,2050.0,57,L,10385243,10385427,186,1432.5,636.5,4402,right
50,2,continuous,7,92,trial,10383838.0,10385888.0,2050.0,57,L,10385473,10385709,238,1375.0,963.4,4594,NA
50,2,continuous,7,92,trial,10383838.0,10385888.0,2050.0,57,L,10385757,10386069,314,1432.7,638.3,4521,right
50,2,continuous,8,1,trial,10386771.0,10388321.0,1550.0,58,L,10386303,10386911,610,913.3,516.7,4762,NA
50,2,continuous,8,1,trial,10386771.0,10388321.0,1550.0,58,L,10386955,10387127,174,559.6,496.8,4680,left
50,2,continuous,8,1,trial,10386771.0,10388321.0,1550.0,58,L,10387147,10387305,160,478.7,523.7,4552,left
50,2,continuous,8,1,trial,10386771.0,10388321.0,1550.0,58,L,10387371,10387679,310,1358.3,440.8,4430,right
50,2,continuous,8,1,trial,10386771.0,10388321.0,1550.0,58,L,10387743,10387853,112,724.6,896.6,4583,NA
50,2,continuous,8,1,trial,10386771.0,10388321.0,1550.0,58,L,10387877,10388101,226,541.9,978.8,4596,NA
50,2,continuous,8,1,trial,10386771.0,10388321.0,1550.0,58,L,10388115,10388261,148,494.0,987.6,4615,NA
50,2,continuous,8,1,trial,10386771.0,10388321.0,1550.0,58,L,10388309,10388589,282,526.3,476.2,4744,left
50,2,continuous,9,76,fixationCross,10389421.0,10391305.0,1884.0,59,L,10388765,10389145,382,851.8,512.7,5009,NA
50,2,continuous,9,76,trial,10389421.0,10391305.0,1884.0,59,L,10389161,10389571,412,914.5,518.9,5082,NA
50,2,continuous,9,76,trial,10389421.0,10391305.0,1884.0,59,L,10389617,10389741,126,528.3,529.3,4911,left
50,2,continuous,9,76,trial,10389421.0,10391305.0,1884.0,59,L,10389757,10389917,162,458.3,519.0,4718,left
50,2,continuous,9,76,trial,10389421.0,10391305.0,1884.0,59,L,10389977,10390153,178,1225.4,567.8,4438,right
50,2,continuous,9,76,trial,10389421.0,10391305.0,1884.0,59,L,10390177,10390477,302,1340.4,596.3,4295,right
50,2,continuous,9,76,trial,10389421.0,10391305.0,1884.0,59,L,10390525,10390689,166,1176.2,887.4,4335,likertHorizontal
50,2,continuous,9,76,trial,10389421.0,10391305.0,1884.0,59,L,10390709,10390843,136,1170.1,960.0,4341,likertHorizontal
50,2,continuous,9,76,trial,10389421.0,10391305.0,1884.0,59,L,10390977,10391141,166,1251.5,724.5,4414,right
50,2,continuous,9,76,trial,10389421.0,10391305.0,1884.0,59,L,10391169,10391507,340,1242.2,607.0,4572,right
50,2,continuous,10,5,fixationCross,10393138.0,10394738.0,1600.0,60,L,10391741,10391779,40,796.7,539.4,4585,NA
50,2,continuous,10,5,fixationCross,10393138.0,10394738.0,1600.0,60,L,10391789,10392547,760,804.1,566.2,4639,NA
50,2,continuous,10,5,fixationCross,10393138.0,10394738.0,1600.0,60,L,10392565,10392839,276,748.6,556.9,4633,NA
50,2,continuous,10,5,trial,10393138.0,10394738.0,1600.0,60,L,10392865,10393277,414,928.2,517.2,4687,NA
50,2,continuous,10,5,trial,10393138.0,10394738.0,1600.0,60,L,10393321,10393459,140,535.4,491.1,4804,left
50,2,continuous,10,5,trial,10393138.0,10394738.0,1600.0,60,L,10393479,10393803,326,434.6,501.0,4528,left
50,2,continuous,10,5,trial,10393138.0,10394738.0,1600.0,60,L,10393867,10394051,186,1344.3,507.1,4211,right
50,2,continuous,10,5,trial,10393138.0,10394738.0,1600.0,60,L,10394203,10394341,140,605.7,891.4,4351,NA
50,2,continuous,10,5,trial,10393138.0,10394738.0,1600.0,60,L,10394359,10394479,122,539.8,945.7,4375,NA
50,2,continuous,10,5,trial,10393138.0,10394738.0,1600.0,60,L,10394489,10394609,122,510.6,960.7,4484,NA
50,2,continuous,10,5,postResponse,10393138.0,10394738.0,1600.0,60,L,10394655,10395071,418,475.7,489.1,4651,left
50,2,continuous,11,60,fixationCross,10395855.0,10399088.0,3233.0,61,L,10395177,10395553,378,473.8,490.0,4426,left
50,2,continuous,11,60,trial,10395855.0,10399088.0,3233.0,61,L,10395601,10396003,404,926.5,533.2,4576,NA
50,2,continuous,11,60,trial,10395855.0,10399088.0,3233.0,61,L,10396043,10396203,162,551.4,529.9,4702,left
50,2,continuous,11,60,trial,10395855.0,10399088.0,3233.0,61,L,10396225,10396349,126,521.3,593.6,4658,left
50,2,continuous,11,60,trial,10395855.0,10399088.0,3233.0,61,L,10396415,10396649,236,1387.7,581.7,4558,right
50,2,continuous,11,60,trial,10395855.0,10399088.0,3233.0,61,L,10396663,10396837,176,1421.4,606.8,4458,right
50,2,continuous,11,60,trial,10395855.0,10399088.0,3233.0,61,L,10397037,10397143,108,1144.4,734.6,4609,likertHorizontal
50,2,continuous,11,60,trial,10395855.0,10399088.0,3233.0,61,L,10397183,10397531,350,1108.1,980.1,4749,likertHorizontal
50,2,continuous,11,60,trial,10395855.0,10399088.0,3233.0,61,L,10397587,10397739,154,1237.2,518.8,4877,right
50,2,continuous,11,60,trial,10395855.0,10399088.0,3233.0,61,L,10397789,10398229,442,1027.5,774.4,4924,likertHorizontal
50,2,continuous,11,60,trial,10395855.0,10399088.0,3233.0,61,L,10398275,10398413,140,606.2,650.8,4947,left
50,2,continuous,11,60,trial,10395855.0,10399088.0,3233.0,61,L,10398465,10398587,124,1013.8,966.1,4976,likertHorizontal
50,2,continuous,11,60,trial,10395855.0,10399088.0,3233.0,61,L,10398601,10398725,126,1067.6,988.0,4806,likertHorizontal
50,2,continuous,11,60,trial,10395855.0,10399088.0,3233.0,61,L,10398789,10399087,300,510.5,568.8,4681,left
50,2,continuous,11,60,trial,10395855.0,10399088.0,3233.0,61,L,10399111,10399281,172,505.9,472.4,4556,left
50,2,continuous,12,47,fixationCross,10400172.0,10402405.0,2233.0,62,L,10399503,10399875,374,1068.0,603.2,4435,NA
50,2,continuous,12,47,fixationCross,10400172.0,10402405.0,2233.0,62,L,10399897,10400113,218,960.8,547.1,4635,NA
50,2,continuous,12,47,trial,10400172.0,10402405.0,2233.0,62,L,10400127,10400311,186,917.2,523.0,4631,NA
50,2,continuous,12,47,trial,10400172.0,10402405.0,2233.0,62,L,10400355,10400653,300,495.8,495.0,4574,left
50,2,continuous,12,47,trial,10400172.0,10402405.0,2233.0,62,L,10400721,10401053,334,1387.6,520.6,4278,right
50,2,continuous,12,47,trial,10400172.0,10402405.0,2233.0,62,L,10401115,10401569,456,1008.0,953.9,4567,likertHorizontal
50,2,continuous,12,47,trial,10400172.0,10402405.0,2233.0,62,L,10401621,10401799,180,1379.3,526.1,4598,right
50,2,continuous,12,47,trial,10400172.0,10402405.0,2233.0,62,L,10401871,10401999,130,466.7,487.4,4733,left
50,2,continuous,12,47,trial,10400172.0,10402405.0,2233.0,62,L,10402153,10402177,26,477.4,414.6,4790,left
50,2,continuous,12,47,trial,10400172.0,10402405.0,2233.0,62,L,10402191,10402311,122,484.6,480.0,4543,left
50,2,continuous,12,47,postResponse,10400172.0,10402405.0,2233.0,62,L,10402373,10402731,360,954.7,1000.5,4484,likertHorizontal
50,2,continuous,13,80,fixationCross,10403605.0,10405655.0,2050.0,63,L,10402939,10403001,64,832.6,679.2,4607,NA
50,2,continuous,13,80,fixationCross,10403605.0,10405655.0,2050.0,63,L,10403029,10403247,220,734.6,518.8,4663,left
50,2,continuous,13,80,trial,10403605.0,10405655.0,2050.0,63,L,10403269,10403657,390,869.8,499.5,4785,NA
50,2,continuous,13,80,trial,10403605.0,10405655.0,2050.0,63,L,10403683,10403753,72,707.2,500.4,4706,left
50,2,continuous,13,80,trial,10403605.0,10405655.0,2050.0,63,L,10403781,10403879,100,499.7,492.6,4689,left
50,2,continuous,13,80,trial,10403605.0,10405655.0,2050.0,63,L,10403899,10404153,256,414.4,472.2,4510,left
50,2,continuous,13,80,trial,10403605.0,10405655.0,2050.0,63,L,10404217,10404505,290,1309.0,495.2,4193,right
50,2,continuous,13,80,trial,10403605.0,10405655.0,2050.0,63,L,10404529,10404671,144,1430.7,502.1,4113,right
50,2,continuous,13,80,trial,10403605.0,10405655.0,2050.0,63,L,10404693,10404981,290,1442.6,431.2,4160,right
50,2,continuous,13,80,trial,10403605.0,10405655.0,2050.0,63,L,10405041,10405191,152,1244.6,866.0,4327,NA
50,2,continuous,13,80,trial,10403605.0,10405655.0,2050.0,63,L,10405211,10405279,70,1250.7,931.5,4403,NA
50,2,continuous,13,80,trial,10403605.0,10405655.0,2050.0,63,L,10405451,10405511,62,1278.3,815.1,4570,NA
50,2,continuous,13,80,trial,10403605.0,10405655.0,2050.0,63,L,10405547,10405865,320,1302.6,659.1,4614,right
50,2,continuous,14,55,fixationCross,10406688.0,10409005.0,2317.0,64,L,10406079,10406343,266,1220.6,852.9,4788,NA
50,2,continuous,14,55,trial,10406688.0,10409005.0,2317.0,64,L,10406403,10406823,422,882.8,478.1,4962,NA
50,2,continuous,14,55,trial,10406688.0,10409005.0,2317.0,64,L,10406861,10407019,160,567.1,482.8,4820,left
50,2,continuous,14,55,trial,10406688.0,10409005.0,2317.0,64,L,10407035,10407205,172,517.2,438.1,4587,left
50,2,continuous,14,55,trial,10406688.0,10409005.0,2317.0,64,L,10407229,10407365,138,366.1,515.0,4485,left
50,2,continuous,14,55,trial,10406688.0,10409005.0,2317.0,64,L,10407431,10407627,198,1297.0,510.6,4413,right
50,2,continuous,14,55,trial,10406688.0,10409005.0,2317.0,64,L,10407647,10407831,186,1390.9,541.6,4360,right
50,2,continuous,14,55,trial,10406688.0,10409005.0,2317.0,64,L,10407841,10408021,182,1423.4,548.5,4300,right
50,2,continuous,14,55,trial,10406688.0,10409005.0,2317.0,64,L,10408219,10408311,94,594.8,397.1,4220,left
50,2,continuous,14,55,trial,10406688.0,10409005.0,2317.0,64,L,10408369,10408601,234,1066.0,931.9,4397,likertHorizontal
50,2,continuous,14,55,trial,10406688.0,10409005.0,2317.0,64,L,10408665,10408821,158,524.0,474.3,4567,left
50,2,continuous,14,55,trial,10406688.0,10409005.0,2317.0,64,L,10408839,10409221,384,521.7,417.0,4593,left
50,2,continuous,15,69,fixationCross,10410822.0,10412888.0,2066.0,65,L,10409453,10409731,280,889.2,639.9,4553,NA
50,2,continuous,15,69,fixationCross,10410822.0,10412888.0,2066.0,65,L,10409757,10409977,222,767.3,551.8,4726,NA
50,2,continuous,15,69,fixationCross,10410822.0,10412888.0,2066.0,65,L,10409997,10410593,598,856.3,525.5,4764,NA
50,2,continuous,15,69,fixationCross,10410822.0,10412888.0,2066.0,65,L,10410607,10410787,182,919.2,523.7,4685,NA
50,2,continuous,15,69,trial,10410822.0,10412888.0,2066.0,65,L,10410963,10411047,86,938.1,518.3,4735,NA
50,2,continuous,15,69,trial,10410822.0,10412888.0,2066.0,65,L,10411091,10411221,132,535.9,498.9,4770,left
50,2,continuous,15,69,trial,10410822.0,10412888.0,2066.0,65,L,10411237,10411401,166,487.0,510.8,4805,left
50,2,continuous,15,69,trial,10410822.0,10412888.0,2066.0,65,L,10411463,10411729,268,1306.0,511.5,4518,right
50,2,continuous,15,69,trial,10410822.0,10412888.0,2066.0,65,L,10411755,10412039,286,1479.0,498.4,4271,right
50,2,continuous,15,69,trial,10410822.0,10412888.0,2066.0,65,L,10412051,10412181,132,1479.8,526.1,4130,right
50,2,continuous,15,69,trial,10410822.0,10412888.0,2066.0,65,L,10412253,10412525,274,1181.0,913.4,4175,likertHorizontal
50,2,continuous,15,69,trial,10410822.0,10412888.0,2066.0,65,L,10412567,10412691,126,1206.1,687.7,4217,right
50,2,continuous,15,69,trial,10410822.0,10412888.0,2066.0,65,L,10412883,10413143,262,1235.0,699.1,4516,right
50,2,continuous,16,85,fixationCross,10413972.0,10415722.0,1750.0,66,L,10413395,10413663,270,1103.6,709.1,4734,NA
50,2,continuous,16,85,trial,10413972.0,10415722.0,1750.0,66,L,10413699,10414115,418,950.2,521.7,4777,NA
50,2,continuous,16,85,trial,10413972.0,10415722.0,1750.0,66,L,10414159,10414359,202,507.1,469.6,4613,left
50,2,continuous,16,85,trial,10413972.0,10415722.0,1750.0,66,L,10414421,10414649,230,1335.4,549.9,4286,right
50,2,continuous,16,85,trial,10413972.0,10415722.0,1750.0,66,L,10414671,10415059,390,1356.8,480.3,4236,right
50,2,continuous,16,85,trial,10413972.0,10415722.0,1750.0,66,L,10415095,10415547,454,1358.9,687.6,4417,right
50,2,continuous,16,85,trial,10413972.0,10415722.0,1750.0,66,L,10415585,10415751,168,1332.6,928.0,4619,NA
50,2,continuous,16,85,trial,10413972.0,10415722.0,1750.0,66,L,10415801,10415955,156,1340.8,488.2,4614,right
50,2,continuous,17,70,fixationCross,10416805.0,10419571.0,2766.0,67,L,10416159,10416493,336,1344.3,484.8,4805,right
50,2,continuous,17,70,trial,10416805.0,10419571.0,2766.0,67,L,10416535,10416945,412,951.6,526.6,4861,NA
50,2,continuous,17,70,trial,10416805.0,10419571.0,2766.0,67,L,10416985,10417247,264,603.4,508.1,4577,left
50,2,continuous,17,70,trial,10416805.0,10419571.0,2766.0,67,L,10417265,10417531,268,545.0,469.4,4333,left
50,2,continuous,17,70,trial,10416805.0,10419571.0,2766.0,67,L,10417599,10417821,224,1411.2,520.9,4091,right
50,2,continuous,17,70,trial,10416805.0,10419571.0,2766.0,67,L,10417891,10418033,144,779.7,853.0,4144,likertHorizontal
50,2,continuous,17,70,trial,10416805.0,10419571.0,2766.0,67,L,10418095,10418183,90,1468.0,514.8,4088,right
50,2,continuous,17,70,trial,10416805.0,10419571.0,2766.0,67,L,10418209,10418607,400,1607.4,496.5,4161,right
50,2,continuous,17,70,trial,10416805.0,10419571.0,2766.0,67,L,10418799,10419031,234,1195.3,883.0,4283,NA
50,2,continuous,17,70,trial,10416805.0,10419571.0,2766.0,67,L,10419073,10419253,182,1212.0,680.4,4402,right
50,2,continuous,17,70,trial,10416805.0,10419571.0,2766.0,67,L,10419315,10419543,230,580.6,481.7,4463,left
50,2,continuous,17,70,trial,10416805.0,10419571.0,2766.0,67,L,10419597,10419799,204,1100.5,718.7,4206,NA
50,2,continuous,18,99,fixationCross,10420638.0,10422772.0,2134.0,68,L,10420037,10420331,296,1118.6,811.0,4177,likertHorizontal
50,2,continuous,18,99,trial,10420638.0,10422772.0,2134.0,68,L,10420375,10420697,324,947.9,527.5,4555,NA
50,2,continuous,18,99,trial,10420638.0,10422772.0,2134.0,68,L,10420715,10420793,80,893.7,492.4,4621,NA
50,2,continuous,18,99,trial,10420638.0,10422772.0,2134.0,68,L,10420837,10421023,188,455.7,483.5,4491,left
50,2,continuous,18,99,trial,10420638.0,10422772.0,2134.0,68,L,10421085,10421333,250,1326.6,473.9,4346,right
50,2,continuous,18,99,trial,10420638.0,10422772.0,2134.0,68,L,10421351,10421635,286,1382.2,517.1,4298,right
50,2,continuous,18,99,trial,10420638.0,10422772.0,2134.0,68,L,10421653,10421827,176,1388.3,587.9,4328,right
50,2,continuous,18,99,trial,10420638.0,10422772.0,2134.0,68,L,10421877,10422087,212,1085.4,881.2,4555,likertHorizontal
50,2,continuous,18,99,trial,10420638.0,10422772.0,2134.0,68,L,10422105,10422203,100,1153.0,926.2,4702,likertHorizontal
50,2,continuous,18,99,trial,10420638.0,10422772.0,2134.0,68,L,10422361,10422481,122,1273.6,874.2,4828,NA
50,2,continuous,18,99,trial,10420638.0,10422772.0,2134.0,68,L,10422505,10422629,126,1411.1,926.1,4884,NA
50,2,continuous,18,99,trial,10420638.0,10422772.0,2134.0,68,L,10422675,10422973,300,1360.7,524.3,5037,right
50,2,continuous,19,31,fixationCross,10423838.0,10425255.0,1417.0,69,L,10423217,10423487,272,1339.6,882.5,4895,NA
50,2,continuous,19,31,trial,10423838.0,10425255.0,1417.0,69,L,10423551,10423973,424,880.6,589.1,5103,NA
50,2,continuous,19,31,trial,10423838.0,10425255.0,1417.0,69,L,10424023,10424165,144,464.6,455.2,4841,left
50,2,continuous,19,31,trial,10423838.0,10425255.0,1417.0,69,L,10424181,10424383,204,411.3,445.2,4490,left
50,2,continuous,19,31,trial,10423838.0,10425255.0,1417.0,69,L,10424453,10424815,364,1454.0,495.9,4078,right
50,2,continuous,19,31,trial,10423838.0,10425255.0,1417.0,69,L,10424891,10425279,390,790.9,977.2,4199,likertHorizontal
50,2,continuous,19,31,trial,10423838.0,10425255.0,1417.0,69,L,10425339,10425479,142,596.6,493.2,4245,left
50,2,continuous,20,86,fixationCross,10426405.0,10428805.0,2400.0,70,L,10425729,10425773,46,810.2,526.1,4518,NA
50,2,continuous,20,86,fixationCross,10426405.0,10428805.0,2400.0,70,L,10425783,10426117,336,826.1,553.8,4585,NA
50,2,continuous,20,86,trial,10426405.0,10428805.0,2400.0,70,L,10426131,10426529,400,876.9,561.0,4703,NA
50,2,continuous,20,86,trial,10426405.0,10428805.0,2400.0,70,L,10426573,10426711,140,528.7,492.3,4508,left
50,2,continuous,20,86,trial,10426405.0,10428805.0,2400.0,70,L,10426733,10426807,76,440.3,438.7,4354,left
50,2,continuous,20,86,trial,10426405.0,10428805.0,2400.0,70,L,10426821,10427003,184,410.7,423.5,4188,left
50,2,continuous,20,86,trial,10426405.0,10428805.0,2400.0,70,L,10427015,10427363,350,449.2,449.9,4089,left
50,2,continuous,20,86,trial,10426405.0,10428805.0,2400.0,70,L,10427429,10427641,214,1376.1,464.0,4047,right
50,2,continuous,20,86,trial,10426405.0,10428805.0,2400.0,70,L,10427667,10427915,250,1501.6,570.5,4027,right
50,2,continuous,20,86,trial,10426405.0,10428805.0,2400.0,70,L,10427939,10428045,108,1437.4,657.9,4091,right
50,2,continuous,20,86,trial,10426405.0,10428805.0,2400.0,70,L,10428089,10428313,226,1279.9,934.7,4245,NA
50,2,continuous,20,86,trial,10426405.0,10428805.0,2400.0,70,L,10428487,10428587,102,1319.8,874.5,4397,NA
50,2,continuous,20,86,trial,10426405.0,10428805.0,2400.0,70,L,10428629,10428813,186,1540.7,648.9,4369,right
50,2,continuous,20,86,trial,10426405.0,10428805.0,2400.0,70,L,10428831,10429011,182,1574.4,622.4,4382,right
50,2,continuous,21,60,fixationCross,10430672.0,10432822.0,2150.0,71,L,10429255,10429397,144,1274.7,856.8,4367,NA
50,2,continuous,21,60,fixationCross,10430672.0,10432822.0,2150.0,71,L,10429463,10429941,480,748.3,557.8,4556,NA
50,2,continuous,21,60,fixationCross,10430672.0,10432822.0,2150.0,71,L,10429961,10430371,412,680.9,510.8,4444,left
50,2,continuous,21,60,fixationCross,10430672.0,10432822.0,2150.0,71,L,10430399,10430513,116,874.9,496.4,4439,NA
50,2,continuous,21,60,trial,10430672.0,10432822.0,2150.0,71,L,10430525,10430819,296,931.4,509.2,4429,NA
50,2,continuous,21,60,trial,10430672.0,10432822.0,2150.0,71,L,10430861,10431185,326,561.5,520.5,4408,left
50,2,continuous,21,60,trial,10430672.0,10432822.0,2150.0,71,L,10431257,10431383,128,1464.9,448.2,4191,right
50,2,continuous,21,60,trial,10430672.0,10432822.0,2150.0,71,L,10431403,10431847,446,1529.5,405.2,4123,right
50,2,continuous,21,60,trial,10430672.0,10432822.0,2150.0,71,L,10431979,10432101,124,1446.7,490.3,4249,right
50,2,continuous,21,60,trial,10430672.0,10432822.0,2150.0,71,L,10432161,10432559,400,1134.2,891.7,4442,likertHorizontal
50,2,continuous,21,60,trial,10430672.0,10432822.0,2150.0,71,L,10432579,10432789,212,1098.8,975.7,4586,likertHorizontal
50,2,continuous,21,60,trial,10430672.0,10432822.0,2150.0,71,L,10432807,10432951,146,1023.6,982.8,4678,likertHorizontal
50,2,continuous,22,60,fixationCross,10433956.0,10436356.0,2400.0,72,L,10433301,10433631,332,871.3,764.3,4589,likertHorizontal
50,2,continuous,22,60,trial,10433956.0,10436356.0,2400.0,72,L,10433669,10434093,426,922.1,545.1,4584,NA
50,2,continuous,22,60,trial,10433956.0,10436356.0,2400.0,72,L,10434139,10434407,270,553.3,498.0,4331,left
50,2,continuous,22,60,trial,10433956.0,10436356.0,2400.0,72,L,10434469,10434695,228,1322.3,514.5,4032,right
50,2,continuous,22,60,trial,10433956.0,10436356.0,2400.0,72,L,10434715,10435181,468,1422.7,526.6,3974,right
50,2,continuous,22,60,trial,10433956.0,10436356.0,2400.0,72,L,10435229,10435375,148,1189.0,846.5,4075,NA
50,2,continuous,22,60,trial,10433956.0,10436356.0,2400.0,72,L,10435399,10435633,236,1132.3,968.8,4146,likertHorizontal
50,2,continuous,22,60,trial,10433956.0,10436356.0,2400.0,72,L,10435835,10436149,316,1115.7,864.5,4412,likertHorizontal
50,2,continuous,22,60,trial,10433956.0,10436356.0,2400.0,72,L,10436167,10436567,402,1082.8,919.4,4634,likertHorizontal
50,2,continuous,23,61,fixationCross,10438822.0,10440605.0,1783.0,73,L,10436825,10436871,48,706.0,524.7,4631,left
50,2,continuous,23,61,fixationCross,10438822.0,10440605.0,1783.0,73,L,10436881,10438223,1344,709.7,570.5,4463,left
50,2,continuous,23,61,fixationCross,10438822.0,10440605.0,1783.0,73,L,10438247,10438381,136,825.7,526.9,4443,NA
50,2,continuous,23,61,fixationCross,10438822.0,10440605.0,1783.0,73,L,10438399,10438515,118,915.7,522.8,4432,NA
50,2,continuous,23,61,trial,10438822.0,10440605.0,1783.0,73,L,10438699,10438973,276,959.2,526.5,4587,NA
50,2,continuous,23,61,trial,10438822.0,10440605.0,1783.0,73,L,10439017,10439233,218,516.2,502.9,4628,left
50,2,continuous,23,61,trial,10438822.0,10440605.0,1783.0,73,L,10439253,10439407,156,500.7,434.3,4468,left
50,2,continuous,23,61,trial,10438822.0,10440605.0,1783.0,73,L,10439483,10439701,220,1451.9,552.7,4226,right
50,2,continuous,23,61,trial,10438822.0,10440605.0,1783.0,73,L,10439713,10439943,232,1488.1,568.6,4164,right
50,2,continuous,23,61,trial,10438822.0,10440605.0,1783.0,73,L,10439987,10440129,144,1169.4,746.2,4303,likertHorizontal
50,2,continuous,23,61,trial,10438822.0,10440605.0,1783.0,73,L,10440157,10440517,362,1072.2,958.1,4384,likertHorizontal
50,2,continuous,23,61,trial,10438822.0,10440605.0,1783.0,73,L,10440715,10440779,66,608.2,415.9,4611,left
50,2,continuous,23,61,trial,10438822.0,10440605.0,1783.0,73,L,10440801,10440827,28,623.6,435.2,4610,left
50,2,continuous,24,33,fixationCross,10441488.0,10444056.0,2568.0,74,L,10441093,10441431,340,880.6,524.7,4621,NA
50,2,continuous,24,33,trial,10441488.0,10444056.0,2568.0,74,L,10441443,10441653,212,924.1,531.7,4636,NA
50,2,continuous,24,33,trial,10441488.0,10444056.0,2568.0,74,L,10441695,10441885,192,613.9,519.6,4443,left
50,2,continuous,24,33,trial,10441488.0,10444056.0,2568.0,74,L,10441945,10442093,150,1379.6,536.6,4168,right
50,2,continuous,24,33,trial,10441488.0,10444056.0,2568.0,74,L,10442111,10442389,280,1431.9,568.6,4112,right
50,2,continuous,24,33,trial,10441488.0,10444056.0,2568.0,74,L,10442459,10442715,258,508.8,476.2,4102,left
50,2,continuous,24,33,trial,10441488.0,10444056.0,2568.0,74,L,10442735,10443203,470,405.9,477.9,4147,left
50,2,continuous,24,33,trial,10441488.0,10444056.0,2568.0,74,L,10443221,10443355,136,417.6,536.3,4150,left
50,2,continuous,24,33,trial,10441488.0,10444056.0,2568.0,74,L,10443523,10443921,400,1501.2,590.3,4108,right
50,2,continuous,24,33,trial,10441488.0,10444056.0,2568.0,74,L,10443945,10444331,388,1426.4,668.3,4012,right
50,2,continuous,25,43,fixationCross,10445189.0,10447322.0,2133.0,75,L,10444555,10444859,306,607.4,819.5,4387,NA
50,2,continuous,25,43,trial,10445189.0,10447322.0,2133.0,75,L,10444907,10445337,432,914.9,548.7,4709,NA
50,2,continuous,25,43,trial,10445189.0,10447322.0,2133.0,75,L,10445383,10445647,266,487.8,467.3,4713,left
50,2,continuous,25,43,trial,10445189.0,10447322.0,2133.0,75,L,10445665,10446069,406,416.6,491.8,4416,left
50,2,continuous,25,43,trial,10445189.0,10447322.0,2133.0,75,L,10446141,10446305,166,1399.9,530.1,4269,right
50,2,continuous,25,43,trial,10445189.0,10447322.0,2133.0,75,L,10446325,10446629,306,1438.8,585.9,4230,right
50,2,continuous,25,43,trial,10445189.0,10447322.0,2133.0,75,L,10446707,10447095,390,454.1,488.3,4245,left
50,2,continuous,25,43,trial,10445189.0,10447322.0,2133.0,75,L,10447245,10447313,70,593.0,598.2,4319,left
50,2,continuous,25,43,trial,10445189.0,10447322.0,2133.0,75,L,10447361,10447599,240,884.7,980.6,4268,likertHorizontal
50,2,continuous,26,70,fixationCross,10479123.0,10481205.0,2082.0,76,L,10478375,10478679,306,761.5,68.0,4327,NA
50,2,continuous,26,70,fixationCross,10479123.0,10481205.0,2082.0,76,L,10478733,10478817,86,862.6,463.9,4527,NA
50,2,continuous,26,70,trial,10479123.0,10481205.0,2082.0,76,L,10478839,10479293,456,942.1,527.7,4751,NA
50,2,continuous,26,70,trial,10479123.0,10481205.0,2082.0,76,L,10479335,10479587,254,558.5,516.4,5131,left
50,2,continuous,26,70,trial,10479123.0,10481205.0,2082.0,76,L,10479607,10479715,110,513.6,454.2,5159,left
50,2,continuous,26,70,trial,10479123.0,10481205.0,2082.0,76,L,10479779,10480063,286,1360.5,523.0,5101,right
50,2,continuous,26,70,trial,10479123.0,10481205.0,2082.0,76,L,10480081,10480281,202,1420.2,570.9,4903,right
50,2,continuous,26,70,trial,10479123.0,10481205.0,2082.0,76,L,10480331,10480895,566,1142.0,804.7,4673,likertHorizontal
50,2,continuous,26,70,trial,10479123.0,10481205.0,2082.0,76,L,10481069,10481411,344,1190.4,623.0,4957,right
50,2,continuous,27,28,fixationCross,10482339.0,10483556.0,1217.0,77,L,10481655,10482045,392,732.7,580.2,5006,left
50,2,continuous,27,28,trial,10482339.0,10483556.0,1217.0,77,L,10482071,10482485,416,921.0,525.3,5102,NA
50,2,continuous,27,28,trial,10482339.0,10483556.0,1217.0,77,L,10482525,10482763,240,605.9,566.7,5192,left
50,2,continuous,27,28,trial,10482339.0,10483556.0,1217.0,77,L,10482785,10482919,136,501.8,572.0,4881,left
50,2,continuous,27,28,trial,10482339.0,10483556.0,1217.0,77,L,10482985,10483209,226,1353.2,552.0,4595,right
50,2,continuous,27,28,trial,10482339.0,10483556.0,1217.0,77,L,10483227,10483485,260,1426.6,522.9,4435,right
50,2,continuous,27,28,trial,10482339.0,10483556.0,1217.0,77,L,10483559,10483771,214,598.4,591.1,4391,left
50,2,continuous,28,35,fixationCross,10484672.0,10486089.0,1417.0,78,L,10483987,10484403,418,848.1,537.6,4640,NA
50,2,continuous,28,35,trial,10484672.0,10486089.0,1417.0,78,L,10484421,10484811,392,920.8,535.0,4930,NA
50,2,continuous,28,35,trial,10484672.0,10486089.0,1417.0,78,L,10484853,10485017,166,583.2,518.4,4867,left
50,2,continuous,28,35,trial,10484672.0,10486089.0,1417.0,78,L,10485033,10485211,180,519.9,503.0,4664,left
50,2,continuous,28,35,trial,10484672.0,10486089.0,1417.0,78,L,10485277,10485715,440,1379.9,517.1,4368,right
50,2,continuous,28,35,trial,10484672.0,10486089.0,1417.0,78,L,10485735,10486311,578,1323.8,447.1,4416,right
50,2,continuous,29,25,fixationCross,10487222.0,10488473.0,1251.0,79,L,10486535,10486889,356,632.2,542.7,4843,left
50,2,continuous,29,25,fixationCross,10487222.0,10488473.0,1251.0,79,L,10486923,10487027,106,878.1,524.1,5109,NA
50,2,continuous,29,25,trial,10487222.0,10488473.0,1251.0,79,L,10487041,10487357,318,926.9,536.7,5020,NA
50,2,continuous,29,25,trial,10487222.0,10488473.0,1251.0,79,L,10487401,10487603,204,551.0,535.7,4864,left
50,2,continuous,29,25,trial,10487222.0,10488473.0,1251.0,79,L,10487625,10487881,258,444.5,526.6,4536,left
50,2,continuous,29,25,trial,10487222.0,10488473.0,1251.0,79,L,10487953,10488281,330,1367.0,557.6,4181,right
50,2,continuous,29,25,trial,10487222.0,10488473.0,1251.0,79,L,10488351,10488483,134,723.7,871.6,4370,NA
50,2,continuous,29,25,trial,10487222.0,10488473.0,1251.0,79,L,10488503,10488709,208,702.5,954.5,4451,NA
50,2,continuous,30,8,fixationCross,10489606.0,10492039.0,2433.0,80,L,10488939,10489309,372,800.0,611.0,4841,NA
50,2,continuous,30,8,trial,10489606.0,10492039.0,2433.0,80,L,10489333,10489739,408,915.8,554.6,4851,NA
50,2,continuous,30,8,trial,10489606.0,10492039.0,2433.0,80,L,10489783,10489957,176,517.4,507.4,4693,left
50,2,continuous,30,8,trial,10489606.0,10492039.0,2433.0,80,L,10489975,10490265,292,437.9,498.2,4390,left
50,2,continuous,30,8,trial,10489606.0,10492039.0,2433.0,80,L,10490337,10490519,184,1400.3,499.4,4142,right
50,2,continuous,30,8,trial,10489606.0,10492039.0,2433.0,80,L,10490537,10490735,200,1454.0,519.2,4066,right
50,2,continuous,30,8,trial,10489606.0,10492039.0,2433.0,80,L,10490813,10490953,142,680.3,951.5,4146,NA
50,2,continuous,30,8,trial,10489606.0,10492039.0,2433.0,80,L,10490979,10491155,178,507.5,957.8,4128,NA
50,2,continuous,30,8,trial,10489606.0,10492039.0,2433.0,80,L,10491205,10491499,296,448.6,501.5,4280,left
50,2,continuous,30,8,trial,10489606.0,10492039.0,2433.0,80,L,10491513,10491667,156,413.4,477.5,4416,left
50,2,continuous,30,8,trial,10489606.0,10492039.0,2433.0,80,L,10491713,10491945,234,454.5,861.0,4389,NA
50,2,continuous,30,8,trial,10489606.0,10492039.0,2433.0,80,L,10491987,10492223,238,425.0,488.4,4357,left
50,2,continuous,31,24,fixationCross,10493156.0,10495990.0,2834.0,81,L,10492479,10492829,352,1255.8,576.3,4460,right
50,2,continuous,31,24,trial,10493156.0,10495990.0,2834.0,81,L,10492871,10493295,426,953.9,521.1,4661,NA
50,2,continuous,31,24,trial,10493156.0,10495990.0,2834.0,81,L,10493341,10493477,138,485.8,481.5,4703,left
50,2,continuous,31,24,trial,10493156.0,10495990.0,2834.0,81,L,10493491,10493753,264,429.2,492.3,4486,left
50,2,continuous,31,24,trial,10493156.0,10495990.0,2834.0,81,L,10493827,10494329,504,1513.6,546.9,4169,right
50,2,continuous,31,24,trial,10493156.0,10495990.0,2834.0,81,L,10494349,10494525,178,1586.0,621.9,4150,right
50,2,continuous,31,24,trial,10493156.0,10495990.0,2834.0,81,L,10494535,10494729,196,1612.2,635.9,4144,right
50,2,continuous,31,24,trial,10493156.0,10495990.0,2834.0,81,L,10494809,10494919,112,559.8,623.1,4256,left
50,2,continuous,31,24,trial,10493156.0,10495990.0,2834.0,81,L,10494945,10495213,270,450.3,504.7,4166,left
50,2,continuous,31,24,trial,10493156.0,10495990.0,2834.0,81,L,10495223,10495403,182,431.3,487.9,4143,left
50,2,continuous,31,24,trial,10493156.0,10495990.0,2834.0,81,L,10495457,10495697,242,648.4,972.1,4233,NA
50,2,continuous,31,24,trial,10493156.0,10495990.0,2834.0,81,L,10495883,10495999,118,693.8,891.2,4304,NA
50,2,continuous,31,24,trial,10493156.0,10495990.0,2834.0,81,L,10496059,10496199,142,536.7,510.3,4319,left
50,2,continuous,32,30,fixationCross,10498573.0,10500389.0,1816.0,82,L,10496439,10496601,164,918.9,566.6,4451,NA
50,2,continuous,32,30,fixationCross,10498573.0,10500389.0,1816.0,82,L,10496631,10497059,430,704.3,608.6,4526,left
50,2,continuous,32,30,fixationCross,10498573.0,10500389.0,1816.0,82,L,10497081,10497471,392,662.4,507.3,4378,left
50,2,continuous,32,30,fixationCross,10498573.0,10500389.0,1816.0,82,L,10497493,10498077,586,763.1,507.4,4322,NA
50,2,continuous,32,30,fixationCross,10498573.0,10500389.0,1816.0,82,L,10498101,10498241,142,900.6,505.2,4342,NA
50,2,continuous,32,30,trial,10498573.0,10500389.0,1816.0,82,L,10498455,10498735,282,931.3,521.4,4334,NA
50,2,continuous,32,30,trial,10498573.0,10500389.0,1816.0,82,L,10498781,10498893,114,504.9,469.0,4393,left
50,2,continuous,32,30,trial,10498573.0,10500389.0,1816.0,82,L,10498917,10499099,184,386.4,497.9,4259,left
50,2,continuous,32,30,trial,10498573.0,10500389.0,1816.0,82,L,10499175,10499325,152,1535.7,464.6,3976,right
50,2,continuous,32,30,trial,10498573.0,10500389.0,1816.0,82,L,10499335,10499575,242,1565.2,471.4,3838,right
50,2,continuous,32,30,trial,10498573.0,10500389.0,1816.0,82,L,10499757,10499785,30,729.9,678.6,4043,left
50,2,continuous,32,30,trial,10498573.0,10500389.0,1816.0,82,L,10499795,10499963,170,739.1,720.8,4002,NA
50,2,continuous,32,30,trial,10498573.0,10500389.0,1816.0,82,L,10500003,10500203,202,797.5,966.3,4148,likertHorizontal
50,2,continuous,32,30,trial,10498573.0,10500389.0,1816.0,82,L,10500261,10500397,138,470.7,522.9,4199,left
50,2,continuous,32,30,trial,10498573.0,10500389.0,1816.0,82,L,10500417,10500601,186,370.5,513.9,4175,left
50,2,continuous,33,1,fixationCross,10501506.0,10502923.0,1417.0,83,L,10500845,10501185,342,1377.1,546.2,4067,right
50,2,continuous,33,1,trial,10501506.0,10502923.0,1417.0,83,L,10501231,10501635,406,952.1,527.8,4375,NA
50,2,continuous,33,1,trial,10501506.0,10502923.0,1417.0,83,L,10501683,10501819,138,472.5,456.8,4336,left
50,2,continuous,33,1,trial,10501506.0,10502923.0,1417.0,83,L,10501837,10502445,610,388.6,446.2,3994,left
50,2,continuous,33,1,trial,10501506.0,10502923.0,1417.0,83,L,10502513,10502719,208,1319.8,526.9,3913,right
50,2,continuous,33,1,trial,10501506.0,10502923.0,1417.0,83,L,10502789,10502907,120,424.3,432.6,4053,left
50,2,continuous,33,1,trial,10501506.0,10502923.0,1417.0,83,L,10502919,10503127,210,391.9,458.5,4192,left
50,2,continuous,34,39,fixationCross,10503990.0,10505890.0,1900.0,84,L,10503341,10503663,324,1322.8,482.4,4436,right
50,2,continuous,34,39,trial,10503990.0,10505890.0,1900.0,84,L,10503703,10504127,426,936.4,535.8,4716,NA
50,2,continuous,34,39,trial,10503990.0,10505890.0,1900.0,84,L,10504171,10504477,308,513.8,461.1,4404,left
50,2,continuous,34,39,trial,10503990.0,10505890.0,1900.0,84,L,10504543,10504755,214,1409.2,520.5,4130,right
50,2,continuous,34,39,trial,10503990.0,10505890.0,1900.0,84,L,10504787,10504951,166,1621.4,489.9,4022,right
50,2,continuous,34,39,trial,10503990.0,10505890.0,1900.0,84,L,10504963,10505039,78,1617.7,460.3,4019,right
50,2,continuous,34,39,trial,10503990.0,10505890.0,1900.0,84,L,10505117,10505351,236,542.4,465.3,4073,left
50,2,continuous,34,39,trial,10503990.0,10505890.0,1900.0,84,L,10505371,10505647,278,446.9,481.0,4084,left
50,2,continuous,34,39,trial,10503990.0,10505890.0,1900.0,84,L,10505749,10505897,150,860.2,985.4,4192,likertHorizontal
50,2,continuous,34,39,trial,10503990.0,10505890.0,1900.0,84,L,10506129,10506205,78,1015.2,755.9,4274,likertHorizontal
50,2,continuous,34,39,postResponse,10503990.0,10505890.0,1900.0,84,L,10506225,10506257,34,1093.3,672.1,4236,NA
50,2,continuous,35,67,fixationCross,10508506.0,10510273.0,1767.0,85,L,10506357,10506393,38,1098.3,664.3,4289,NA
50,2,continuous,35,67,fixationCross,10508506.0,10510273.0,1767.0,85,L,10506449,10507513,1066,753.1,533.7,4525,NA
50,2,continuous,35,67,fixationCross,10508506.0,10510273.0,1767.0,85,L,10507533,10508001,470,710.7,513.7,4508,left
50,2,continuous,35,67,fixationCross,10508506.0,10510273.0,1767.0,85,L,10508223,10508327,106,883.5,524.3,4708,NA
50,2,continuous,35,67,trial,10508506.0,10510273.0,1767.0,85,L,10508339,10508659,322,928.2,526.9,4807,NA
50,2,continuous,35,67,trial,10508506.0,10510273.0,1767.0,85,L,10508705,10508923,220,491.7,488.2,4892,left
50,2,continuous,35,67,trial,10508506.0,10510273.0,1767.0,85,L,10508945,10509163,220,446.2,456.4,4477,left
50,2,continuous,35,67,trial,10508506.0,10510273.0,1767.0,85,L,10509235,10509517,284,1421.9,534.9,4107,right
50,2,continuous,35,67,trial,10508506.0,10510273.0,1767.0,85,L,10509595,10509859,266,457.9,458.3,4307,left
50,2,continuous,35,67,trial,10508506.0,10510273.0,1767.0,85,L,10509879,10510187,310,452.4,417.9,4311,left
50,2,continuous,35,67,trial,10508506.0,10510273.0,1767.0,85,L,10510255,10510481,228,1397.6,541.8,4225,right
50,2,continuous,36,74,fixationCross,10511323.0,10513507.0,2184.0,86,L,10510709,10511021,314,1222.0,589.4,4329,right
50,2,continuous,36,74,trial,10511323.0,10513507.0,2184.0,86,L,10511057,10511461,406,916.8,540.0,4618,NA
50,2,continuous,36,74,trial,10511323.0,10513507.0,2184.0,86,L,10511511,10511645,136,449.8,454.0,4499,left
50,2,continuous,36,74,trial,10511323.0,10513507.0,2184.0,86,L,10511661,10512131,472,441.6,417.9,4226,left
50,2,continuous,36,74,trial,10511323.0,10513507.0,2184.0,86,L,10512197,10512541,346,1348.6,434.1,4054,right
50,2,continuous,36,74,trial,10511323.0,10513507.0,2184.0,86,L,10512559,10512803,246,1429.8,433.7,3995,right
50,2,continuous,36,74,trial,10511323.0,10513507.0,2184.0,86,L,10512947,10513147,202,1553.2,593.1,3951,right
50,2,continuous,36,74,trial,10511323.0,10513507.0,2184.0,86,L,10513187,10513367,182,1315.3,776.7,4001,NA
50,2,continuous,36,74,trial,10511323.0,10513507.0,2184.0,86,L,10513437,10513737,302,448.4,421.4,4028,left
50,2,continuous,37,1,fixationCross,10514673.0,10516706.0,2033.0,87,L,10513959,10514337,380,571.7,478.2,4173,left
50,2,continuous,37,1,fixationCross,10514673.0,10516706.0,2033.0,87,L,10514373,10514485,114,880.2,503.5,4332,NA
50,2,continuous,37,1,trial,10514673.0,10516706.0,2033.0,87,L,10514505,10514819,316,963.4,515.7,4273,NA
50,2,continuous,37,1,trial,10514673.0,10516706.0,2033.0,87,L,10514865,10515017,154,550.1,491.2,4322,left
50,2,continuous,37,1,trial,10514673.0,10516706.0,2033.0,87,L,10515035,10515363,330,490.6,517.1,4163,left
50,2,continuous,37,1,trial,10514673.0,10516706.0,2033.0,87,L,10515433,10515839,408,1468.9,491.4,4070,right
50,2,continuous,37,1,trial,10514673.0,10516706.0,2033.0,87,L,10515915,10516207,294,560.8,576.3,4211,left
50,2,continuous,37,1,trial,10514673.0,10516706.0,2033.0,87,L,10516233,10516553,322,406.4,522.2,4432,left
50,2,continuous,37,1,trial,10514673.0,10516706.0,2033.0,87,L,10516759,10516919,162,530.1,434.4,4480,left
50,2,continuous,37,1,postResponse,10514673.0,10516706.0,2033.0,87,L,10517013,10517055,44,1502.4,456.4,4482,right
50,2,continuous,38,35,fixationCross,10517656.0,10520089.0,2433.0,88,L,10517375,10517555,182,1010.2,499.9,4575,NA
50,2,continuous,38,35,trial,10517656.0,10520089.0,2433.0,88,L,10517573,10517795,224,944.1,498.1,4694,NA
50,2,continuous,38,35,trial,10517656.0,10520089.0,2433.0,88,L,10517839,10518037,200,520.6,484.2,4651,left
50,2,continuous,38,35,trial,10517656.0,10520089.0,2433.0,88,L,10518057,10518445,390,456.0,532.8,4368,left
50,2,continuous,38,35,trial,10517656.0,10520089.0,2433.0,88,L,10518517,10518791,276,1379.7,565.3,4147,right
50,2,continuous,38,35,trial,10517656.0,10520089.0,2433.0,88,L,10518815,10519255,442,1530.6,604.0,4036,right
50,2,continuous,38,35,trial,10517656.0,10520089.0,2433.0,88,L,10519263,10519515,254,1547.2,580.0,3875,right
50,2,continuous,38,35,trial,10517656.0,10520089.0,2433.0,88,L,10519575,10519653,80,919.1,563.2,3901,NA
50,2,continuous,38,35,trial,10517656.0,10520089.0,2433.0,88,L,10519701,10519935,236,526.7,548.8,3925,left
50,2,continuous,38,35,trial,10517656.0,10520089.0,2433.0,88,L,10520095,10520119,26,516.3,423.0,4166,left
50,2,continuous,38,35,postResponse,10517656.0,10520089.0,2433.0,88,L,10520131,10520437,308,514.2,483.3,4121,left
50,2,continuous,39,25,fixationCross,10521206.0,10523457.0,2251.0,89,L,10520539,10520879,342,514.5,486.7,4238,left
50,2,continuous,39,25,trial,10521206.0,10523457.0,2251.0,89,L,10520925,10521347,424,940.4,522.0,4252,NA
50,2,continuous,39,25,trial,10521206.0,10523457.0,2251.0,89,L,10521393,10521557,166,581.0,505.3,4299,left
50,2,continuous,39,25,trial,10521206.0,10523457.0,2251.0,89,L,10521575,10521833,260,490.0,505.2,4177,left
50,2,continuous,39,25,trial,10521206.0,10523457.0,2251.0,89,L,10521853,10522057,206,449.4,560.0,4064,left
50,2,continuous,39,25,trial,10521206.0,10523457.0,2251.0,89,L,10522223,10522353,132,1346.6,407.0,3923,right
50,2,continuous,39,25,trial,10521206.0,10523457.0,2251.0,89,L,10522367,10522559,194,1337.4,383.4,3921,right
50,2,continuous,39,25,trial,10521206.0,10523457.0,2251.0,89,L,10522585,10522819,236,1472.9,494.9,3992,right
50,2,continuous,39,25,trial,10521206.0,10523457.0,2251.0,89,L,10522891,10523119,230,587.2,517.0,4116,left
50,2,continuous,39,25,trial,10521206.0,10523457.0,2251.0,89,L,10523143,10523409,268,470.9,573.3,4133,left
50,2,continuous,39,25,trial,10521206.0,10523457.0,2251.0,89,L,10523437,10523667,232,482.5,415.5,4104,left
50,2,continuous,40,26,fixationCross,10524673.0,10527107.0,2434.0,90,L,10523897,10523929,34,610.0,478.2,4326,left
50,2,continuous,40,26,fixationCross,10524673.0,10527107.0,2434.0,90,L,10523941,10524335,396,623.3,540.0,4396,left
50,2,continuous,40,26,trial,10524673.0,10527107.0,2434.0,90,L,10524369,10524811,444,876.8,516.3,4547,NA
50,2,continuous,40,26,trial,10524673.0,10527107.0,2434.0,90,L,10524855,10525103,250,474.2,502.4,4470,left
50,2,continuous,40,26,trial,10524673.0,10527107.0,2434.0,90,L,10525123,10525419,298,455.0,561.0,4192,left
50,2,continuous,40,26,trial,10524673.0,10527107.0,2434.0,90,L,10525491,10525715,226,1385.7,530.7,3894,right
50,2,continuous,40,26,trial,10524673.0,10527107.0,2434.0,90,L,10525737,10525871,136,1529.5,516.4,3812,right
50,2,continuous,40,26,trial,10524673.0,10527107.0,2434.0,90,L,10525889,10526025,138,1582.9,495.6,3813,right
50,2,continuous,40,26,trial,10524673.0,10527107.0,2434.0,90,L,10526041,10526323,284,1638.3,451.3,3788,right
50,2,continuous,40,26,trial,10524673.0,10527107.0,2434.0,90,L,10526405,10526725,322,491.9,491.1,3948,left
50,2,continuous,40,26,trial,10524673.0,10527107.0,2434.0,90,L,10526749,10526919,172,449.5,410.7,3909,left
50,2,continuous,40,26,trial,10524673.0,10527107.0,2434.0,90,L,10527111,10527139,30,548.3,391.1,4052,left
50,2,continuous,40,26,trial,10524673.0,10527107.0,2434.0,90,L,10527151,10527411,262,556.0,457.1,4000,left
50,2,continuous,41,67,fixationCross,10528273.0,10530657.0,2384.0,91,L,10527527,10527949,424,821.5,492.8,4272,NA
50,2,continuous,41,67,trial,10528273.0,10530657.0,2384.0,91,L,10527965,10528403,440,900.2,502.4,4363,NA
50,2,continuous,41,67,trial,10528273.0,10530657.0,2384.0,91,L,10528447,10528573,128,496.4,493.6,4375,left
50,2,continuous,41,67,trial,10528273.0,10530657.0,2384.0,91,L,10528593,10528735,144,403.2,464.7,4232,left
50,2,continuous,41,67,trial,10528273.0,10530657.0,2384.0,91,L,10528807,10529015,210,1459.4,587.2,3970,right
50,2,continuous,41,67,trial,10528273.0,10530657.0,2384.0,91,L,10529031,10529421,392,1445.2,630.7,3921,right
50,2,continuous,41,67,trial,10528273.0,10530657.0,2384.0,91,L,10529451,10529601,152,1216.4,649.8,3988,right
50,2,continuous,41,67,trial,10528273.0,10530657.0,2384.0,91,L,10529775,10529865,92,1161.9,802.3,4113,likertHorizontal
50,2,continuous,41,67,trial,10528273.0,10530657.0,2384.0,91,L,10529931,10530077,148,411.1,450.7,4177,left
50,2,continuous,41,67,trial,10528273.0,10530657.0,2384.0,91,L,10530091,10530439,350,372.4,458.9,4261,left
50,2,continuous,41,67,trial,10528273.0,10530657.0,2384.0,91,L,10530515,10530673,160,1450.7,580.8,3953,right
50,2,continuous,41,67,trial,10528273.0,10530657.0,2384.0,91,L,10530689,10530855,168,1454.9,635.0,3872,right
50,2,continuous,42,26,fixationCross,10531757.0,10534324.0,2567.0,92,L,10531103,10531459,358,1119.3,617.9,4189,NA
50,2,continuous,42,26,trial,10531757.0,10534324.0,2567.0,92,L,10531485,10531759,276,967.3,537.5,4458,NA
50,2,continuous,42,26,trial,10531757.0,10534324.0,2567.0,92,L,10531779,10531901,124,887.8,513.4,4394,NA
50,2,continuous,42,26,trial,10531757.0,10534324.0,2567.0,92,L,10531945,10532407,464,524.7,471.9,4183,left
50,2,continuous,42,26,trial,10531757.0,10534324.0,2567.0,92,L,10532471,10532685,216,1347.4,526.9,3820,right
50,2,continuous,42,26,trial,10531757.0,10534324.0,2567.0,92,L,10532701,10532833,134,1413.8,541.8,3741,right
50,2,continuous,42,26,trial,10531757.0,10534324.0,2567.0,92,L,10532897,10533069,174,656.8,593.7,3917,left
50,2,continuous,42,26,trial,10531757.0,10534324.0,2567.0,92,L,10533085,10533315,232,667.7,647.4,3933,left
50,2,continuous,42,26,trial,10531757.0,10534324.0,2567.0,92,L,10533349,10533627,280,516.0,780.9,3944,NA
50,2,continuous,42,26,trial,10531757.0,10534324.0,2567.0,92,L,10533665,10533781,118,540.5,556.3,4002,left
50,2,continuous,42,26,trial,10531757.0,10534324.0,2567.0,92,L,10533949,10534221,274,646.8,618.9,4113,left
50,2,continuous,42,26,trial,10531757.0,10534324.0,2567.0,92,L,10534235,10534555,322,674.5,647.5,4192,left
50,2,continuous,43,62,fixationCross,10535473.0,10537023.0,1550.0,93,L,10534851,10534903,54,671.2,633.1,4291,left
50,2,continuous,43,62,fixationCross,10535473.0,10537023.0,1550.0,93,L,10534913,10535151,240,681.6,678.9,4215,left
50,2,continuous,43,62,trial,10535473.0,10537023.0,1550.0,93,L,10535193,10535617,426,940.1,526.2,4347,NA
50,2,continuous,43,62,trial,10535473.0,10537023.0,1550.0,93,L,10535661,10535925,266,522.4,515.0,4312,left
50,2,continuous,43,62,trial,10535473.0,10537023.0,1550.0,93,L,10535995,10536397,404,1441.8,522.1,3956,right
50,2,continuous,43,62,trial,10535473.0,10537023.0,1550.0,93,L,10536439,10536579,142,1204.1,672.1,3968,right
50,2,continuous,43,62,trial,10535473.0,10537023.0,1550.0,93,L,10536611,10536731,122,1068.5,825.0,4049,likertHorizontal
50,2,continuous,43,62,trial,10535473.0,10537023.0,1550.0,93,L,10536753,10536881,130,1094.1,932.5,4125,likertHorizontal
50,2,continuous,43,62,trial,10535473.0,10537023.0,1550.0,93,L,10536893,10537065,174,1100.6,967.6,4303,likertHorizontal
50,2,continuous,43,62,trial,10535473.0,10537023.0,1550.0,93,L,10537131,10537231,102,471.1,486.3,4514,left
50,2,continuous,44,15,fixationCross,10538140.0,10539973.0,1833.0,94,L,10537465,10537481,18,503.2,470.9,4570,left
50,2,continuous,44,15,fixationCross,10538140.0,10539973.0,1833.0,94,L,10537499,10537793,296,516.2,527.8,4502,left
50,2,continuous,44,15,fixationCross,10538140.0,10539973.0,1833.0,94,L,10537841,10537955,116,905.6,538.8,4517,NA
50,2,continuous,44,15,trial,10538140.0,10539973.0,1833.0,94,L,10537965,10538277,314,941.3,530.3,4333,NA
50,2,continuous,44,15,trial,10538140.0,10539973.0,1833.0,94,L,10538323,10538633,312,538.2,500.0,4247,left
50,2,continuous,44,15,trial,10538140.0,10539973.0,1833.0,94,L,10538651,10538833,184,472.3,473.9,4083,left
50,2,continuous,44,15,trial,10538140.0,10539973.0,1833.0,94,L,10538903,10539257,356,1437.9,479.6,3923,right
50,2,continuous,44,15,trial,10538140.0,10539973.0,1833.0,94,L,10539267,10539375,110,1410.3,466.6,3916,right
50,2,continuous,44,15,trial,10538140.0,10539973.0,1833.0,94,L,10539445,10539791,348,599.2,584.9,4003,left
50,2,continuous,44,15,trial,10538140.0,10539973.0,1833.0,94,L,10539817,10539963,148,535.6,484.7,4126,left
50,2,continuous,44,15,trial,10538140.0,10539973.0,1833.0,94,L,10539983,10540113,132,442.6,490.3,4186,left
50,2,continuous,45,15,fixationCross,10541023.0,10543574.0,2551.0,95,L,10540405,10540697,294,1358.6,556.2,4177,right
50,2,continuous,45,15,trial,10541023.0,10543574.0,2551.0,95,L,10540747,10541391,646,931.8,523.1,4413,NA
50,2,continuous,45,15,trial,10541023.0,10543574.0,2551.0,95,L,10541437,10541867,432,506.8,445.7,4291,left
50,2,continuous,45,15,trial,10541023.0,10543574.0,2551.0,95,L,10541883,10542001,120,437.4,447.4,4169,left
50,2,continuous,45,15,trial,10541023.0,10543574.0,2551.0,95,L,10542017,10542179,164,405.7,475.2,4115,left
50,2,continuous,45,15,trial,10541023.0,10543574.0,2551.0,95,L,10542333,10542455,124,1564.2,453.6,4036,right
50,2,continuous,45,15,trial,10541023.0,10543574.0,2551.0,95,L,10542467,10542773,308,1515.8,453.5,3993,right
50,2,continuous,45,15,trial,10541023.0,10543574.0,2551.0,95,L,10542785,10542891,108,1529.5,420.2,3997,right
50,2,continuous,45,15,trial,10541023.0,10543574.0,2551.0,95,L,10542965,10543479,516,553.3,465.7,4127,left
50,2,continuous,45,15,trial,10541023.0,10543574.0,2551.0,95,L,10543503,10543831,330,540.1,564.4,4155,left
50,2,continuous,46,22,fixationCross,10544640.0,10546674.0,2034.0,96,L,10544077,10544319,244,1274.7,535.7,4293,right
50,2,continuous,46,22,trial,10544640.0,10546674.0,2034.0,96,L,10544359,10544779,422,951.8,513.0,4500,NA
50,2,continuous,46,22,trial,10544640.0,10546674.0,2034.0,96,L,10544823,10545397,576,524.0,479.7,4330,left
50,2,continuous,46,22,trial,10544640.0,10546674.0,2034.0,96,L,10545415,10545565,152,468.9,472.5,4186,left
50,2,continuous,46,22,trial,10544640.0,10546674.0,2034.0,96,L,10545631,10545843,214,1306.4,459.9,4189,right
50,2,continuous,46,22,trial,10544640.0,10546674.0,2034.0,96,L,10545869,10546135,268,1469.1,535.1,4157,right
50,2,continuous,46,22,trial,10544640.0,10546674.0,2034.0,96,L,10546451,10546899,450,581.2,622.9,4252,left
50,2,continuous,47,78,fixationCross,10547806.0,10549773.0,1967.0,97,L,10547153,10547197,46,629.8,543.9,4375,left
50,2,continuous,47,78,fixationCross,10547806.0,10549773.0,1967.0,97,L,10547207,10547489,284,644.0,589.6,4312,left
