participantNo,block,task,blockTrial,response,trialStage,trialStartTime,trialFinishTime,rt,trial,eye,fixStart,fixEnd,fixLength,fixPosX,fixPosY,dilation,aoi
41,1,continuous,1,27,fixationCross,3777934.0,3783751.0,5817.0,1,R,3777140,3777252,114,982.2,672.8,6298,NA
41,1,continuous,1,27,fixationCross,3777934.0,3783751.0,5817.0,1,R,3777276,3777572,298,1135.2,562.5,6280,NA
41,1,continuous,1,27,trial,3777934.0,3783751.0,5817.0,1,R,3777602,3778122,522,972.1,559.6,6257,NA
41,1,continuous,1,27,trial,3777934.0,3783751.0,5817.0,1,R,3778178,3778422,246,572.9,646.7,6356,left
41,1,continuous,1,27,trial,3777934.0,3783751.0,5817.0,1,R,3778470,3778602,134,944.5,996.3,5816,likertHorizontal
41,1,continuous,1,27,trial,3777934.0,3783751.0,5817.0,1,R,3778612,3778738,128,974.0,999.6,5529,likertHorizontal
41,1,continuous,1,27,trial,3777934.0,3783751.0,5817.0,1,R,3778792,3779070,280,1384.6,677.0,5220,right
41,1,continuous,1,27,trial,3777934.0,3783751.0,5817.0,1,R,3779090,3779252,164,1462.0,653.2,5318,right
41,1,continuous,1,27,trial,3777934.0,3783751.0,5817.0,1,R,3779322,3779912,592,530.0,650.6,5744,left
41,1,continuous,1,27,trial,3777934.0,3783751.0,5817.0,1,R,3779930,3780376,448,442.6,650.6,5172,left
41,1,continuous,1,27,trial,3777934.0,3783751.0,5817.0,1,R,3780428,3780534,108,830.2,1016.2,5126,likertHorizontal
41,1,continuous,1,27,trial,3777934.0,3783751.0,5817.0,1,R,3780572,3780724,154,517.4,1024.7,5313,NA
41,1,continuous,1,27,trial,3777934.0,3783751.0,5817.0,1,R,3780738,3780980,244,470.0,1017.8,5594,NA
41,1,continuous,1,27,trial,3777934.0,3783751.0,5817.0,1,R,3780992,3781212,222,511.3,1014.7,5727,NA
41,1,continuous,1,27,trial,3777934.0,3783751.0,5817.0,1,R,3781288,3781388,102,1107.8,616.4,5467,NA
41,1,continuous,1,27,trial,3777934.0,3783751.0,5817.0,1,R,3781434,3781728,296,1451.8,591.2,5321,right
41,1,continuous,1,27,trial,3777934.0,3783751.0,5817.0,1,R,3781752,3782014,264,1323.4,551.7,5434,right
41,1,continuous,1,27,trial,3777934.0,3783751.0,5817.0,1,R,3782086,3782436,352,404.7,633.7,5578,left
41,1,continuous,1,27,trial,3777934.0,3783751.0,5817.0,1,R,3782462,3782992,532,546.9,649.5,5264,left
41,1,continuous,1,27,trial,3777934.0,3783751.0,5817.0,1,R,3783038,3783504,468,629.1,1004.7,5380,NA
41,1,continuous,1,27,trial,3777934.0,3783751.0,5817.0,1,R,3783526,3783954,430,750.6,981.5,5486,likertHorizontal
41,1,continuous,1,27,postResponse,3777934.0,3783751.0,5817.0,1,R,3784014,3784120,108,1006.7,594.0,5403,NA
41,1,continuous,2,100,fixationCross,3784851.0,3796934.0,12083.0,2,R,3784196,3784428,234,1002.5,599.5,5704,NA
41,1,continuous,2,100,fixationCross,3784851.0,3796934.0,12083.0,2,R,3784456,3784586,132,1179.6,533.3,5893,NA
41,1,continuous,2,100,trial,3784851.0,3796934.0,12083.0,2,R,3784620,3784854,236,960.7,531.6,6055,NA
41,1,continuous,2,100,trial,3784851.0,3796934.0,12083.0,2,R,3785010,3785108,100,1003.7,606.3,6109,NA
41,1,continuous,2,100,trial,3784851.0,3796934.0,12083.0,2,R,3785162,3785382,222,602.5,593.0,6209,left
41,1,continuous,2,100,trial,3784851.0,3796934.0,12083.0,2,R,3785408,3785538,132,445.9,615.5,5722,left
41,1,continuous,2,100,trial,3784851.0,3796934.0,12083.0,2,R,3785612,3785778,168,1446.3,563.0,4899,right
41,1,continuous,2,100,trial,3784851.0,3796934.0,12083.0,2,R,3785794,3786338,546,1369.6,573.9,4659,right
41,1,continuous,2,100,trial,3784851.0,3796934.0,12083.0,2,R,3786418,3786626,210,437.9,552.7,4979,left
41,1,continuous,2,100,trial,3784851.0,3796934.0,12083.0,2,R,3786650,3786822,174,294.3,514.2,5172,left
41,1,continuous,2,100,trial,3784851.0,3796934.0,12083.0,2,R,3786836,3787114,280,310.2,480.8,5047,left
41,1,continuous,2,100,trial,3784851.0,3796934.0,12083.0,2,R,3787188,3787398,212,1365.4,528.8,4762,right
41,1,continuous,2,100,trial,3784851.0,3796934.0,12083.0,2,R,3787412,3787740,330,1362.7,575.0,4827,right
41,1,continuous,2,100,trial,3784851.0,3796934.0,12083.0,2,R,3787766,3788180,416,1541.9,587.0,4786,right
41,1,continuous,2,100,trial,3784851.0,3796934.0,12083.0,2,R,3788206,3788360,156,1394.0,512.0,4866,right
41,1,continuous,2,100,trial,3784851.0,3796934.0,12083.0,2,R,3788436,3788736,302,440.7,606.2,5092,left
41,1,continuous,2,100,trial,3784851.0,3796934.0,12083.0,2,R,3788764,3788926,164,279.0,555.3,5057,left
41,1,continuous,2,100,trial,3784851.0,3796934.0,12083.0,2,R,3788946,3789186,242,309.0,478.2,4942,left
41,1,continuous,2,100,trial,3784851.0,3796934.0,12083.0,2,R,3789206,3789434,230,317.3,403.4,4928,left
41,1,continuous,2,100,trial,3784851.0,3796934.0,12083.0,2,R,3789444,3790014,572,305.7,383.3,4779,left
41,1,continuous,2,100,trial,3784851.0,3796934.0,12083.0,2,R,3790024,3790582,560,304.6,402.8,4900,left
41,1,continuous,2,100,trial,3784851.0,3796934.0,12083.0,2,R,3790666,3790860,196,1417.6,485.2,4767,right
41,1,continuous,2,100,trial,3784851.0,3796934.0,12083.0,2,R,3790884,3791200,318,1358.6,577.5,4810,right
41,1,continuous,2,100,trial,3784851.0,3796934.0,12083.0,2,R,3791264,3791374,112,730.0,959.5,4860,NA
41,1,continuous,2,100,trial,3784851.0,3796934.0,12083.0,2,R,3791416,3791560,146,424.8,721.0,4783,left
41,1,continuous,2,100,trial,3784851.0,3796934.0,12083.0,2,R,3791596,3791746,152,427.6,985.2,4880,NA
41,1,continuous,2,100,trial,3784851.0,3796934.0,12083.0,2,R,3791758,3791930,174,441.2,1016.4,5052,NA
41,1,continuous,2,100,trial,3784851.0,3796934.0,12083.0,2,R,3791978,3792230,254,463.5,667.4,5173,left
41,1,continuous,2,100,trial,3784851.0,3796934.0,12083.0,2,R,3792248,3792506,260,387.5,673.6,5168,left
41,1,continuous,2,100,trial,3784851.0,3796934.0,12083.0,2,R,3792532,3792656,126,432.9,562.5,5137,left
41,1,continuous,2,100,trial,3784851.0,3796934.0,12083.0,2,R,3792684,3792934,252,283.7,472.7,5136,left
41,1,continuous,2,100,trial,3784851.0,3796934.0,12083.0,2,R,3792996,3793110,116,554.2,1029.0,5106,NA
41,1,continuous,2,100,trial,3784851.0,3796934.0,12083.0,2,R,3793128,3793356,230,467.4,1032.2,5136,NA
41,1,continuous,2,100,trial,3784851.0,3796934.0,12083.0,2,R,3793408,3793610,204,415.7,602.8,5105,left
41,1,continuous,2,100,trial,3784851.0,3796934.0,12083.0,2,R,3793636,3793802,168,302.2,452.6,5026,left
41,1,continuous,2,100,trial,3784851.0,3796934.0,12083.0,2,R,3793820,3794226,408,312.4,392.5,4837,left
41,1,continuous,2,100,trial,3784851.0,3796934.0,12083.0,2,R,3794266,3794488,224,517.1,595.2,4764,left
41,1,continuous,2,100,trial,3784851.0,3796934.0,12083.0,2,R,3794558,3794758,202,1390.6,503.0,4744,right
41,1,continuous,2,100,trial,3784851.0,3796934.0,12083.0,2,R,3794774,3795072,300,1372.7,567.8,4676,right
41,1,continuous,2,100,trial,3784851.0,3796934.0,12083.0,2,R,3795124,3795508,386,1192.9,965.3,4867,NA
41,1,continuous,2,100,trial,3784851.0,3796934.0,12083.0,2,R,3795546,3795698,154,1467.5,1003.8,5123,NA
41,1,continuous,2,100,trial,3784851.0,3796934.0,12083.0,2,R,3795740,3795880,142,1439.8,619.9,5209,right
41,1,continuous,2,100,trial,3784851.0,3796934.0,12083.0,2,R,3795898,3796070,174,1357.7,584.3,5315,right
41,1,continuous,2,100,trial,3784851.0,3796934.0,12083.0,2,R,3796080,3796314,236,1361.2,572.6,4949,right
41,1,continuous,2,100,trial,3784851.0,3796934.0,12083.0,2,R,3796340,3796490,152,1405.1,459.4,4539,right
41,1,continuous,2,100,trial,3784851.0,3796934.0,12083.0,2,R,3796554,3796740,188,1408.7,938.1,4514,NA
41,1,continuous,2,100,trial,3784851.0,3796934.0,12083.0,2,R,3796756,3796954,200,1467.5,968.4,4716,NA
41,1,continuous,2,100,trial,3784851.0,3796934.0,12083.0,2,R,3797030,3797246,218,514.2,602.2,5436,left
41,1,continuous,3,1,fixationCross,3798151.0,3802935.0,4784.0,3,R,3797358,3797506,150,985.3,541.6,5525,NA
41,1,continuous,3,1,fixationCross,3798151.0,3802935.0,4784.0,3,R,3797664,3797838,176,1075.1,500.1,5763,NA
41,1,continuous,3,1,trial,3798151.0,3802935.0,4784.0,3,R,3797862,3798346,486,952.3,531.9,5913,NA
41,1,continuous,3,1,trial,3798151.0,3802935.0,4784.0,3,R,3798398,3798556,160,452.8,516.7,5727,left
41,1,continuous,3,1,trial,3798151.0,3802935.0,4784.0,3,R,3798574,3798796,224,487.8,461.3,5370,left
41,1,continuous,3,1,trial,3798151.0,3802935.0,4784.0,3,R,3798810,3799440,632,509.1,452.8,4930,left
41,1,continuous,3,1,trial,3798151.0,3802935.0,4784.0,3,R,3799512,3799736,226,1403.3,517.8,5031,right
41,1,continuous,3,1,trial,3798151.0,3802935.0,4784.0,3,R,3799748,3800050,304,1421.8,552.0,5265,right
41,1,continuous,3,1,trial,3798151.0,3802935.0,4784.0,3,R,3800064,3800300,238,1372.3,560.8,5338,right
41,1,continuous,3,1,trial,3798151.0,3802935.0,4784.0,3,R,3800372,3800546,176,460.5,505.3,5324,left
41,1,continuous,3,1,trial,3798151.0,3802935.0,4784.0,3,R,3800564,3800982,420,495.8,459.2,5244,left
41,1,continuous,3,1,trial,3798151.0,3802935.0,4784.0,3,R,3801052,3801276,226,1401.4,519.5,5090,right
41,1,continuous,3,1,trial,3798151.0,3802935.0,4784.0,3,R,3801290,3801662,374,1424.4,563.5,5265,right
41,1,continuous,3,1,trial,3798151.0,3802935.0,4784.0,3,R,3801676,3801878,204,1360.1,574.4,5270,right
41,1,continuous,3,1,trial,3798151.0,3802935.0,4784.0,3,R,3801948,3802186,240,473.5,938.4,5502,NA
41,1,continuous,3,1,trial,3798151.0,3802935.0,4784.0,3,R,3802236,3802482,248,417.3,597.7,5402,left
41,1,continuous,3,1,trial,3798151.0,3802935.0,4784.0,3,R,3802508,3802644,138,490.4,496.5,5276,left
41,1,continuous,3,1,trial,3798151.0,3802935.0,4784.0,3,R,3802662,3802848,188,509.7,429.6,5148,left
41,1,continuous,3,1,postResponse,3798151.0,3802935.0,4784.0,3,R,3802920,3803270,352,1428.8,530.7,4864,right
41,1,continuous,4,100,fixationCross,3803818.0,3808417.0,4599.0,4,R,3803346,3803388,44,1420.8,532.4,5010,right
41,1,continuous,4,100,trial,3803818.0,3808417.0,4599.0,4,R,3803524,3803838,316,965.9,555.6,5482,NA
41,1,continuous,4,100,trial,3803818.0,3808417.0,4599.0,4,R,3803848,3804014,168,957.7,543.0,5654,NA
41,1,continuous,4,100,trial,3803818.0,3808417.0,4599.0,4,R,3804066,3804232,168,444.0,460.6,5547,left
41,1,continuous,4,100,trial,3803818.0,3808417.0,4599.0,4,R,3804252,3804520,270,425.2,393.1,5047,left
41,1,continuous,4,100,trial,3803818.0,3808417.0,4599.0,4,R,3804544,3804758,216,367.5,493.2,4665,left
41,1,continuous,4,100,trial,3803818.0,3808417.0,4599.0,4,R,3804832,3805074,244,1443.0,551.5,4494,right
41,1,continuous,4,100,trial,3803818.0,3808417.0,4599.0,4,R,3805150,3805360,212,390.4,626.4,5064,left
41,1,continuous,4,100,trial,3803818.0,3808417.0,4599.0,4,R,3805378,3805820,444,343.7,647.7,5277,left
41,1,continuous,4,100,trial,3803818.0,3808417.0,4599.0,4,R,3805900,3806656,758,1439.9,574.6,4955,right
41,1,continuous,4,100,trial,3803818.0,3808417.0,4599.0,4,R,3806670,3807336,668,1493.1,567.7,4976,right
41,1,continuous,4,100,trial,3803818.0,3808417.0,4599.0,4,R,3807350,3807570,222,1434.0,570.6,4984,right
41,1,continuous,4,100,trial,3803818.0,3808417.0,4599.0,4,R,3807594,3807724,132,1314.3,538.7,5013,right
41,1,continuous,4,100,trial,3803818.0,3808417.0,4599.0,4,R,3807780,3807906,128,1303.0,923.5,5096,NA
41,1,continuous,4,100,trial,3803818.0,3808417.0,4599.0,4,R,3807930,3808256,328,1466.9,969.0,5234,NA
41,1,continuous,4,100,postResponse,3803818.0,3808417.0,4599.0,4,R,3808308,3808776,470,1415.2,551.3,5125,right
41,1,continuous,5,100,fixationCross,3809535.0,3822418.0,12883.0,5,R,3808852,3809214,364,1411.3,557.1,5253,right
41,1,continuous,5,100,trial,3809535.0,3822418.0,12883.0,5,R,3809262,3809674,414,961.7,531.5,5619,NA
41,1,continuous,5,100,trial,3809535.0,3822418.0,12883.0,5,R,3809736,3809906,172,473.9,512.4,5777,left
41,1,continuous,5,100,trial,3809535.0,3822418.0,12883.0,5,R,3809918,3810276,360,491.0,498.8,5083,left
41,1,continuous,5,100,trial,3809535.0,3822418.0,12883.0,5,R,3810348,3810672,326,1378.2,463.4,4410,right
41,1,continuous,5,100,trial,3809535.0,3822418.0,12883.0,5,R,3810684,3811278,596,1326.1,465.1,4577,right
41,1,continuous,5,100,trial,3809535.0,3822418.0,12883.0,5,R,3811346,3811574,230,473.6,518.5,5109,left
41,1,continuous,5,100,trial,3809535.0,3822418.0,12883.0,5,R,3811630,3811766,138,987.8,943.0,5538,likertHorizontal
41,1,continuous,5,100,trial,3809535.0,3822418.0,12883.0,5,R,3811820,3811918,100,1527.1,913.1,5511,NA
41,1,continuous,5,100,trial,3809535.0,3822418.0,12883.0,5,R,3812288,3812434,148,1290.9,542.0,5578,right
41,1,continuous,5,100,trial,3809535.0,3822418.0,12883.0,5,R,3812510,3812640,132,443.2,510.9,5540,left
41,1,continuous,5,100,trial,3809535.0,3822418.0,12883.0,5,R,3812662,3812826,166,498.2,498.7,5551,left
41,1,continuous,5,100,trial,3809535.0,3822418.0,12883.0,5,R,3812886,3813018,134,954.8,964.6,5659,likertHorizontal
41,1,continuous,5,100,trial,3809535.0,3822418.0,12883.0,5,R,3813068,3813610,544,1476.3,1005.2,5734,NA
41,1,continuous,5,100,trial,3809535.0,3822418.0,12883.0,5,R,3813662,3813874,214,1404.1,579.8,5742,right
41,1,continuous,5,100,trial,3809535.0,3822418.0,12883.0,5,R,3813898,3814048,152,1326.3,488.8,5664,right
41,1,continuous,5,100,trial,3809535.0,3822418.0,12883.0,5,R,3814114,3814350,238,517.1,504.4,5577,left
41,1,continuous,5,100,trial,3809535.0,3822418.0,12883.0,5,R,3814368,3814602,236,493.4,517.2,5423,left
41,1,continuous,5,100,trial,3809535.0,3822418.0,12883.0,5,R,3814674,3814896,224,1398.6,467.3,5048,right
41,1,continuous,5,100,trial,3809535.0,3822418.0,12883.0,5,R,3814912,3815108,198,1334.9,467.9,5176,right
41,1,continuous,5,100,trial,3809535.0,3822418.0,12883.0,5,R,3815184,3815326,144,481.8,527.9,5468,left
41,1,continuous,5,100,trial,3809535.0,3822418.0,12883.0,5,R,3815340,3815728,390,495.5,500.6,5348,left
41,1,continuous,5,100,trial,3809535.0,3822418.0,12883.0,5,R,3815740,3815996,258,461.3,523.6,5374,left
41,1,continuous,5,100,trial,3809535.0,3822418.0,12883.0,5,R,3816066,3816322,258,1326.6,486.7,5228,right
41,1,continuous,5,100,trial,3809535.0,3822418.0,12883.0,5,R,3816346,3816490,146,1476.5,480.0,5132,right
41,1,continuous,5,100,trial,3809535.0,3822418.0,12883.0,5,R,3816866,3817234,370,1686.4,590.6,5035,right
41,1,continuous,5,100,trial,3809535.0,3822418.0,12883.0,5,R,3817380,3817546,168,793.7,603.8,5653,NA
41,1,continuous,5,100,trial,3809535.0,3822418.0,12883.0,5,R,3817596,3817838,244,509.9,611.1,5907,left
41,1,continuous,5,100,trial,3809535.0,3822418.0,12883.0,5,R,3817858,3818088,232,534.2,559.9,5840,left
41,1,continuous,5,100,trial,3809535.0,3822418.0,12883.0,5,R,3818150,3818570,422,1338.9,511.0,5131,right
41,1,continuous,5,100,trial,3809535.0,3822418.0,12883.0,5,R,3818632,3818914,284,526.0,500.4,5432,left
41,1,continuous,5,100,trial,3809535.0,3822418.0,12883.0,5,R,3818928,3819540,614,480.0,516.9,5532,left
41,1,continuous,5,100,trial,3809535.0,3822418.0,12883.0,5,R,3819554,3820310,758,488.9,511.3,5477,left
41,1,continuous,5,100,trial,3809535.0,3822418.0,12883.0,5,R,3820320,3820934,616,466.9,522.4,5244,left
41,1,continuous,5,100,trial,3809535.0,3822418.0,12883.0,5,R,3820946,3821386,442,484.3,501.8,4992,left
41,1,continuous,5,100,trial,3809535.0,3822418.0,12883.0,5,R,3821458,3822138,682,1369.7,482.6,4903,right
41,1,continuous,5,100,trial,3809535.0,3822418.0,12883.0,5,R,3822166,3822228,64,1218.4,478.8,5075,right
41,1,continuous,5,100,trial,3809535.0,3822418.0,12883.0,5,R,3822288,3822466,180,522.7,508.5,5191,left
41,1,continuous,5,100,trial,3809535.0,3822418.0,12883.0,5,R,3822480,3822726,248,472.0,513.9,5147,left
41,1,continuous,6,100,fixationCross,3823501.0,3829568.0,6067.0,6,R,3822902,3823194,294,1193.3,603.4,5065,right
41,1,continuous,6,100,trial,3823501.0,3829568.0,6067.0,6,R,3823230,3823638,410,947.7,536.2,5544,NA
41,1,continuous,6,100,trial,3823501.0,3829568.0,6067.0,6,R,3823688,3823814,128,520.9,496.2,5594,left
41,1,continuous,6,100,trial,3823501.0,3829568.0,6067.0,6,R,3823836,3824076,242,421.1,465.0,5189,left
41,1,continuous,6,100,trial,3823501.0,3829568.0,6067.0,6,R,3824090,3824318,230,430.3,504.7,4733,left
41,1,continuous,6,100,trial,3823501.0,3829568.0,6067.0,6,R,3824336,3824790,456,422.1,451.3,4572,left
41,1,continuous,6,100,trial,3823501.0,3829568.0,6067.0,6,R,3824800,3825040,242,411.9,481.1,4601,left
41,1,continuous,6,100,trial,3823501.0,3829568.0,6067.0,6,R,3825054,3825338,286,432.8,531.1,4758,left
41,1,continuous,6,100,trial,3823501.0,3829568.0,6067.0,6,R,3825356,3825544,190,423.8,468.9,4784,left
41,1,continuous,6,100,trial,3823501.0,3829568.0,6067.0,6,R,3825620,3825840,222,1391.4,538.4,4644,right
41,1,continuous,6,100,trial,3823501.0,3829568.0,6067.0,6,R,3825860,3826374,516,1304.0,531.0,4870,right
41,1,continuous,6,100,trial,3823501.0,3829568.0,6067.0,6,R,3826394,3826776,384,1404.2,549.7,4795,right
41,1,continuous,6,100,trial,3823501.0,3829568.0,6067.0,6,R,3826854,3826998,146,401.7,505.1,5037,left
41,1,continuous,6,100,trial,3823501.0,3829568.0,6067.0,6,R,3827014,3827242,230,429.1,468.3,5007,left
41,1,continuous,6,100,trial,3823501.0,3829568.0,6067.0,6,R,3827264,3827844,582,439.4,575.2,4856,left
41,1,continuous,6,100,trial,3823501.0,3829568.0,6067.0,6,R,3827856,3828102,248,467.3,608.1,4996,left
41,1,continuous,6,100,trial,3823501.0,3829568.0,6067.0,6,R,3828174,3828426,254,1322.4,907.4,4892,NA
41,1,continuous,6,100,trial,3823501.0,3829568.0,6067.0,6,R,3828448,3828596,150,1438.6,950.0,4943,NA
41,1,continuous,6,100,trial,3823501.0,3829568.0,6067.0,6,R,3828642,3828834,194,1370.0,536.0,5081,right
41,1,continuous,6,100,trial,3823501.0,3829568.0,6067.0,6,R,3828852,3829314,464,1303.3,524.0,5179,right
41,1,continuous,6,100,trial,3823501.0,3829568.0,6067.0,6,R,3829382,3829570,190,451.8,500.2,5307,left
41,1,continuous,6,100,trial,3823501.0,3829568.0,6067.0,6,R,3829586,3829790,206,433.4,458.8,5179,left
41,1,continuous,6,100,trial,3823501.0,3829568.0,6067.0,6,R,3829840,3829870,32,916.4,446.9,4839,NA
41,1,continuous,7,42,fixationCross,3830634.0,3834351.0,3717.0,7,R,3829982,3830340,360,1062.1,448.7,4997,NA
41,1,continuous,7,42,trial,3830634.0,3834351.0,3717.0,7,R,3830366,3830808,444,920.2,504.6,5666,NA
41,1,continuous,7,42,trial,3830634.0,3834351.0,3717.0,7,R,3830866,3831096,232,520.0,527.5,5727,left
41,1,continuous,7,42,trial,3830634.0,3834351.0,3717.0,7,R,3831160,3831354,196,1340.6,508.3,4925,right
41,1,continuous,7,42,trial,3830634.0,3834351.0,3717.0,7,R,3831368,3831544,178,1347.0,477.3,4703,right
41,1,continuous,7,42,trial,3830634.0,3834351.0,3717.0,7,R,3831614,3831868,256,471.5,529.9,4890,left
41,1,continuous,7,42,trial,3830634.0,3834351.0,3717.0,7,R,3831888,3832128,242,395.4,537.7,4979,left
41,1,continuous,7,42,trial,3830634.0,3834351.0,3717.0,7,R,3832144,3832292,150,419.6,580.6,4994,left
41,1,continuous,7,42,trial,3830634.0,3834351.0,3717.0,7,R,3832354,3832540,188,1005.7,928.5,4997,likertHorizontal
41,1,continuous,7,42,trial,3830634.0,3834351.0,3717.0,7,R,3832556,3832836,282,958.4,971.5,5236,likertHorizontal
41,1,continuous,7,42,trial,3830634.0,3834351.0,3717.0,7,R,3832880,3833032,154,1227.7,722.8,5371,right
41,1,continuous,7,42,trial,3830634.0,3834351.0,3717.0,7,R,3833068,3833248,182,1329.0,530.5,5352,right
41,1,continuous,7,42,trial,3830634.0,3834351.0,3717.0,7,R,3833268,3833464,198,1344.0,457.8,5266,right
41,1,continuous,7,42,trial,3830634.0,3834351.0,3717.0,7,R,3833536,3833844,310,458.9,530.0,5167,left
41,1,continuous,7,42,trial,3830634.0,3834351.0,3717.0,7,R,3833898,3834060,164,817.8,872.6,5201,likertHorizontal
41,1,continuous,7,42,postResponse,3830634.0,3834351.0,3717.0,7,R,3834080,3834684,606,879.3,949.6,5516,likertHorizontal
41,1,continuous,8,100,fixationCross,3835451.0,3837285.0,1834.0,8,R,3834840,3835130,292,1078.8,429.6,5589,NA
41,1,continuous,8,100,trial,3835451.0,3837285.0,1834.0,8,R,3835154,3835602,450,961.0,516.3,5922,NA
41,1,continuous,8,100,trial,3835451.0,3837285.0,1834.0,8,R,3835646,3835774,130,614.7,514.0,5861,left
41,1,continuous,8,100,trial,3835451.0,3837285.0,1834.0,8,R,3835804,3836058,256,461.4,537.6,5220,left
41,1,continuous,8,100,trial,3835451.0,3837285.0,1834.0,8,R,3836072,3836164,94,500.6,555.6,4836,left
41,1,continuous,8,100,trial,3835451.0,3837285.0,1834.0,8,R,3836228,3836514,288,1333.6,495.0,4693,right
41,1,continuous,8,100,trial,3835451.0,3837285.0,1834.0,8,R,3836530,3836818,290,1400.5,507.3,4857,right
41,1,continuous,8,100,trial,3835451.0,3837285.0,1834.0,8,R,3836876,3837012,138,1407.2,912.5,5152,NA
41,1,continuous,8,100,trial,3835451.0,3837285.0,1834.0,8,R,3837028,3837186,160,1442.3,959.8,5316,NA
41,1,continuous,8,100,postResponse,3835451.0,3837285.0,1834.0,8,R,3837238,3837620,384,1373.8,520.3,5310,right
41,1,continuous,9,1,fixationCross,3838668.0,3844751.0,6083.0,9,R,3837694,3837798,106,1372.7,519.9,5140,right
41,1,continuous,9,1,fixationCross,3838668.0,3844751.0,6083.0,9,R,3837876,3838348,474,744.7,515.1,5694,NA
41,1,continuous,9,1,trial,3838668.0,3844751.0,6083.0,9,R,3838370,3838810,442,932.7,525.5,5865,NA
41,1,continuous,9,1,trial,3838668.0,3844751.0,6083.0,9,R,3838854,3839010,158,541.3,519.0,5864,left
41,1,continuous,9,1,trial,3838668.0,3844751.0,6083.0,9,R,3839032,3839384,354,469.2,449.3,5215,left
41,1,continuous,9,1,trial,3838668.0,3844751.0,6083.0,9,R,3839404,3839654,252,484.4,537.9,4653,left
41,1,continuous,9,1,trial,3838668.0,3844751.0,6083.0,9,R,3839674,3839824,152,584.4,538.2,4636,left
41,1,continuous,9,1,trial,3838668.0,3844751.0,6083.0,9,R,3839894,3840118,226,1443.1,504.1,4563,right
41,1,continuous,9,1,trial,3838668.0,3844751.0,6083.0,9,R,3840142,3840330,190,1430.0,397.7,4605,right
41,1,continuous,9,1,trial,3838668.0,3844751.0,6083.0,9,R,3840358,3840578,222,1369.0,570.6,4677,right
41,1,continuous,9,1,trial,3838668.0,3844751.0,6083.0,9,R,3840602,3840882,282,1509.0,609.8,4787,right
41,1,continuous,9,1,trial,3838668.0,3844751.0,6083.0,9,R,3840908,3841188,282,1343.2,602.1,4888,right
41,1,continuous,9,1,trial,3838668.0,3844751.0,6083.0,9,R,3841214,3841440,228,1302.9,479.4,4768,right
41,1,continuous,9,1,trial,3838668.0,3844751.0,6083.0,9,R,3841508,3841660,154,519.1,493.2,4945,left
41,1,continuous,9,1,trial,3838668.0,3844751.0,6083.0,9,R,3841678,3842028,352,470.9,437.1,5028,left
41,1,continuous,9,1,trial,3838668.0,3844751.0,6083.0,9,R,3842048,3842202,156,509.5,499.6,5005,left
41,1,continuous,9,1,trial,3838668.0,3844751.0,6083.0,9,R,3842220,3842382,164,589.0,508.3,5100,left
41,1,continuous,9,1,trial,3838668.0,3844751.0,6083.0,9,R,3842392,3842588,198,609.9,530.6,5190,left
41,1,continuous,9,1,trial,3838668.0,3844751.0,6083.0,9,R,3842614,3842752,140,475.8,530.7,5246,left
41,1,continuous,9,1,trial,3838668.0,3844751.0,6083.0,9,R,3842822,3843110,290,1382.9,559.8,4983,right
41,1,continuous,9,1,trial,3838668.0,3844751.0,6083.0,9,R,3843134,3843518,386,1556.0,605.6,4927,right
41,1,continuous,9,1,trial,3838668.0,3844751.0,6083.0,9,R,3843546,3843764,220,1318.2,635.1,4870,right
41,1,continuous,9,1,trial,3838668.0,3844751.0,6083.0,9,R,3843834,3844186,354,476.2,606.2,4989,left
41,1,continuous,9,1,trial,3838668.0,3844751.0,6083.0,9,R,3844208,3844480,274,582.7,559.1,5029,left
41,1,continuous,9,1,trial,3838668.0,3844751.0,6083.0,9,R,3844528,3844710,184,445.2,920.1,5165,NA
41,1,continuous,9,1,trial,3838668.0,3844751.0,6083.0,9,R,3844722,3844924,204,457.0,955.4,5278,NA
41,1,continuous,9,1,postResponse,3838668.0,3844751.0,6083.0,9,R,3845000,3845086,88,999.8,602.3,5196,NA
41,1,continuous,10,50,fixationCross,3845801.0,3851569.0,5768.0,10,R,3845168,3845506,340,1262.3,487.4,5257,right
41,1,continuous,10,50,trial,3845801.0,3851569.0,5768.0,10,R,3845546,3845946,402,936.9,503.1,5699,NA
41,1,continuous,10,50,trial,3845801.0,3851569.0,5768.0,10,R,3845998,3846130,134,1386.8,522.1,5503,right
41,1,continuous,10,50,trial,3845801.0,3851569.0,5768.0,10,R,3846144,3846426,284,1400.1,568.4,4996,right
41,1,continuous,10,50,trial,3845801.0,3851569.0,5768.0,10,R,3846450,3846568,120,1259.2,560.6,4793,right
41,1,continuous,10,50,trial,3845801.0,3851569.0,5768.0,10,R,3846636,3846994,360,517.2,581.0,4873,left
41,1,continuous,10,50,trial,3845801.0,3851569.0,5768.0,10,R,3847014,3847264,252,524.1,501.1,4774,left
41,1,continuous,10,50,trial,3845801.0,3851569.0,5768.0,10,R,3847300,3847484,186,513.8,647.9,4833,left
41,1,continuous,10,50,trial,3845801.0,3851569.0,5768.0,10,R,3847498,3847796,300,560.1,672.1,4869,left
41,1,continuous,10,50,trial,3845801.0,3851569.0,5768.0,10,R,3847866,3848346,482,1417.9,561.9,4630,right
41,1,continuous,10,50,trial,3845801.0,3851569.0,5768.0,10,R,3848370,3848584,216,1265.4,553.0,4737,right
41,1,continuous,10,50,trial,3845801.0,3851569.0,5768.0,10,R,3848594,3848734,142,1237.7,552.5,4705,right
41,1,continuous,10,50,trial,3845801.0,3851569.0,5768.0,10,R,3848798,3849324,528,579.0,676.4,4782,left
41,1,continuous,10,50,trial,3845801.0,3851569.0,5768.0,10,R,3849356,3849656,302,512.5,495.8,4651,left
41,1,continuous,10,50,trial,3845801.0,3851569.0,5768.0,10,R,3849690,3849880,192,369.4,679.2,4713,left
41,1,continuous,10,50,trial,3845801.0,3851569.0,5768.0,10,R,3849906,3850264,360,579.2,685.5,4808,left
41,1,continuous,10,50,trial,3845801.0,3851569.0,5768.0,10,R,3850332,3850468,138,1348.8,554.5,4592,right
41,1,continuous,10,50,trial,3845801.0,3851569.0,5768.0,10,R,3850484,3850880,398,1402.5,566.3,4544,right
41,1,continuous,10,50,trial,3845801.0,3851569.0,5768.0,10,R,3850906,3851000,96,1242.9,568.9,4644,right
41,1,continuous,10,50,trial,3845801.0,3851569.0,5768.0,10,R,3851052,3851200,150,1007.4,986.5,4870,likertHorizontal
41,1,continuous,10,50,trial,3845801.0,3851569.0,5768.0,10,R,3851214,3851780,568,969.7,987.4,5074,likertHorizontal
41,1,continuous,11,100,fixationCross,3852434.0,3854751.0,2317.0,11,R,3851976,3852334,360,1040.0,536.1,5348,NA
41,1,continuous,11,100,trial,3852434.0,3854751.0,2317.0,11,R,3852356,3852594,240,953.8,539.1,5609,NA
41,1,continuous,11,100,trial,3852434.0,3854751.0,2317.0,11,R,3852642,3852820,180,546.8,529.9,5591,left
41,1,continuous,11,100,trial,3852434.0,3854751.0,2317.0,11,R,3852842,3852992,152,436.6,532.5,5334,left
41,1,continuous,11,100,trial,3852434.0,3854751.0,2317.0,11,R,3853014,3853160,148,370.8,469.9,5074,left
41,1,continuous,11,100,trial,3852434.0,3854751.0,2317.0,11,R,3853228,3853406,180,1353.9,513.9,4879,right
41,1,continuous,11,100,trial,3852434.0,3854751.0,2317.0,11,R,3853426,3853744,320,1446.0,512.9,5091,right
41,1,continuous,11,100,trial,3852434.0,3854751.0,2317.0,11,R,3853758,3853962,206,1446.0,488.9,5245,right
41,1,continuous,11,100,trial,3852434.0,3854751.0,2317.0,11,R,3853990,3854518,530,1357.0,611.7,5272,right
41,1,continuous,11,100,postResponse,3852434.0,3854751.0,2317.0,11,R,3854596,3855096,502,491.5,508.6,5425,left
41,1,continuous,12,72,fixationCross,3856902.0,3864551.0,7649.0,12,R,3855292,3856244,954,1375.3,726.1,5610,right
41,1,continuous,12,72,fixationCross,3856902.0,3864551.0,7649.0,12,R,3856300,3856642,344,956.6,646.6,5755,NA
41,1,continuous,12,72,trial,3856902.0,3864551.0,7649.0,12,R,3856662,3857078,418,954.9,574.5,5849,NA
41,1,continuous,12,72,trial,3856902.0,3864551.0,7649.0,12,R,3857130,3857354,226,469.8,548.7,5662,left
41,1,continuous,12,72,trial,3856902.0,3864551.0,7649.0,12,R,3857374,3857498,126,392.7,596.8,5249,left
41,1,continuous,12,72,trial,3856902.0,3864551.0,7649.0,12,R,3857568,3857778,212,1346.9,485.3,4602,right
41,1,continuous,12,72,trial,3856902.0,3864551.0,7649.0,12,R,3857790,3858172,384,1354.3,460.2,4435,right
41,1,continuous,12,72,trial,3856902.0,3864551.0,7649.0,12,R,3858208,3858390,184,1506.9,636.6,4563,right
41,1,continuous,12,72,trial,3856902.0,3864551.0,7649.0,12,R,3858472,3858780,310,420.7,580.5,4935,left
41,1,continuous,12,72,trial,3856902.0,3864551.0,7649.0,12,R,3858792,3858932,142,386.4,592.8,4886,left
41,1,continuous,12,72,trial,3856902.0,3864551.0,7649.0,12,R,3858956,3859116,162,525.4,605.3,4702,left
41,1,continuous,12,72,trial,3856902.0,3864551.0,7649.0,12,R,3859144,3859508,366,355.4,607.3,4592,left
41,1,continuous,12,72,trial,3856902.0,3864551.0,7649.0,12,R,3859526,3859772,248,454.7,604.7,4603,left
41,1,continuous,12,72,trial,3856902.0,3864551.0,7649.0,12,R,3859788,3859952,166,391.5,591.3,4566,left
41,1,continuous,12,72,trial,3856902.0,3864551.0,7649.0,12,R,3859974,3860126,154,524.3,603.6,4565,left
41,1,continuous,12,72,trial,3856902.0,3864551.0,7649.0,12,R,3860154,3860260,108,372.1,624.3,4595,left
41,1,continuous,12,72,trial,3856902.0,3864551.0,7649.0,12,R,3860332,3860574,244,1382.5,548.6,4472,right
41,1,continuous,12,72,trial,3856902.0,3864551.0,7649.0,12,R,3860588,3861020,434,1423.9,572.8,4612,right
41,1,continuous,12,72,trial,3856902.0,3864551.0,7649.0,12,R,3861044,3861252,210,1577.4,533.9,4772,right
41,1,continuous,12,72,trial,3856902.0,3864551.0,7649.0,12,R,3861278,3861388,112,1374.4,482.7,4939,right
41,1,continuous,12,72,trial,3856902.0,3864551.0,7649.0,12,R,3861460,3861692,234,458.3,547.8,5235,left
41,1,continuous,12,72,trial,3856902.0,3864551.0,7649.0,12,R,3861710,3862018,310,408.1,573.6,5177,left
41,1,continuous,12,72,trial,3856902.0,3864551.0,7649.0,12,R,3862034,3862238,206,373.3,621.3,5010,left
41,1,continuous,12,72,trial,3856902.0,3864551.0,7649.0,12,R,3862252,3862436,186,396.5,591.1,4876,left
41,1,continuous,12,72,trial,3856902.0,3864551.0,7649.0,12,R,3862514,3863290,778,1407.1,556.1,4733,right
41,1,continuous,12,72,trial,3856902.0,3864551.0,7649.0,12,R,3863308,3863568,262,1390.2,606.3,5035,right
41,1,continuous,12,72,trial,3856902.0,3864551.0,7649.0,12,R,3863594,3863792,200,1603.4,536.3,5042,right
41,1,continuous,12,72,trial,3856902.0,3864551.0,7649.0,12,R,3863822,3864206,386,1360.7,465.0,4982,right
41,1,continuous,12,72,trial,3856902.0,3864551.0,7649.0,12,R,3864270,3864796,528,1139.5,958.5,5287,likertHorizontal
41,1,continuous,13,87,fixationCross,3865435.0,3872568.0,7133.0,13,R,3864974,3865316,344,1037.2,510.9,5437,NA
41,1,continuous,13,87,trial,3865435.0,3872568.0,7133.0,13,R,3865338,3865576,240,944.1,542.9,5657,NA
41,1,continuous,13,87,trial,3865435.0,3872568.0,7133.0,13,R,3865620,3865774,156,608.0,541.3,5554,left
41,1,continuous,13,87,trial,3865435.0,3872568.0,7133.0,13,R,3865798,3866220,424,474.0,543.1,5075,left
41,1,continuous,13,87,trial,3865435.0,3872568.0,7133.0,13,R,3866294,3866878,586,1477.8,500.1,4735,right
41,1,continuous,13,87,trial,3865435.0,3872568.0,7133.0,13,R,3866890,3867190,302,1471.2,476.3,4987,right
41,1,continuous,13,87,trial,3865435.0,3872568.0,7133.0,13,R,3867222,3867396,176,1310.8,659.5,5143,right
41,1,continuous,13,87,trial,3865435.0,3872568.0,7133.0,13,R,3867466,3867654,190,554.1,557.3,5347,left
41,1,continuous,13,87,trial,3865435.0,3872568.0,7133.0,13,R,3867672,3867816,146,629.1,536.2,5184,left
41,1,continuous,13,87,trial,3865435.0,3872568.0,7133.0,13,R,3867848,3868142,296,448.5,524.9,4985,left
41,1,continuous,13,87,trial,3865435.0,3872568.0,7133.0,13,R,3868182,3868380,200,692.4,580.5,4844,left
41,1,continuous,13,87,trial,3865435.0,3872568.0,7133.0,13,R,3868398,3868562,166,624.2,540.2,4949,left
41,1,continuous,13,87,trial,3865435.0,3872568.0,7133.0,13,R,3868588,3868874,288,461.1,523.4,5099,left
41,1,continuous,13,87,trial,3865435.0,3872568.0,7133.0,13,R,3868950,3869342,394,1478.4,499.6,4726,right
41,1,continuous,13,87,trial,3865435.0,3872568.0,7133.0,13,R,3869376,3870210,836,1295.2,654.0,4893,right
41,1,continuous,13,87,trial,3865435.0,3872568.0,7133.0,13,R,3870248,3870664,418,1491.3,491.4,4777,right
41,1,continuous,13,87,trial,3865435.0,3872568.0,7133.0,13,R,3870678,3871310,634,1476.3,473.2,4904,right
41,1,continuous,13,87,trial,3865435.0,3872568.0,7133.0,13,R,3871344,3871760,418,1295.2,655.4,5174,right
41,1,continuous,13,87,trial,3865435.0,3872568.0,7133.0,13,R,3871834,3872018,186,612.8,527.6,5134,left
41,1,continuous,13,87,trial,3865435.0,3872568.0,7133.0,13,R,3872042,3872438,398,456.2,520.4,5033,left
41,1,continuous,13,87,postResponse,3865435.0,3872568.0,7133.0,13,R,3872462,3872902,442,524.8,617.9,4984,left
41,1,continuous,14,1,fixationCross,3873669.0,3876718.0,3049.0,14,R,3873130,3873366,238,1166.0,564.7,4902,NA
41,1,continuous,14,1,trial,3873669.0,3876718.0,3049.0,14,R,3873392,3873844,454,952.6,530.9,5239,NA
41,1,continuous,14,1,trial,3873669.0,3876718.0,3049.0,14,R,3873894,3874336,444,533.8,528.9,5013,left
41,1,continuous,14,1,trial,3873669.0,3876718.0,3049.0,14,R,3874358,3874664,308,425.1,595.6,4677,left
41,1,continuous,14,1,trial,3873669.0,3876718.0,3049.0,14,R,3874684,3874790,108,390.8,681.7,4663,left
41,1,continuous,14,1,trial,3873669.0,3876718.0,3049.0,14,R,3874864,3875158,296,1429.8,561.3,4453,right
41,1,continuous,14,1,trial,3873669.0,3876718.0,3049.0,14,R,3875178,3875406,230,1345.2,490.4,4520,right
41,1,continuous,14,1,trial,3873669.0,3876718.0,3049.0,14,R,3875420,3875718,300,1341.1,454.3,4438,right
41,1,continuous,14,1,trial,3873669.0,3876718.0,3049.0,14,R,3875744,3875862,120,1266.3,570.1,4464,right
41,1,continuous,14,1,trial,3873669.0,3876718.0,3049.0,14,R,3875936,3876432,498,470.0,578.9,4875,left
41,1,continuous,14,1,trial,3873669.0,3876718.0,3049.0,14,R,3876452,3876764,314,440.5,659.6,4982,left
41,1,continuous,14,1,trial,3873669.0,3876718.0,3049.0,14,R,3876810,3876948,140,539.9,397.6,4954,left
41,1,continuous,15,1,fixationCross,3877919.0,3882452.0,4533.0,15,R,3877142,3877354,214,1571.9,597.2,4869,right
41,1,continuous,15,1,fixationCross,3877919.0,3882452.0,4533.0,15,R,3877436,3877666,232,770.7,551.4,5444,NA
41,1,continuous,15,1,trial,3877919.0,3882452.0,4533.0,15,R,3877692,3878052,362,984.3,530.1,5531,NA
41,1,continuous,15,1,trial,3877919.0,3882452.0,4533.0,15,R,3878098,3878246,150,578.5,511.2,5633,left
41,1,continuous,15,1,trial,3877919.0,3882452.0,4533.0,15,R,3878270,3878414,146,461.5,505.3,5374,left
41,1,continuous,15,1,trial,3877919.0,3882452.0,4533.0,15,R,3878434,3878628,196,448.1,443.1,4846,left
41,1,continuous,15,1,trial,3877919.0,3882452.0,4533.0,15,R,3878644,3878894,252,390.8,447.1,4418,left
41,1,continuous,15,1,trial,3877919.0,3882452.0,4533.0,15,R,3878914,3879610,698,466.8,511.8,4426,left
41,1,continuous,15,1,trial,3877919.0,3882452.0,4533.0,15,R,3879630,3879868,240,566.3,534.0,4580,left
41,1,continuous,15,1,trial,3877919.0,3882452.0,4533.0,15,R,3879940,3880144,206,1431.8,509.9,4475,right
41,1,continuous,15,1,trial,3877919.0,3882452.0,4533.0,15,R,3880162,3880318,158,1435.3,574.2,4522,right
41,1,continuous,15,1,trial,3877919.0,3882452.0,4533.0,15,R,3880340,3880580,242,1542.4,603.3,4733,right
41,1,continuous,15,1,trial,3877919.0,3882452.0,4533.0,15,R,3880598,3880786,190,1459.4,600.8,4831,right
41,1,continuous,15,1,trial,3877919.0,3882452.0,4533.0,15,R,3880802,3881004,204,1407.8,581.9,4853,right
41,1,continuous,15,1,trial,3877919.0,3882452.0,4533.0,15,R,3881076,3881242,168,617.6,913.1,5213,NA
41,1,continuous,15,1,trial,3877919.0,3882452.0,4533.0,15,R,3881294,3881506,214,458.5,584.7,5264,left
41,1,continuous,15,1,trial,3877919.0,3882452.0,4533.0,15,R,3881524,3881680,158,493.9,529.7,5058,left
41,1,continuous,15,1,trial,3877919.0,3882452.0,4533.0,15,R,3881754,3882092,340,1451.8,547.4,4534,right
41,1,continuous,15,1,trial,3877919.0,3882452.0,4533.0,15,R,3882106,3882252,148,1404.1,582.7,4763,right
41,1,continuous,15,1,trial,3877919.0,3882452.0,4533.0,15,R,3882274,3882626,354,1521.5,608.1,5015,right
41,1,continuous,15,1,postResponse,3877919.0,3882452.0,4533.0,15,R,3882702,3882786,86,772.7,715.0,5266,NA
41,1,continuous,16,48,fixationCross,3883519.0,3890985.0,7466.0,16,R,3882980,3883212,234,658.1,588.2,5575,left
41,1,continuous,16,48,trial,3883519.0,3890985.0,7466.0,16,R,3883240,3883622,384,933.8,552.2,5691,NA
41,1,continuous,16,48,trial,3883519.0,3890985.0,7466.0,16,R,3883666,3883798,134,550.2,531.6,5704,left
41,1,continuous,16,48,trial,3883519.0,3890985.0,7466.0,16,R,3883816,3884500,686,485.0,544.2,5142,left
41,1,continuous,16,48,trial,3883519.0,3890985.0,7466.0,16,R,3884516,3884842,328,492.4,595.2,5123,left
41,1,continuous,16,48,trial,3883519.0,3890985.0,7466.0,16,R,3884882,3885302,422,458.6,847.2,5683,NA
41,1,continuous,16,48,trial,3883519.0,3890985.0,7466.0,16,R,3885338,3885568,232,496.7,570.6,5978,left
41,1,continuous,16,48,trial,3883519.0,3890985.0,7466.0,16,R,3885646,3885854,210,1466.0,558.7,5807,right
41,1,continuous,16,48,trial,3883519.0,3890985.0,7466.0,16,R,3885880,3886008,130,1287.0,587.9,5710,right
41,1,continuous,16,48,trial,3883519.0,3890985.0,7466.0,16,R,3886076,3886368,294,468.9,558.6,5580,left
41,1,continuous,16,48,trial,3883519.0,3890985.0,7466.0,16,R,3886378,3886546,170,489.9,550.9,5391,left
41,1,continuous,16,48,trial,3883519.0,3890985.0,7466.0,16,R,3886562,3886932,372,514.1,614.0,5366,left
41,1,continuous,16,48,trial,3883519.0,3890985.0,7466.0,16,R,3887042,3887402,362,464.4,595.3,5423,left
41,1,continuous,16,48,trial,3883519.0,3890985.0,7466.0,16,R,3887418,3887598,182,524.4,617.3,5438,left
41,1,continuous,16,48,trial,3883519.0,3890985.0,7466.0,16,R,3887670,3887864,196,1404.1,570.6,5059,right
41,1,continuous,16,48,trial,3883519.0,3890985.0,7466.0,16,R,3887886,3888094,210,1281.4,577.8,5004,right
41,1,continuous,16,48,trial,3883519.0,3890985.0,7466.0,16,R,3888128,3888492,366,1548.2,588.2,4846,right
41,1,continuous,16,48,trial,3883519.0,3890985.0,7466.0,16,R,3888526,3888830,306,1283.1,570.3,4801,right
41,1,continuous,16,48,trial,3883519.0,3890985.0,7466.0,16,R,3888886,3889176,292,973.2,941.0,5084,likertHorizontal
41,1,continuous,16,48,trial,3883519.0,3890985.0,7466.0,16,R,3889246,3889580,336,470.7,554.8,5256,left
41,1,continuous,16,48,trial,3883519.0,3890985.0,7466.0,16,R,3889596,3889824,230,483.4,517.5,5254,left
41,1,continuous,16,48,trial,3883519.0,3890985.0,7466.0,16,R,3889896,3890024,130,1379.7,559.6,5020,right
41,1,continuous,16,48,trial,3883519.0,3890985.0,7466.0,16,R,3890046,3890228,184,1276.3,578.5,5038,right
41,1,continuous,16,48,trial,3883519.0,3890985.0,7466.0,16,R,3890296,3890570,276,472.5,539.0,5198,left
41,1,continuous,16,48,trial,3883519.0,3890985.0,7466.0,16,R,3890588,3891182,596,515.6,592.6,5234,left
41,1,continuous,17,100,fixationCross,3892102.0,3894269.0,2167.0,17,R,3891392,3891764,374,1332.9,611.0,5087,right
41,1,continuous,17,100,trial,3892102.0,3894269.0,2167.0,17,R,3891806,3892242,438,1007.4,539.7,5463,NA
41,1,continuous,17,100,trial,3892102.0,3894269.0,2167.0,17,R,3892292,3892420,130,538.0,527.5,5512,left
41,1,continuous,17,100,trial,3892102.0,3894269.0,2167.0,17,R,3892444,3892576,134,407.4,542.5,5262,left
41,1,continuous,17,100,trial,3892102.0,3894269.0,2167.0,17,R,3892596,3892786,192,410.5,636.2,4941,left
41,1,continuous,17,100,trial,3892102.0,3894269.0,2167.0,17,R,3892860,3893114,256,1365.4,574.0,4512,right
41,1,continuous,17,100,trial,3892102.0,3894269.0,2167.0,17,R,3893132,3893298,168,1445.9,556.6,4429,right
41,1,continuous,17,100,trial,3892102.0,3894269.0,2167.0,17,R,3893322,3893862,542,1462.5,461.3,4365,right
41,1,continuous,17,100,trial,3892102.0,3894269.0,2167.0,17,R,3893932,3894122,192,1369.9,937.7,4566,NA
41,1,continuous,17,100,trial,3892102.0,3894269.0,2167.0,17,R,3894204,3894370,168,458.8,564.5,5042,left
41,1,continuous,17,100,trial,3892102.0,3894269.0,2167.0,17,R,3894396,3894584,190,387.8,628.8,5201,left
41,1,continuous,18,50,fixationCross,3895452.0,3897502.0,2050.0,18,R,3894678,3894874,198,1268.1,735.0,5237,NA
41,1,continuous,18,50,fixationCross,3895452.0,3897502.0,2050.0,18,R,3894926,3895106,182,1612.8,801.4,5475,NA
41,1,continuous,18,50,trial,3895452.0,3897502.0,2050.0,18,R,3895170,3895612,444,981.8,555.8,5659,NA
41,1,continuous,18,50,trial,3895452.0,3897502.0,2050.0,18,R,3895672,3895846,176,520.4,566.0,5613,left
41,1,continuous,18,50,trial,3895452.0,3897502.0,2050.0,18,R,3895856,3896340,486,504.4,592.8,5227,left
41,1,continuous,18,50,trial,3895452.0,3897502.0,2050.0,18,R,3896408,3896706,300,1430.3,535.7,4886,right
41,1,continuous,18,50,trial,3895452.0,3897502.0,2050.0,18,R,3896724,3897044,322,1370.3,575.2,5182,right
41,1,continuous,18,50,trial,3895452.0,3897502.0,2050.0,18,R,3897104,3897226,124,894.7,941.1,5607,likertHorizontal
41,1,continuous,18,50,trial,3895452.0,3897502.0,2050.0,18,R,3897244,3897436,194,951.2,967.6,5682,likertHorizontal
41,1,continuous,18,50,trial,3895452.0,3897502.0,2050.0,18,R,3897490,3897730,242,517.4,614.1,5568,left
41,1,continuous,19,79,fixationCross,3898552.0,3903402.0,4850.0,19,R,3897912,3898242,332,1114.2,605.6,5267,NA
41,1,continuous,19,79,trial,3898552.0,3903402.0,4850.0,19,R,3898268,3898716,450,944.5,538.8,5470,NA
41,1,continuous,19,79,trial,3898552.0,3903402.0,4850.0,19,R,3898764,3899042,280,522.3,536.0,5270,left
41,1,continuous,19,79,trial,3898552.0,3903402.0,4850.0,19,R,3899058,3899336,280,583.4,540.6,4728,left
41,1,continuous,19,79,trial,3898552.0,3903402.0,4850.0,19,R,3899396,3899660,266,1318.6,533.2,4308,right
41,1,continuous,19,79,trial,3898552.0,3903402.0,4850.0,19,R,3899678,3899818,142,1395.4,513.7,4385,right
41,1,continuous,19,79,trial,3898552.0,3903402.0,4850.0,19,R,3899836,3900606,772,1321.9,493.7,4569,right
41,1,continuous,19,79,trial,3898552.0,3903402.0,4850.0,19,R,3900680,3900948,270,548.2,560.9,4974,left
41,1,continuous,19,79,trial,3898552.0,3903402.0,4850.0,19,R,3900972,3901224,254,421.8,590.4,4917,left
41,1,continuous,19,79,trial,3898552.0,3903402.0,4850.0,19,R,3901248,3901612,366,553.4,550.5,4812,left
41,1,continuous,19,79,trial,3898552.0,3903402.0,4850.0,19,R,3901660,3901804,146,515.6,848.0,4871,NA
41,1,continuous,19,79,trial,3898552.0,3903402.0,4850.0,19,R,3901862,3902002,142,1092.3,967.3,4916,likertHorizontal
41,1,continuous,19,79,trial,3898552.0,3903402.0,4850.0,19,R,3902026,3902180,156,968.5,979.4,5094,likertHorizontal
41,1,continuous,19,79,trial,3898552.0,3903402.0,4850.0,19,R,3902230,3902372,144,1476.8,983.3,5053,NA
41,1,continuous,19,79,trial,3898552.0,3903402.0,4850.0,19,R,3902424,3902624,202,1425.0,559.9,4960,right
41,1,continuous,19,79,trial,3898552.0,3903402.0,4850.0,19,R,3902646,3902852,208,1350.9,489.7,4910,right
41,1,continuous,19,79,trial,3898552.0,3903402.0,4850.0,19,R,3902918,3903326,410,1328.1,949.6,5106,NA
41,1,continuous,19,79,trial,3898552.0,3903402.0,4850.0,19,R,3903364,3903706,344,1337.1,591.3,5223,right
41,1,continuous,20,55,fixationCross,3904519.0,3910252.0,5733.0,20,R,3903882,3904206,326,1216.5,486.4,5356,right
41,1,continuous,20,55,trial,3904519.0,3910252.0,5733.0,20,R,3904250,3904656,408,930.2,519.3,5663,NA
41,1,continuous,20,55,trial,3904519.0,3910252.0,5733.0,20,R,3904718,3905098,382,434.3,522.2,5459,left
41,1,continuous,20,55,trial,3904519.0,3910252.0,5733.0,20,R,3905114,3905410,298,360.8,546.7,4878,left
41,1,continuous,20,55,trial,3904519.0,3910252.0,5733.0,20,R,3905426,3905914,490,425.1,546.3,4786,left
41,1,continuous,20,55,trial,3904519.0,3910252.0,5733.0,20,R,3905932,3906146,216,331.7,521.3,4915,left
41,1,continuous,20,55,trial,3904519.0,3910252.0,5733.0,20,R,3906166,3906732,568,429.8,551.3,4928,left
41,1,continuous,20,55,trial,3904519.0,3910252.0,5733.0,20,R,3906750,3906908,160,371.0,558.4,4957,left
41,1,continuous,20,55,trial,3904519.0,3910252.0,5733.0,20,R,3906926,3907082,158,456.0,561.7,4879,left
41,1,continuous,20,55,trial,3904519.0,3910252.0,5733.0,20,R,3907154,3907324,172,1395.4,527.7,4642,right
41,1,continuous,20,55,trial,3904519.0,3910252.0,5733.0,20,R,3907350,3907584,236,1577.0,579.6,4594,right
41,1,continuous,20,55,trial,3904519.0,3910252.0,5733.0,20,R,3907622,3907762,142,1348.1,496.3,4687,right
41,1,continuous,20,55,trial,3904519.0,3910252.0,5733.0,20,R,3907782,3907992,212,1269.3,489.5,4652,right
41,1,continuous,20,55,trial,3904519.0,3910252.0,5733.0,20,R,3908016,3908090,76,1215.5,599.0,4637,right
41,1,continuous,20,55,trial,3904519.0,3910252.0,5733.0,20,R,3908138,3908400,264,945.5,970.5,4941,likertHorizontal
41,1,continuous,20,55,trial,3904519.0,3910252.0,5733.0,20,R,3908460,3908648,190,1312.5,573.2,4989,right
41,1,continuous,20,55,trial,3904519.0,3910252.0,5733.0,20,R,3908710,3909324,616,973.3,968.0,5354,likertHorizontal
41,1,continuous,20,55,trial,3904519.0,3910252.0,5733.0,20,R,3909386,3909554,170,421.1,575.6,5305,left
41,1,continuous,20,55,trial,3904519.0,3910252.0,5733.0,20,R,3909626,3909782,158,1391.1,547.6,4884,right
41,1,continuous,20,55,trial,3904519.0,3910252.0,5733.0,20,R,3909838,3910046,210,966.2,950.9,4866,likertHorizontal
41,1,continuous,20,55,trial,3904519.0,3910252.0,5733.0,20,R,3910058,3910464,408,1001.1,971.4,5051,likertHorizontal
41,1,continuous,21,44,trial,3911152.0,3918619.0,7467.0,21,R,3910660,3911284,626,976.1,480.1,5319,NA
41,1,continuous,21,44,trial,3911152.0,3918619.0,7467.0,21,R,3911342,3911504,164,565.6,501.7,5562,left
41,1,continuous,21,44,trial,3911152.0,3918619.0,7467.0,21,R,3911522,3911848,328,611.8,504.4,5089,left
41,1,continuous,21,44,trial,3911152.0,3918619.0,7467.0,21,R,3911970,3912154,186,589.5,513.3,4740,left
41,1,continuous,21,44,trial,3911152.0,3918619.0,7467.0,21,R,3912164,3912536,374,622.0,509.3,4809,left
41,1,continuous,21,44,trial,3911152.0,3918619.0,7467.0,21,R,3912568,3912810,244,411.5,557.5,4632,left
41,1,continuous,21,44,trial,3911152.0,3918619.0,7467.0,21,R,3912886,3913076,192,1452.8,453.2,4368,right
41,1,continuous,21,44,trial,3911152.0,3918619.0,7467.0,21,R,3913096,3913250,156,1348.5,447.5,4344,right
41,1,continuous,21,44,trial,3911152.0,3918619.0,7467.0,21,R,3913276,3913674,400,1511.8,419.0,4378,right
41,1,continuous,21,44,trial,3911152.0,3918619.0,7467.0,21,R,3913754,3913894,142,462.5,510.9,4790,left
41,1,continuous,21,44,trial,3911152.0,3918619.0,7467.0,21,R,3913916,3914520,606,604.1,505.5,4953,left
41,1,continuous,21,44,trial,3911152.0,3918619.0,7467.0,21,R,3914546,3914852,308,443.4,570.8,5197,left
41,1,continuous,21,44,trial,3911152.0,3918619.0,7467.0,21,R,3914926,3915090,166,1413.4,475.8,4906,right
41,1,continuous,21,44,trial,3911152.0,3918619.0,7467.0,21,R,3915110,3915322,214,1497.8,436.9,4706,right
41,1,continuous,21,44,trial,3911152.0,3918619.0,7467.0,21,R,3915348,3915710,364,1448.1,572.0,4687,right
41,1,continuous,21,44,trial,3911152.0,3918619.0,7467.0,21,R,3915784,3916044,262,529.9,522.7,4932,left
41,1,continuous,21,44,trial,3911152.0,3918619.0,7467.0,21,R,3916060,3916210,152,592.6,509.6,4849,left
41,1,continuous,21,44,trial,3911152.0,3918619.0,7467.0,21,R,3916304,3916554,252,587.0,525.4,4894,left
41,1,continuous,21,44,trial,3911152.0,3918619.0,7467.0,21,R,3916622,3916890,270,1463.6,506.9,4824,right
41,1,continuous,21,44,trial,3911152.0,3918619.0,7467.0,21,R,3916910,3917096,188,1505.8,428.1,4753,right
41,1,continuous,21,44,trial,3911152.0,3918619.0,7467.0,21,R,3917122,3917414,294,1443.5,586.5,4748,right
41,1,continuous,21,44,trial,3911152.0,3918619.0,7467.0,21,R,3917476,3917776,302,883.8,919.7,5080,likertHorizontal
41,1,continuous,21,44,trial,3911152.0,3918619.0,7467.0,21,R,3917796,3918058,264,933.6,974.2,5212,likertHorizontal
41,1,continuous,21,44,trial,3911152.0,3918619.0,7467.0,21,R,3918120,3918272,154,574.6,667.7,5361,left
41,1,continuous,21,44,trial,3911152.0,3918619.0,7467.0,21,R,3918306,3918458,154,590.9,494.7,5233,left
41,1,continuous,21,44,trial,3911152.0,3918619.0,7467.0,21,R,3918470,3918836,368,625.2,504.9,4984,left
41,1,continuous,22,97,fixationCross,3919685.0,3924135.0,4450.0,22,R,3919054,3919368,316,1273.9,706.7,5082,right
41,1,continuous,22,97,trial,3919685.0,3924135.0,4450.0,22,R,3919406,3919816,412,976.0,519.3,5514,NA
41,1,continuous,22,97,trial,3919685.0,3924135.0,4450.0,22,R,3919872,3920118,248,563.6,498.9,5430,left
41,1,continuous,22,97,trial,3919685.0,3924135.0,4450.0,22,R,3920138,3920330,194,486.5,523.7,4977,left
41,1,continuous,22,97,trial,3919685.0,3924135.0,4450.0,22,R,3920348,3920510,164,520.5,476.9,4754,left
41,1,continuous,22,97,trial,3919685.0,3924135.0,4450.0,22,R,3920578,3920720,144,1406.6,520.8,4458,right
41,1,continuous,22,97,trial,3919685.0,3924135.0,4450.0,22,R,3920734,3920932,200,1441.6,549.6,4453,right
41,1,continuous,22,97,trial,3919685.0,3924135.0,4450.0,22,R,3920952,3921108,158,1561.0,531.8,4569,right
41,1,continuous,22,97,trial,3919685.0,3924135.0,4450.0,22,R,3921122,3921358,238,1608.6,518.4,4511,right
41,1,continuous,22,97,trial,3919685.0,3924135.0,4450.0,22,R,3921384,3921558,176,1424.0,540.1,4506,right
41,1,continuous,22,97,trial,3919685.0,3924135.0,4450.0,22,R,3921568,3921620,54,1442.6,565.7,4529,right
41,1,continuous,22,97,trial,3919685.0,3924135.0,4450.0,22,R,3921698,3921918,222,467.9,532.6,4906,left
41,1,continuous,22,97,trial,3919685.0,3924135.0,4450.0,22,R,3921938,3922102,166,493.1,449.3,4982,left
41,1,continuous,22,97,trial,3919685.0,3924135.0,4450.0,22,R,3922120,3922648,530,429.3,412.9,4780,left
41,1,continuous,22,97,trial,3919685.0,3924135.0,4450.0,22,R,3922750,3923072,324,490.1,502.7,4780,left
41,1,continuous,22,97,trial,3919685.0,3924135.0,4450.0,22,R,3923088,3923362,276,541.9,555.5,4949,left
41,1,continuous,22,97,trial,3919685.0,3924135.0,4450.0,22,R,3923432,3923654,224,1403.2,536.2,4677,right
41,1,continuous,22,97,trial,3919685.0,3924135.0,4450.0,22,R,3923668,3924326,660,1442.8,571.2,4881,right
41,1,continuous,22,97,postResponse,3919685.0,3924135.0,4450.0,22,R,3924384,3924470,88,1395.4,922.2,5123,NA
41,1,continuous,23,1,fixationCross,3925019.0,3927785.0,2766.0,23,R,3924544,3924588,46,1396.2,926.7,5144,NA
41,1,continuous,23,1,trial,3925019.0,3927785.0,2766.0,23,R,3924750,3925138,390,988.6,552.9,5529,NA
41,1,continuous,23,1,trial,3925019.0,3927785.0,2766.0,23,R,3925196,3925336,142,548.7,545.1,5663,left
41,1,continuous,23,1,trial,3925019.0,3927785.0,2766.0,23,R,3925358,3925876,520,465.6,577.9,4993,left
41,1,continuous,23,1,trial,3925019.0,3927785.0,2766.0,23,R,3925944,3926132,190,1353.6,543.5,4288,right
41,1,continuous,23,1,trial,3925019.0,3927785.0,2766.0,23,R,3926154,3926372,220,1477.5,554.2,4341,right
41,1,continuous,23,1,trial,3925019.0,3927785.0,2766.0,23,R,3926398,3926700,304,1288.6,532.9,4535,right
41,1,continuous,23,1,trial,3925019.0,3927785.0,2766.0,23,R,3926762,3926924,164,961.0,967.7,4805,likertHorizontal
41,1,continuous,23,1,trial,3925019.0,3927785.0,2766.0,23,R,3926978,3927428,452,477.3,583.3,4996,left
41,1,continuous,23,1,trial,3925019.0,3927785.0,2766.0,23,R,3927496,3927688,194,1387.5,557.3,4763,right
41,1,continuous,23,1,postResponse,3925019.0,3927785.0,2766.0,23,R,3927712,3928120,410,1568.4,528.2,4792,right
41,1,continuous,24,100,fixationCross,3928853.0,3935202.0,6349.0,24,R,3928194,3928514,322,1561.5,534.8,4958,right
41,1,continuous,24,100,trial,3928853.0,3935202.0,6349.0,24,R,3928570,3929004,436,976.9,522.1,5485,NA
41,1,continuous,24,100,trial,3928853.0,3935202.0,6349.0,24,R,3929052,3929202,152,531.0,555.5,5699,left
41,1,continuous,24,100,trial,3928853.0,3935202.0,6349.0,24,R,3929226,3929356,132,393.8,583.5,5447,left
41,1,continuous,24,100,trial,3928853.0,3935202.0,6349.0,24,R,3929380,3929588,210,614.2,582.1,5093,left
41,1,continuous,24,100,trial,3928853.0,3935202.0,6349.0,24,R,3929676,3929898,224,1351.0,532.5,4702,right
41,1,continuous,24,100,trial,3928853.0,3935202.0,6349.0,24,R,3929916,3930270,356,1355.0,480.8,4669,right
41,1,continuous,24,100,trial,3928853.0,3935202.0,6349.0,24,R,3930330,3930602,274,664.1,579.3,4898,left
41,1,continuous,24,100,trial,3928853.0,3935202.0,6349.0,24,R,3930634,3930894,262,439.2,592.6,5045,left
41,1,continuous,24,100,trial,3928853.0,3935202.0,6349.0,24,R,3930920,3931102,184,620.8,594.2,4999,left
41,1,continuous,24,100,trial,3928853.0,3935202.0,6349.0,24,R,3931118,3931308,192,680.6,600.6,4945,left
41,1,continuous,24,100,trial,3928853.0,3935202.0,6349.0,24,R,3931372,3931576,206,1410.5,538.1,4758,right
41,1,continuous,24,100,trial,3928853.0,3935202.0,6349.0,24,R,3931592,3931764,174,1362.0,511.4,4752,right
41,1,continuous,24,100,trial,3928853.0,3935202.0,6349.0,24,R,3931780,3932002,224,1355.8,467.3,4713,right
41,1,continuous,24,100,trial,3928853.0,3935202.0,6349.0,24,R,3932064,3932278,216,704.8,586.6,4815,left
41,1,continuous,24,100,trial,3928853.0,3935202.0,6349.0,24,R,3932306,3932518,214,539.7,595.6,4903,left
41,1,continuous,24,100,trial,3928853.0,3935202.0,6349.0,24,R,3932544,3932714,172,400.7,597.1,4890,left
41,1,continuous,24,100,trial,3928853.0,3935202.0,6349.0,24,R,3932728,3933534,808,420.6,629.7,4955,left
41,1,continuous,24,100,trial,3928853.0,3935202.0,6349.0,24,R,3933546,3933832,288,417.2,669.2,5112,left
41,1,continuous,24,100,trial,3928853.0,3935202.0,6349.0,24,R,3933856,3934178,324,474.1,586.8,5102,left
41,1,continuous,24,100,trial,3928853.0,3935202.0,6349.0,24,R,3934198,3934378,182,552.1,598.7,5016,left
41,1,continuous,24,100,trial,3928853.0,3935202.0,6349.0,24,R,3934448,3934790,344,1376.7,525.2,4783,right
41,1,continuous,24,100,trial,3928853.0,3935202.0,6349.0,24,R,3934806,3935174,370,1356.7,486.5,4682,right
41,1,continuous,24,100,trial,3928853.0,3935202.0,6349.0,24,R,3935196,3935402,208,1453.4,527.9,4600,right
41,1,continuous,25,50,fixationCross,3936653.0,3938869.0,2216.0,25,R,3935612,3935824,214,1228.6,665.1,4813,right
41,1,continuous,25,50,fixationCross,3936653.0,3938869.0,2216.0,25,R,3935886,3936384,500,756.8,531.0,5476,NA
41,1,continuous,25,50,trial,3936653.0,3938869.0,2216.0,25,R,3936404,3936778,376,883.8,509.3,5436,NA
41,1,continuous,25,50,trial,3936653.0,3938869.0,2216.0,25,R,3936820,3937030,212,557.9,513.7,5735,left
41,1,continuous,25,50,trial,3936653.0,3938869.0,2216.0,25,R,3937052,3937520,470,443.7,540.9,5414,left
41,1,continuous,25,50,trial,3936653.0,3938869.0,2216.0,25,R,3937542,3937690,150,550.9,554.5,5131,left
41,1,continuous,25,50,trial,3936653.0,3938869.0,2216.0,25,R,3937760,3937896,138,1474.1,484.4,4907,right
41,1,continuous,25,50,trial,3936653.0,3938869.0,2216.0,25,R,3937914,3938278,366,1524.7,474.8,4910,right
41,1,continuous,25,50,trial,3936653.0,3938869.0,2216.0,25,R,3938300,3938424,126,1385.1,463.5,4785,right
41,1,continuous,25,50,trial,3936653.0,3938869.0,2216.0,25,R,3938486,3938620,136,1034.3,925.1,4974,likertHorizontal
41,1,continuous,25,50,trial,3936653.0,3938869.0,2216.0,25,R,3938640,3938830,192,962.1,973.4,5093,likertHorizontal
41,1,continuous,25,50,trial,3936653.0,3938869.0,2216.0,25,R,3938894,3939136,244,504.8,530.3,5171,left
41,1,continuous,26,50,fixationCross,3974319.0,3978770.0,4451.0,26,R,3973598,3973804,208,261.3,87.3,5647,NA
41,1,continuous,26,50,fixationCross,3974319.0,3978770.0,4451.0,26,R,3973858,3974000,144,741.1,323.7,5800,NA
41,1,continuous,26,50,fixationCross,3974319.0,3978770.0,4451.0,26,R,3974044,3974170,128,954.4,521.3,5750,NA
41,1,continuous,26,50,trial,3974319.0,3978770.0,4451.0,26,R,3974184,3974496,314,979.5,554.1,5980,NA
41,1,continuous,26,50,trial,3974319.0,3978770.0,4451.0,26,R,3974550,3974750,202,592.2,557.8,6315,left
41,1,continuous,26,50,trial,3974319.0,3978770.0,4451.0,26,R,3974796,3974898,104,633.3,856.5,5942,NA
41,1,continuous,26,50,trial,3974319.0,3978770.0,4451.0,26,R,3974950,3975082,134,367.3,457.9,5505,left
41,1,continuous,26,50,trial,3974319.0,3978770.0,4451.0,26,R,3975100,3975262,164,316.7,416.4,5289,left
41,1,continuous,26,50,trial,3974319.0,3978770.0,4451.0,26,R,3975298,3975460,164,542.2,440.3,5138,left
41,1,continuous,26,50,trial,3974319.0,3978770.0,4451.0,26,R,3975486,3975658,174,466.6,540.0,5086,left
41,1,continuous,26,50,trial,3974319.0,3978770.0,4451.0,26,R,3975728,3975936,210,1405.7,463.1,4733,right
41,1,continuous,26,50,trial,3974319.0,3978770.0,4451.0,26,R,3975946,3976142,198,1425.8,457.1,4624,right
41,1,continuous,26,50,trial,3974319.0,3978770.0,4451.0,26,R,3976166,3976432,268,1443.9,563.7,4631,right
41,1,continuous,26,50,trial,3974319.0,3978770.0,4451.0,26,R,3976444,3976706,264,1475.8,585.9,4766,right
41,1,continuous,26,50,trial,3974319.0,3978770.0,4451.0,26,R,3976734,3977176,444,1426.6,452.3,4774,right
41,1,continuous,26,50,trial,3974319.0,3978770.0,4451.0,26,R,3977242,3977396,156,624.7,520.0,4989,left
41,1,continuous,26,50,trial,3974319.0,3978770.0,4451.0,26,R,3977418,3977764,348,532.4,524.0,4971,left
41,1,continuous,26,50,trial,3974319.0,3978770.0,4451.0,26,R,3977786,3978028,244,555.4,441.9,4782,left
41,1,continuous,26,50,trial,3974319.0,3978770.0,4451.0,26,R,3978096,3978274,180,1453.1,469.2,4407,right
41,1,continuous,26,50,trial,3974319.0,3978770.0,4451.0,26,R,3978294,3978466,174,1439.2,549.0,4445,right
41,1,continuous,26,50,trial,3974319.0,3978770.0,4451.0,26,R,3978478,3978648,172,1456.8,576.9,4621,right
41,1,continuous,26,50,trial,3974319.0,3978770.0,4451.0,26,R,3978724,3978884,162,630.1,676.4,4919,left
41,1,continuous,26,50,trial,3974319.0,3978770.0,4451.0,26,R,3978902,3979004,104,585.7,650.4,4939,left
41,1,continuous,27,50,fixationCross,3979852.0,3982437.0,2585.0,27,R,3979180,3979560,382,799.1,511.9,5067,NA
41,1,continuous,27,50,trial,3979852.0,3982437.0,2585.0,27,R,3979586,3979994,410,960.2,523.8,5409,NA
41,1,continuous,27,50,trial,3979852.0,3982437.0,2585.0,27,R,3980056,3980176,122,484.6,488.6,5520,left
41,1,continuous,27,50,trial,3979852.0,3982437.0,2585.0,27,R,3980198,3980414,218,377.4,504.5,5098,left
41,1,continuous,27,50,trial,3979852.0,3982437.0,2585.0,27,R,3980426,3980550,126,353.4,524.2,4708,left
41,1,continuous,27,50,trial,3979852.0,3982437.0,2585.0,27,R,3980622,3980802,182,1384.5,570.5,4353,right
41,1,continuous,27,50,trial,3979852.0,3982437.0,2585.0,27,R,3980820,3980968,150,1438.3,610.4,4313,right
41,1,continuous,27,50,trial,3979852.0,3982437.0,2585.0,27,R,3980980,3981446,468,1455.4,647.0,4370,right
41,1,continuous,27,50,trial,3979852.0,3982437.0,2585.0,27,R,3981524,3981674,152,442.7,561.4,4644,left
41,1,continuous,27,50,trial,3979852.0,3982437.0,2585.0,27,R,3981696,3981856,162,372.2,513.8,4611,left
41,1,continuous,27,50,trial,3979852.0,3982437.0,2585.0,27,R,3981930,3982110,182,1447.6,613.4,4377,right
41,1,continuous,27,50,trial,3979852.0,3982437.0,2585.0,27,R,3982122,3982374,254,1454.9,646.0,4421,right
41,1,continuous,27,50,postResponse,3979852.0,3982437.0,2585.0,27,R,3982400,3982766,368,1360.8,543.3,4477,right
41,1,continuous,28,50,fixationCross,3984403.0,3986836.0,2433.0,28,R,3982890,3982950,62,1016.2,427.3,4568,NA
41,1,continuous,28,50,fixationCross,3984403.0,3986836.0,2433.0,28,R,3983040,3984092,1054,833.3,450.3,5173,NA
41,1,continuous,28,50,fixationCross,3984403.0,3986836.0,2433.0,28,R,3984114,3984252,140,950.3,499.6,5121,NA
41,1,continuous,28,50,trial,3984403.0,3986836.0,2433.0,28,R,3984266,3984572,308,976.5,538.2,5356,NA
41,1,continuous,28,50,trial,3984403.0,3986836.0,2433.0,28,R,3984634,3984882,250,516.0,498.6,5649,left
41,1,continuous,28,50,trial,3984403.0,3986836.0,2433.0,28,R,3984954,3985120,168,1371.4,522.8,4713,right
41,1,continuous,28,50,trial,3984403.0,3986836.0,2433.0,28,R,3985134,3985410,278,1317.6,541.2,4544,right
41,1,continuous,28,50,trial,3984403.0,3986836.0,2433.0,28,R,3985448,3985782,336,1574.4,546.8,4529,right
41,1,continuous,28,50,trial,3984403.0,3986836.0,2433.0,28,R,3985802,3986008,208,1450.7,556.6,4509,right
41,1,continuous,28,50,trial,3984403.0,3986836.0,2433.0,28,R,3986030,3986156,128,1321.8,547.8,4536,right
41,1,continuous,28,50,trial,3984403.0,3986836.0,2433.0,28,R,3986228,3986482,256,447.5,496.6,4720,left
41,1,continuous,28,50,trial,3984403.0,3986836.0,2433.0,28,R,3986502,3987028,528,446.6,437.3,4570,left
41,1,continuous,29,50,fixationCross,3987920.0,3991954.0,4034.0,29,R,3987244,3987594,352,1241.1,616.4,4702,right
41,1,continuous,29,50,trial,3987920.0,3991954.0,4034.0,29,R,3987624,3987988,366,979.4,546.4,5288,NA
41,1,continuous,29,50,trial,3987920.0,3991954.0,4034.0,29,R,3988012,3988114,104,827.7,537.1,5342,NA
41,1,continuous,29,50,trial,3987920.0,3991954.0,4034.0,29,R,3988156,3988444,290,505.7,570.4,5208,left
41,1,continuous,29,50,trial,3987920.0,3991954.0,4034.0,29,R,3988518,3988710,194,1414.7,533.4,4540,right
41,1,continuous,29,50,trial,3987920.0,3991954.0,4034.0,29,R,3988734,3989296,564,1597.8,599.8,4522,right
41,1,continuous,29,50,trial,3987920.0,3991954.0,4034.0,29,R,3989312,3989464,154,1546.6,625.1,4754,right
41,1,continuous,29,50,trial,3987920.0,3991954.0,4034.0,29,R,3989548,3989780,234,527.7,571.8,5032,left
41,1,continuous,29,50,trial,3987920.0,3991954.0,4034.0,29,R,3989796,3990010,216,468.7,570.9,4900,left
41,1,continuous,29,50,trial,3987920.0,3991954.0,4034.0,29,R,3990028,3990236,210,422.5,515.2,4617,left
41,1,continuous,29,50,trial,3987920.0,3991954.0,4034.0,29,R,3990250,3990450,202,461.8,532.5,4526,left
41,1,continuous,29,50,trial,3987920.0,3991954.0,4034.0,29,R,3990524,3990772,250,1379.9,527.5,4466,right
41,1,continuous,29,50,trial,3987920.0,3991954.0,4034.0,29,R,3990842,3991052,212,526.9,599.4,4851,left
41,1,continuous,29,50,trial,3987920.0,3991954.0,4034.0,29,R,3991068,3991346,280,535.5,646.6,4911,left
41,1,continuous,29,50,trial,3987920.0,3991954.0,4034.0,29,R,3991360,3991594,236,580.2,623.7,4776,left
41,1,continuous,29,50,trial,3987920.0,3991954.0,4034.0,29,R,3991602,3991756,156,603.8,634.3,4677,left
41,1,continuous,29,50,trial,3987920.0,3991954.0,4034.0,29,R,3991772,3991976,206,541.4,615.9,4705,left
41,1,continuous,29,50,trial,3987920.0,3991954.0,4034.0,29,R,3991990,3992152,164,541.7,592.0,4703,left
41,1,continuous,30,1,fixationCross,3993037.0,3997053.0,4016.0,30,R,3992362,3992714,354,1180.3,667.1,4686,NA
41,1,continuous,30,1,trial,3993037.0,3997053.0,4016.0,30,R,3992742,3993160,420,966.7,548.9,5198,NA
41,1,continuous,30,1,trial,3993037.0,3997053.0,4016.0,30,R,3993220,3993514,296,530.4,516.6,5197,left
41,1,continuous,30,1,trial,3993037.0,3997053.0,4016.0,30,R,3993532,3993780,250,591.7,531.1,4650,left
41,1,continuous,30,1,trial,3993037.0,3997053.0,4016.0,30,R,3993850,3993980,132,1501.3,558.5,4324,right
41,1,continuous,30,1,trial,3993037.0,3997053.0,4016.0,30,R,3993998,3994238,242,1565.9,590.1,4332,right
41,1,continuous,30,1,trial,3993037.0,3997053.0,4016.0,30,R,3994248,3994410,164,1540.6,570.7,4456,right
41,1,continuous,30,1,trial,3993037.0,3997053.0,4016.0,30,R,3994490,3994732,244,563.0,505.2,4713,left
41,1,continuous,30,1,trial,3993037.0,3997053.0,4016.0,30,R,3994752,3995246,496,503.3,539.0,4676,left
41,1,continuous,30,1,trial,3993037.0,3997053.0,4016.0,30,R,3995262,3995546,286,566.5,544.5,4641,left
41,1,continuous,30,1,trial,3993037.0,3997053.0,4016.0,30,R,3995624,3996142,520,1556.4,575.6,4519,right
41,1,continuous,30,1,trial,3993037.0,3997053.0,4016.0,30,R,3996168,3996518,352,1624.4,698.4,4722,right
41,1,continuous,30,1,trial,3993037.0,3997053.0,4016.0,30,R,3996554,3996714,162,1363.4,590.8,5030,right
41,1,continuous,30,1,trial,3993037.0,3997053.0,4016.0,30,R,3996788,3996928,142,546.5,938.2,5334,NA
41,1,continuous,30,1,trial,3993037.0,3997053.0,4016.0,30,R,3996948,3997238,292,473.1,977.0,5307,NA
41,1,continuous,31,50,fixationCross,3998070.0,4001003.0,2933.0,31,R,3997462,3997768,308,1208.9,541.1,5147,right
41,1,continuous,31,50,trial,3998070.0,4001003.0,2933.0,31,R,3997810,3998218,410,905.3,520.8,5675,NA
41,1,continuous,31,50,trial,3998070.0,4001003.0,2933.0,31,R,3998270,3998386,118,559.6,573.6,5774,left
41,1,continuous,31,50,trial,3998070.0,4001003.0,2933.0,31,R,3998412,3998592,182,428.5,584.0,5438,left
41,1,continuous,31,50,trial,3998070.0,4001003.0,2933.0,31,R,3998604,3998772,170,425.5,561.0,4968,left
41,1,continuous,31,50,trial,3998070.0,4001003.0,2933.0,31,R,3998798,3998884,88,599.7,624.7,4685,left
41,1,continuous,31,50,trial,3998070.0,4001003.0,2933.0,31,R,3998948,3999218,272,1409.1,511.2,4360,right
41,1,continuous,31,50,trial,3998070.0,4001003.0,2933.0,31,R,3999236,3999560,326,1494.2,478.0,4495,right
41,1,continuous,31,50,trial,3998070.0,4001003.0,2933.0,31,R,3999576,3999796,222,1557.9,484.8,4555,right
41,1,continuous,31,50,trial,3998070.0,4001003.0,2933.0,31,R,3999822,3999996,176,1462.5,589.7,4672,right
41,1,continuous,31,50,trial,3998070.0,4001003.0,2933.0,31,R,4000012,4000314,304,1515.7,598.1,4816,right
41,1,continuous,31,50,trial,3998070.0,4001003.0,2933.0,31,R,4000394,4000530,138,516.6,569.4,5182,left
41,1,continuous,31,50,trial,3998070.0,4001003.0,2933.0,31,R,4000550,4000716,168,419.2,579.6,5185,left
41,1,continuous,31,50,trial,3998070.0,4001003.0,2933.0,31,R,4000730,4000850,122,427.8,553.5,4985,left
41,1,continuous,31,50,trial,3998070.0,4001003.0,2933.0,31,R,4000874,4001176,304,570.4,633.0,4716,left
41,1,continuous,32,40,fixationCross,4003270.0,4007586.0,4316.0,32,R,4001440,4001654,216,1025.8,588.4,4679,NA
41,1,continuous,32,40,fixationCross,4003270.0,4007586.0,4316.0,32,R,4001702,4003008,1308,717.4,494.8,5379,left
41,1,continuous,32,40,trial,4003270.0,4007586.0,4316.0,32,R,4003040,4003418,380,957.8,542.2,5427,NA
41,1,continuous,32,40,trial,4003270.0,4007586.0,4316.0,32,R,4003460,4003610,152,636.8,474.9,5588,left
41,1,continuous,32,40,trial,4003270.0,4007586.0,4316.0,32,R,4003628,4004180,554,618.6,435.4,5107,left
41,1,continuous,32,40,trial,4003270.0,4007586.0,4316.0,32,R,4004250,4004428,180,1499.8,472.5,4676,right
41,1,continuous,32,40,trial,4003270.0,4007586.0,4316.0,32,R,4004452,4004988,538,1487.1,390.2,4612,right
41,1,continuous,32,40,trial,4003270.0,4007586.0,4316.0,32,R,4005024,4005280,258,1486.5,626.5,4564,right
41,1,continuous,32,40,trial,4003270.0,4007586.0,4316.0,32,R,4005294,4005430,138,1505.6,682.5,4720,right
41,1,continuous,32,40,trial,4003270.0,4007586.0,4316.0,32,R,4005506,4005718,214,601.6,446.5,5036,left
41,1,continuous,32,40,trial,4003270.0,4007586.0,4316.0,32,R,4005732,4006562,832,625.0,432.5,5048,left
41,1,continuous,32,40,trial,4003270.0,4007586.0,4316.0,32,R,4006636,4006820,186,1483.1,444.0,5139,right
41,1,continuous,32,40,trial,4003270.0,4007586.0,4316.0,32,R,4006838,4007382,546,1485.6,391.4,4872,right
41,1,continuous,32,40,trial,4003270.0,4007586.0,4316.0,32,R,4007398,4007780,384,1446.7,444.1,4782,right
41,1,continuous,33,1,fixationCross,4008837.0,4013620.0,4783.0,33,R,4008038,4008134,98,1107.5,548.5,5020,NA
41,1,continuous,33,1,fixationCross,4008837.0,4013620.0,4783.0,33,R,4008294,4008500,208,1633.6,673.9,5291,right
41,1,continuous,33,1,trial,4008837.0,4013620.0,4783.0,33,R,4008570,4008978,410,889.7,552.7,5504,NA
41,1,continuous,33,1,trial,4008837.0,4013620.0,4783.0,33,R,4009022,4009260,240,532.5,504.0,5254,left
41,1,continuous,33,1,trial,4008837.0,4013620.0,4783.0,33,R,4009332,4009470,140,1539.1,478.2,4578,right
41,1,continuous,33,1,trial,4008837.0,4013620.0,4783.0,33,R,4009486,4009706,222,1598.3,498.5,4371,right
41,1,continuous,33,1,trial,4008837.0,4013620.0,4783.0,33,R,4009718,4009922,206,1639.2,525.1,4372,right
41,1,continuous,33,1,trial,4008837.0,4013620.0,4783.0,33,R,4009936,4010126,192,1606.4,497.8,4459,right
41,1,continuous,33,1,trial,4008837.0,4013620.0,4783.0,33,R,4010136,4010514,380,1630.7,521.6,4462,right
41,1,continuous,33,1,trial,4008837.0,4013620.0,4783.0,33,R,4010598,4010808,212,541.6,481.5,4820,left
41,1,continuous,33,1,trial,4008837.0,4013620.0,4783.0,33,R,4010824,4010980,158,491.2,485.8,4808,left
41,1,continuous,33,1,trial,4008837.0,4013620.0,4783.0,33,R,4011000,4011396,398,418.7,453.2,4606,left
41,1,continuous,33,1,trial,4008837.0,4013620.0,4783.0,33,R,4011414,4011736,324,499.1,471.8,4538,left
41,1,continuous,33,1,trial,4008837.0,4013620.0,4783.0,33,R,4011764,4012044,282,367.0,588.7,4767,left
41,1,continuous,33,1,trial,4008837.0,4013620.0,4783.0,33,R,4012066,4012168,104,467.8,492.2,4901,left
41,1,continuous,33,1,trial,4008837.0,4013620.0,4783.0,33,R,4012246,4012402,158,1478.7,507.9,4748,right
41,1,continuous,33,1,trial,4008837.0,4013620.0,4783.0,33,R,4012426,4012628,204,1575.1,527.4,4683,right
41,1,continuous,33,1,trial,4008837.0,4013620.0,4783.0,33,R,4012646,4012860,216,1592.4,485.0,4625,right
41,1,continuous,33,1,trial,4008837.0,4013620.0,4783.0,33,R,4012940,4013048,110,716.9,932.0,4892,NA
41,1,continuous,33,1,trial,4008837.0,4013620.0,4783.0,33,R,4013084,4013606,524,479.7,972.5,5208,NA
41,1,continuous,33,1,trial,4008837.0,4013620.0,4783.0,33,R,4013690,4013890,202,1588.6,534.8,5052,right
41,1,continuous,34,100,fixationCross,4014953.0,4019337.0,4384.0,34,R,4014060,4014248,190,1429.8,526.8,5177,right
41,1,continuous,34,100,fixationCross,4014953.0,4019337.0,4384.0,34,R,4014320,4014700,382,781.0,510.7,5616,NA
41,1,continuous,34,100,trial,4014953.0,4019337.0,4384.0,34,R,4014724,4015082,360,943.2,499.3,5467,NA
41,1,continuous,34,100,trial,4014953.0,4019337.0,4384.0,34,R,4015140,4015298,160,537.8,511.0,5588,left
41,1,continuous,34,100,trial,4014953.0,4019337.0,4384.0,34,R,4015320,4015532,214,483.9,609.8,5262,left
41,1,continuous,34,100,trial,4014953.0,4019337.0,4384.0,34,R,4015554,4015722,170,431.1,511.5,5042,left
41,1,continuous,34,100,trial,4014953.0,4019337.0,4384.0,34,R,4015746,4016000,256,449.5,424.8,4837,left
41,1,continuous,34,100,trial,4014953.0,4019337.0,4384.0,34,R,4016020,4016188,170,361.4,437.7,4663,left
41,1,continuous,34,100,trial,4014953.0,4019337.0,4384.0,34,R,4016226,4016540,316,532.1,633.5,4636,left
41,1,continuous,34,100,trial,4014953.0,4019337.0,4384.0,34,R,4016562,4016712,152,417.9,665.8,4825,left
41,1,continuous,34,100,trial,4014953.0,4019337.0,4384.0,34,R,4016784,4017034,252,1334.7,468.0,4622,right
41,1,continuous,34,100,trial,4014953.0,4019337.0,4384.0,34,R,4017066,4017450,386,1589.2,533.2,4502,right
41,1,continuous,34,100,trial,4014953.0,4019337.0,4384.0,34,R,4017486,4017622,138,1324.1,470.1,4435,right
41,1,continuous,34,100,trial,4014953.0,4019337.0,4384.0,34,R,4017638,4018002,366,1306.4,417.8,4424,right
41,1,continuous,34,100,trial,4014953.0,4019337.0,4384.0,34,R,4018018,4018292,276,1320.2,468.4,4508,right
41,1,continuous,34,100,trial,4014953.0,4019337.0,4384.0,34,R,4018366,4018598,234,437.8,555.7,4812,left
41,1,continuous,34,100,trial,4014953.0,4019337.0,4384.0,34,R,4018620,4018788,170,510.6,617.2,4838,left
41,1,continuous,34,100,trial,4014953.0,4019337.0,4384.0,34,R,4018814,4019316,504,416.8,470.7,4935,left
41,1,continuous,34,100,trial,4014953.0,4019337.0,4384.0,34,R,4019340,4019558,220,450.0,609.9,5000,left
41,1,continuous,35,100,fixationCross,4020337.0,4024171.0,3834.0,35,R,4019750,4020024,276,1221.1,626.7,5140,right
41,1,continuous,35,100,trial,4020337.0,4024171.0,3834.0,35,R,4020074,4020492,420,870.3,519.8,5458,NA
41,1,continuous,35,100,trial,4020337.0,4024171.0,3834.0,35,R,4020532,4020750,220,575.2,502.4,5395,left
41,1,continuous,35,100,trial,4020337.0,4024171.0,3834.0,35,R,4020768,4020958,192,576.3,447.6,4788,left
41,1,continuous,35,100,trial,4020337.0,4024171.0,3834.0,35,R,4021022,4021202,182,1291.3,566.2,4350,right
41,1,continuous,35,100,trial,4020337.0,4024171.0,3834.0,35,R,4021218,4021942,726,1253.4,636.7,4387,right
41,1,continuous,35,100,trial,4020337.0,4024171.0,3834.0,35,R,4021958,4022234,278,1287.1,603.4,4414,right
41,1,continuous,35,100,trial,4020337.0,4024171.0,3834.0,35,R,4022246,4022428,184,1261.1,636.3,4459,right
41,1,continuous,35,100,trial,4020337.0,4024171.0,3834.0,35,R,4022498,4022746,250,515.7,542.3,4724,left
41,1,continuous,35,100,trial,4020337.0,4024171.0,3834.0,35,R,4022774,4022976,204,499.2,425.6,4798,left
41,1,continuous,35,100,trial,4020337.0,4024171.0,3834.0,35,R,4022996,4023344,350,473.5,489.4,4818,left
41,1,continuous,35,100,trial,4020337.0,4024171.0,3834.0,35,R,4023368,4023502,136,471.6,564.4,4969,left
41,1,continuous,35,100,trial,4020337.0,4024171.0,3834.0,35,R,4023568,4023716,150,1262.4,577.7,4906,right
41,1,continuous,35,100,trial,4020337.0,4024171.0,3834.0,35,R,4023762,4023978,218,1292.0,820.7,5024,NA
41,1,continuous,35,100,trial,4020337.0,4024171.0,3834.0,35,R,4024006,4024158,154,1474.8,931.0,5050,NA
41,1,continuous,35,100,trial,4020337.0,4024171.0,3834.0,35,R,4024202,4024416,216,1320.9,581.8,5136,right
41,1,continuous,36,50,fixationCross,4025237.0,4028270.0,3033.0,36,R,4024578,4024900,324,1209.0,620.6,5195,right
41,1,continuous,36,50,trial,4025237.0,4028270.0,3033.0,36,R,4024936,4025366,432,957.4,556.5,5528,NA
41,1,continuous,36,50,trial,4025237.0,4028270.0,3033.0,36,R,4025422,4025558,138,567.2,538.8,5621,left
41,1,continuous,36,50,trial,4025237.0,4028270.0,3033.0,36,R,4025580,4025684,106,484.1,581.3,5372,left
41,1,continuous,36,50,trial,4025237.0,4028270.0,3033.0,36,R,4025750,4026022,274,1385.4,584.2,4707,right
41,1,continuous,36,50,trial,4025237.0,4028270.0,3033.0,36,R,4026044,4026204,162,1440.1,517.0,4604,right
41,1,continuous,36,50,trial,4025237.0,4028270.0,3033.0,36,R,4026228,4026588,362,1360.5,417.0,4437,right
41,1,continuous,36,50,trial,4025237.0,4028270.0,3033.0,36,R,4026658,4026914,258,536.4,550.6,4562,left
41,1,continuous,36,50,trial,4025237.0,4028270.0,3033.0,36,R,4026936,4027196,262,438.6,606.0,4709,left
41,1,continuous,36,50,trial,4025237.0,4028270.0,3033.0,36,R,4027212,4027452,242,387.2,623.6,4662,left
41,1,continuous,36,50,trial,4025237.0,4028270.0,3033.0,36,R,4027464,4027616,154,424.5,632.6,4636,left
41,1,continuous,36,50,trial,4025237.0,4028270.0,3033.0,36,R,4027640,4027922,284,555.9,595.5,4546,left
41,1,continuous,36,50,trial,4025237.0,4028270.0,3033.0,36,R,4027942,4028180,240,619.3,547.4,4572,left
41,1,continuous,36,50,trial,4025237.0,4028270.0,3033.0,36,R,4028252,4028486,236,979.3,984.4,4626,likertHorizontal
41,1,continuous,37,50,fixationCross,4029570.0,4033421.0,3851.0,37,R,4028678,4028892,216,1327.3,584.1,4727,right
41,1,continuous,37,50,fixationCross,4029570.0,4033421.0,3851.0,37,R,4028958,4029308,352,773.8,578.2,5260,NA
41,1,continuous,37,50,trial,4029570.0,4033421.0,3851.0,37,R,4029334,4029704,372,941.0,558.2,5203,NA
41,1,continuous,37,50,trial,4029570.0,4033421.0,3851.0,37,R,4029760,4029890,132,565.9,537.0,5356,left
41,1,continuous,37,50,trial,4029570.0,4033421.0,3851.0,37,R,4029920,4030132,214,369.0,570.7,5132,left
41,1,continuous,37,50,trial,4029570.0,4033421.0,3851.0,37,R,4030144,4030292,150,327.2,571.1,4881,left
41,1,continuous,37,50,trial,4029570.0,4033421.0,3851.0,37,R,4030370,4030566,198,1446.2,543.9,4376,right
41,1,continuous,37,50,trial,4029570.0,4033421.0,3851.0,37,R,4030590,4030782,194,1580.5,564.4,4240,right
41,1,continuous,37,50,trial,4029570.0,4033421.0,3851.0,37,R,4030804,4031272,470,1461.2,543.5,4174,right
41,1,continuous,37,50,trial,4029570.0,4033421.0,3851.0,37,R,4031284,4031656,374,1430.2,532.2,4118,right
41,1,continuous,37,50,trial,4029570.0,4033421.0,3851.0,37,R,4031678,4031934,258,1561.0,545.5,4097,right
41,1,continuous,37,50,trial,4029570.0,4033421.0,3851.0,37,R,4031958,4032256,300,1434.0,537.4,4191,right
41,1,continuous,37,50,trial,4029570.0,4033421.0,3851.0,37,R,4032336,4032492,158,504.9,553.3,4395,left
41,1,continuous,37,50,trial,4029570.0,4033421.0,3851.0,37,R,4032518,4032682,166,347.3,569.0,4435,left
41,1,continuous,37,50,trial,4029570.0,4033421.0,3851.0,37,R,4032696,4033166,472,307.1,557.6,4390,left
41,1,continuous,37,50,trial,4029570.0,4033421.0,3851.0,37,R,4033190,4033344,156,466.3,559.7,4410,left
41,1,continuous,37,50,trial,4029570.0,4033421.0,3851.0,37,R,4033422,4033652,232,1415.5,531.7,4468,right
41,1,continuous,38,1,fixationCross,4034954.0,4038254.0,3300.0,38,R,4033854,4034118,266,1468.3,580.2,4686,right
41,1,continuous,38,1,fixationCross,4034954.0,4038254.0,3300.0,38,R,4034186,4034710,526,827.5,526.4,5134,NA
41,1,continuous,38,1,trial,4034954.0,4038254.0,3300.0,38,R,4034728,4035106,380,913.1,510.7,5212,NA
41,1,continuous,38,1,trial,4034954.0,4038254.0,3300.0,38,R,4035148,4035302,156,587.5,519.4,5402,left
41,1,continuous,38,1,trial,4034954.0,4038254.0,3300.0,38,R,4035316,4035966,652,546.2,554.3,4605,left
41,1,continuous,38,1,trial,4034954.0,4038254.0,3300.0,38,R,4035980,4036152,174,613.2,567.4,4237,left
41,1,continuous,38,1,trial,4034954.0,4038254.0,3300.0,38,R,4036222,4036412,192,1378.6,539.3,4061,right
41,1,continuous,38,1,trial,4034954.0,4038254.0,3300.0,38,R,4036482,4036690,210,568.4,545.8,4246,left
41,1,continuous,38,1,trial,4034954.0,4038254.0,3300.0,38,R,4036728,4037074,348,311.7,633.4,4462,left
41,1,continuous,38,1,trial,4034954.0,4038254.0,3300.0,38,R,4037150,4037646,498,1413.8,556.3,4291,right
41,1,continuous,38,1,trial,4034954.0,4038254.0,3300.0,38,R,4037670,4038166,498,1543.5,596.7,4625,right
41,1,continuous,38,1,trial,4034954.0,4038254.0,3300.0,38,R,4038192,4038432,242,1393.0,576.8,4728,right
41,1,continuous,39,9,fixationCross,4039504.0,4048504.0,9000.0,39,R,4038664,4038690,28,615.8,806.5,5012,NA
41,1,continuous,39,9,fixationCross,4039504.0,4048504.0,9000.0,39,R,4038876,4039198,324,809.5,650.5,5319,NA
41,1,continuous,39,9,trial,4039504.0,4048504.0,9000.0,39,R,4039222,4039636,416,933.0,527.4,5203,NA
41,1,continuous,39,9,trial,4039504.0,4048504.0,9000.0,39,R,4039682,4039872,192,519.7,531.0,5140,left
41,1,continuous,39,9,trial,4039504.0,4048504.0,9000.0,39,R,4039892,4040018,128,430.0,563.4,5032,left
41,1,continuous,39,9,trial,4039504.0,4048504.0,9000.0,39,R,4040090,4040238,150,1459.9,523.2,4677,right
41,1,continuous,39,9,trial,4039504.0,4048504.0,9000.0,39,R,4040258,4040564,308,1538.4,507.1,4569,right
41,1,continuous,39,9,trial,4039504.0,4048504.0,9000.0,39,R,4040590,4040728,140,1395.1,492.0,4595,right
41,1,continuous,39,9,trial,4039504.0,4048504.0,9000.0,39,R,4040802,4040996,196,496.7,580.2,4856,left
41,1,continuous,39,9,trial,4039504.0,4048504.0,9000.0,39,R,4041016,4041908,894,426.7,582.6,5011,left
41,1,continuous,39,9,trial,4039504.0,4048504.0,9000.0,39,R,4041934,4042320,388,606.2,612.6,5115,left
41,1,continuous,39,9,trial,4039504.0,4048504.0,9000.0,39,R,4042346,4042628,284,420.8,634.7,5083,left
41,1,continuous,39,9,trial,4039504.0,4048504.0,9000.0,39,R,4042708,4042920,214,1482.3,521.5,4747,right
41,1,continuous,39,9,trial,4039504.0,4048504.0,9000.0,39,R,4042938,4043082,146,1541.8,512.3,4602,right
41,1,continuous,39,9,trial,4039504.0,4048504.0,9000.0,39,R,4043110,4043330,222,1378.1,498.9,4535,right
41,1,continuous,39,9,trial,4039504.0,4048504.0,9000.0,39,R,4043340,4043668,330,1349.1,515.8,4499,right
41,1,continuous,39,9,trial,4039504.0,4048504.0,9000.0,39,R,4043692,4043942,252,1440.2,611.3,4555,right
41,1,continuous,39,9,trial,4039504.0,4048504.0,9000.0,39,R,4043966,4044460,496,1543.6,520.9,4648,right
41,1,continuous,39,9,trial,4039504.0,4048504.0,9000.0,39,R,4044484,4044754,272,1405.4,513.9,4654,right
41,1,continuous,39,9,trial,4039504.0,4048504.0,9000.0,39,R,4044828,4045020,194,491.7,552.1,4875,left
41,1,continuous,39,9,trial,4039504.0,4048504.0,9000.0,39,R,4045038,4045382,346,430.6,578.9,4826,left
41,1,continuous,39,9,trial,4039504.0,4048504.0,9000.0,39,R,4045462,4045666,206,1482.8,528.8,4559,right
41,1,continuous,39,9,trial,4039504.0,4048504.0,9000.0,39,R,4045686,4045986,302,1388.6,499.8,4696,right
41,1,continuous,39,9,trial,4039504.0,4048504.0,9000.0,39,R,4046010,4046206,198,1533.4,490.8,4643,right
41,1,continuous,39,9,trial,4039504.0,4048504.0,9000.0,39,R,4046218,4046536,320,1563.0,509.2,4634,right
41,1,continuous,39,9,trial,4039504.0,4048504.0,9000.0,39,R,4046562,4046674,114,1438.7,604.6,4738,right
41,1,continuous,39,9,trial,4039504.0,4048504.0,9000.0,39,R,4046756,4046896,142,619.0,758.7,5137,NA
41,1,continuous,39,9,trial,4039504.0,4048504.0,9000.0,39,R,4046922,4047456,536,438.9,618.8,5048,left
41,1,continuous,39,9,trial,4039504.0,4048504.0,9000.0,39,R,4047472,4047778,308,444.1,583.1,4900,left
41,1,continuous,39,9,trial,4039504.0,4048504.0,9000.0,39,R,4047842,4048084,244,466.8,963.8,5105,NA
41,1,continuous,39,9,trial,4039504.0,4048504.0,9000.0,39,R,4048102,4048284,184,527.6,984.6,5184,NA
41,1,continuous,39,9,trial,4039504.0,4048504.0,9000.0,39,R,4048340,4048534,196,486.3,604.2,5110,left
41,1,continuous,39,9,trial,4039504.0,4048504.0,9000.0,39,R,4048548,4048718,172,449.6,577.1,5069,left
41,1,continuous,40,9,fixationCross,4049621.0,4052187.0,2566.0,40,R,4048928,4049238,312,1624.5,557.5,4820,right
41,1,continuous,40,9,trial,4049621.0,4052187.0,2566.0,40,R,4049296,4049756,462,989.2,520.6,5302,NA
41,1,continuous,40,9,trial,4049621.0,4052187.0,2566.0,40,R,4049814,4049950,138,579.3,531.8,5377,left
41,1,continuous,40,9,trial,4049621.0,4052187.0,2566.0,40,R,4049972,4050158,188,481.3,584.1,4993,left
41,1,continuous,40,9,trial,4049621.0,4052187.0,2566.0,40,R,4050228,4050614,388,1403.2,561.1,4470,right
41,1,continuous,40,9,trial,4049621.0,4052187.0,2566.0,40,R,4050638,4050816,180,1542.6,557.4,4379,right
41,1,continuous,40,9,trial,4049621.0,4052187.0,2566.0,40,R,4050896,4051076,182,522.5,563.6,4568,left
41,1,continuous,40,9,trial,4049621.0,4052187.0,2566.0,40,R,4051094,4051286,194,475.1,597.8,4694,left
41,1,continuous,40,9,trial,4049621.0,4052187.0,2566.0,40,R,4051306,4051566,262,525.3,535.7,4887,left
41,1,continuous,40,9,trial,4049621.0,4052187.0,2566.0,40,R,4051586,4051878,294,475.6,593.6,5013,left
41,1,continuous,40,9,trial,4049621.0,4052187.0,2566.0,40,R,4051928,4052110,184,538.6,973.0,5256,NA
41,1,continuous,40,9,trial,4049621.0,4052187.0,2566.0,40,R,4052166,4052442,278,552.4,524.3,5155,left
41,1,continuous,41,100,fixationCross,4053287.0,4056471.0,3184.0,41,R,4052598,4052976,380,901.8,658.6,5130,NA
41,1,continuous,41,100,trial,4053287.0,4056471.0,3184.0,41,R,4053002,4053408,408,996.6,513.8,5223,NA
41,1,continuous,41,100,trial,4053287.0,4056471.0,3184.0,41,R,4053466,4053624,160,594.4,534.2,5368,left
41,1,continuous,41,100,trial,4053287.0,4056471.0,3184.0,41,R,4053686,4053824,140,1408.2,525.8,4930,right
41,1,continuous,41,100,trial,4053287.0,4056471.0,3184.0,41,R,4053840,4054414,576,1442.8,546.0,4548,right
41,1,continuous,41,100,trial,4053287.0,4056471.0,3184.0,41,R,4054488,4054710,224,513.4,548.6,4483,left
41,1,continuous,41,100,trial,4053287.0,4056471.0,3184.0,41,R,4054728,4054908,182,600.5,543.3,4576,left
41,1,continuous,41,100,trial,4053287.0,4056471.0,3184.0,41,R,4054918,4055082,166,613.7,520.7,4681,left
41,1,continuous,41,100,trial,4053287.0,4056471.0,3184.0,41,R,4055120,4055338,220,358.9,590.5,4805,left
41,1,continuous,41,100,trial,4053287.0,4056471.0,3184.0,41,R,4055352,4055492,142,377.5,632.6,4966,left
41,1,continuous,41,100,trial,4053287.0,4056471.0,3184.0,41,R,4055568,4055726,160,1405.9,902.1,4941,NA
41,1,continuous,41,100,trial,4053287.0,4056471.0,3184.0,41,R,4055746,4055922,178,1484.9,960.5,4936,NA
41,1,continuous,41,100,trial,4053287.0,4056471.0,3184.0,41,R,4055974,4056190,218,1465.8,564.3,5004,right
41,1,continuous,41,100,trial,4053287.0,4056471.0,3184.0,41,R,4056202,4056688,488,1445.5,549.4,4811,right
41,1,continuous,42,90,fixationCross,4057604.0,4062154.0,4550.0,42,R,4056878,4057012,136,2137.3,803.8,4510,NA
41,1,continuous,42,90,fixationCross,4057604.0,4062154.0,4550.0,42,R,4057080,4057256,178,1361.3,708.6,4954,right
41,1,continuous,42,90,trial,4057604.0,4062154.0,4550.0,42,R,4057316,4057730,416,979.3,544.9,5062,NA
41,1,continuous,42,90,trial,4057604.0,4062154.0,4550.0,42,R,4057788,4057950,164,566.7,555.5,5422,left
41,1,continuous,42,90,trial,4057604.0,4062154.0,4550.0,42,R,4057974,4058242,270,434.6,592.9,4919,left
41,1,continuous,42,90,trial,4057604.0,4062154.0,4550.0,42,R,4058264,4058378,116,529.8,597.4,4532,left
41,1,continuous,42,90,trial,4057604.0,4062154.0,4550.0,42,R,4058446,4058730,286,1402.3,540.4,4186,right
41,1,continuous,42,90,trial,4057604.0,4062154.0,4550.0,42,R,4058752,4058918,168,1301.7,484.8,4241,right
41,1,continuous,42,90,trial,4057604.0,4062154.0,4550.0,42,R,4058934,4059192,260,1282.0,432.1,4205,right
41,1,continuous,42,90,trial,4057604.0,4062154.0,4550.0,42,R,4059228,4059512,286,1568.6,529.1,4106,right
41,1,continuous,42,90,trial,4057604.0,4062154.0,4550.0,42,R,4059540,4059694,156,1313.3,485.1,4333,right
41,1,continuous,42,90,trial,4057604.0,4062154.0,4550.0,42,R,4059716,4059866,152,1329.4,585.4,4360,right
41,1,continuous,42,90,trial,4057604.0,4062154.0,4550.0,42,R,4059890,4060118,230,1278.2,440.2,4406,right
41,1,continuous,42,90,trial,4057604.0,4062154.0,4550.0,42,R,4060134,4060420,288,1283.3,407.3,4453,right
41,1,continuous,42,90,trial,4057604.0,4062154.0,4550.0,42,R,4060454,4060620,168,1432.2,573.3,4480,right
41,1,continuous,42,90,trial,4057604.0,4062154.0,4550.0,42,R,4060638,4060716,80,1338.2,589.8,4538,right
41,1,continuous,42,90,trial,4057604.0,4062154.0,4550.0,42,R,4060784,4061002,220,510.8,582.3,4787,left
41,1,continuous,42,90,trial,4057604.0,4062154.0,4550.0,42,R,4061024,4061244,222,396.5,607.5,4771,left
41,1,continuous,42,90,trial,4057604.0,4062154.0,4550.0,42,R,4061266,4061498,234,514.3,604.5,4632,left
41,1,continuous,42,90,trial,4057604.0,4062154.0,4550.0,42,R,4061566,4061746,182,1317.5,628.2,4433,right
41,1,continuous,42,90,trial,4057604.0,4062154.0,4550.0,42,R,4061784,4061982,200,1326.0,891.4,4616,NA
41,1,continuous,42,90,trial,4057604.0,4062154.0,4550.0,42,R,4062014,4062370,358,1398.2,624.1,4832,right
41,1,continuous,43,51,fixationCross,4063488.0,4067371.0,3883.0,43,R,4062590,4063148,560,1312.6,639.0,5243,right
41,1,continuous,43,51,trial,4063488.0,4067371.0,3883.0,43,R,4063204,4063570,368,962.2,610.0,5543,NA
41,1,continuous,43,51,trial,4063488.0,4067371.0,3883.0,43,R,4063584,4063682,100,970.9,585.7,5478,NA
41,1,continuous,43,51,trial,4063488.0,4067371.0,3883.0,43,R,4063744,4063868,126,527.3,550.1,5583,left
41,1,continuous,43,51,trial,4063488.0,4067371.0,3883.0,43,R,4063940,4064054,116,1004.6,997.7,5303,likertHorizontal
41,1,continuous,43,51,trial,4063488.0,4067371.0,3883.0,43,R,4064106,4064330,226,1476.9,1023.1,5085,NA
41,1,continuous,43,51,trial,4063488.0,4067371.0,3883.0,43,R,4064340,4064452,114,1499.5,1029.8,5181,NA
41,1,continuous,43,51,trial,4063488.0,4067371.0,3883.0,43,R,4064536,4064696,162,541.2,1034.0,5498,NA
41,1,continuous,43,51,trial,4063488.0,4067371.0,3883.0,43,R,4064752,4064994,244,510.2,535.4,5295,left
41,1,continuous,43,51,trial,4063488.0,4067371.0,3883.0,43,R,4065064,4065222,160,1445.6,534.8,4771,right
41,1,continuous,43,51,trial,4063488.0,4067371.0,3883.0,43,R,4065242,4065694,454,1506.9,551.8,4692,right
41,1,continuous,43,51,trial,4063488.0,4067371.0,3883.0,43,R,4065774,4066152,380,503.6,543.8,4892,left
41,1,continuous,43,51,trial,4063488.0,4067371.0,3883.0,43,R,4066172,4066378,208,395.6,527.0,4780,left
41,1,continuous,43,51,trial,4063488.0,4067371.0,3883.0,43,R,4066456,4066640,186,1474.4,571.7,4471,right
41,1,continuous,43,51,trial,4063488.0,4067371.0,3883.0,43,R,4066654,4066820,168,1514.9,558.0,4474,right
41,1,continuous,43,51,trial,4063488.0,4067371.0,3883.0,43,R,4066842,4067126,286,1395.4,537.8,4605,right
41,1,continuous,43,51,trial,4063488.0,4067371.0,3883.0,43,R,4067202,4067546,346,517.1,535.6,4738,left
41,1,continuous,44,90,fixationCross,4068387.0,4070404.0,2017.0,44,R,4067778,4068066,290,1255.8,636.5,4599,right
41,1,continuous,44,90,trial,4068387.0,4070404.0,2017.0,44,R,4068122,4068538,418,867.9,541.0,5103,NA
41,1,continuous,44,90,trial,4068387.0,4070404.0,2017.0,44,R,4068590,4068744,156,543.3,561.3,5227,left
41,1,continuous,44,90,trial,4068387.0,4070404.0,2017.0,44,R,4068764,4069004,242,474.3,580.9,4832,left
41,1,continuous,44,90,trial,4068387.0,4070404.0,2017.0,44,R,4069076,4069308,234,1435.5,482.8,4319,right
41,1,continuous,44,90,trial,4068387.0,4070404.0,2017.0,44,R,4069322,4070192,872,1404.5,525.4,4558,right
41,1,continuous,44,90,trial,4068387.0,4070404.0,2017.0,44,R,4070220,4070322,104,1525.2,646.7,4809,right
41,1,continuous,44,90,trial,4068387.0,4070404.0,2017.0,44,R,4070400,4070634,236,510.2,606.7,5170,left
41,1,continuous,45,56,fixationCross,4071754.0,4077188.0,5434.0,45,R,4070842,4071416,576,1470.1,724.5,4969,right
41,1,continuous,45,56,trial,4071754.0,4077188.0,5434.0,45,R,4071478,4071880,404,892.2,534.5,5225,NA
41,1,continuous,45,56,trial,4071754.0,4077188.0,5434.0,45,R,4071928,4072146,220,508.3,526.3,5351,left
41,1,continuous,45,56,trial,4071754.0,4077188.0,5434.0,45,R,4072166,4072360,196,423.0,542.3,5032,left
41,1,continuous,45,56,trial,4071754.0,4077188.0,5434.0,45,R,4072384,4072620,238,423.9,679.8,4767,left
41,1,continuous,45,56,trial,4071754.0,4077188.0,5434.0,45,R,4072636,4072838,204,478.9,700.9,4770,left
41,1,continuous,45,56,trial,4071754.0,4077188.0,5434.0,45,R,4072916,4073540,626,1478.9,588.0,4598,right
41,1,continuous,45,56,trial,4071754.0,4077188.0,5434.0,45,R,4073562,4073738,178,1430.8,650.1,4569,right
41,1,continuous,45,56,trial,4071754.0,4077188.0,5434.0,45,R,4073768,4073968,202,1289.6,491.3,4630,right
41,1,continuous,45,56,trial,4071754.0,4077188.0,5434.0,45,R,4073994,4074374,382,1483.3,569.1,4659,right
41,1,continuous,45,56,trial,4071754.0,4077188.0,5434.0,45,R,4074464,4074754,292,442.9,586.2,4978,left
41,1,continuous,45,56,trial,4071754.0,4077188.0,5434.0,45,R,4074772,4074996,226,415.2,521.8,4847,left
41,1,continuous,45,56,trial,4071754.0,4077188.0,5434.0,45,R,4075022,4075210,190,436.8,662.2,4811,left
41,1,continuous,45,56,trial,4071754.0,4077188.0,5434.0,45,R,4075224,4075652,430,482.5,701.9,4913,left
41,1,continuous,45,56,trial,4071754.0,4077188.0,5434.0,45,R,4075714,4075902,190,971.8,948.2,4953,likertHorizontal
41,1,continuous,45,56,trial,4071754.0,4077188.0,5434.0,45,R,4075910,4076052,144,958.4,971.3,5097,likertHorizontal
41,1,continuous,45,56,trial,4071754.0,4077188.0,5434.0,45,R,4076110,4076264,156,415.5,636.7,5133,left
41,1,continuous,45,56,trial,4071754.0,4077188.0,5434.0,45,R,4076338,4076548,212,1446.9,618.0,4848,right
41,1,continuous,45,56,trial,4071754.0,4077188.0,5434.0,45,R,4076564,4076694,132,1474.4,592.1,4829,right
41,1,continuous,45,56,trial,4071754.0,4077188.0,5434.0,45,R,4076742,4077088,348,956.2,957.7,5095,likertHorizontal
41,1,continuous,45,56,trial,4071754.0,4077188.0,5434.0,45,R,4077102,4077400,300,1011.2,985.6,5353,likertHorizontal
41,1,continuous,46,50,fixationCross,4078254.0,4080971.0,2717.0,46,R,4077596,4077934,340,1172.7,583.4,5605,NA
41,1,continuous,46,50,trial,4078254.0,4080971.0,2717.0,46,R,4077966,4078376,412,956.8,565.8,5519,NA
41,1,continuous,46,50,trial,4078254.0,4080971.0,2717.0,46,R,4078436,4078544,110,512.1,535.0,5574,left
41,1,continuous,46,50,trial,4078254.0,4080971.0,2717.0,46,R,4078566,4078984,420,403.2,479.7,5381,left
41,1,continuous,46,50,trial,4078254.0,4080971.0,2717.0,46,R,4079002,4079200,200,405.2,538.1,5091,left
41,1,continuous,46,50,trial,4078254.0,4080971.0,2717.0,46,R,4079216,4079318,104,461.9,565.0,5144,left
41,1,continuous,46,50,trial,4078254.0,4080971.0,2717.0,46,R,4079390,4079814,426,1458.1,544.5,5156,right
41,1,continuous,46,50,trial,4078254.0,4080971.0,2717.0,46,R,4079834,4080096,264,1341.3,593.9,5414,right
41,1,continuous,46,50,trial,4078254.0,4080971.0,2717.0,46,R,4080168,4080302,136,829.3,859.9,5550,likertHorizontal
41,1,continuous,46,50,trial,4078254.0,4080971.0,2717.0,46,R,4080328,4080484,158,971.7,976.2,5477,likertHorizontal
41,1,continuous,46,50,trial,4078254.0,4080971.0,2717.0,46,R,4080554,4080684,132,434.6,519.5,5523,left
41,1,continuous,46,50,trial,4078254.0,4080971.0,2717.0,46,R,4080706,4081142,438,414.2,448.8,5216,left
41,1,continuous,47,35,fixationCross,4083088.0,4086071.0,2983.0,47,R,4081404,4081678,276,1239.6,726.6,4853,right
41,1,continuous,47,35,fixationCross,4083088.0,4086071.0,2983.0,47,R,4081732,4082824,1094,793.7,525.0,5343,NA
41,1,continuous,47,35,trial,4083088.0,4086071.0,2983.0,47,R,4082850,4083220,372,965.0,546.3,5313,NA
41,1,continuous,47,35,trial,4083088.0,4086071.0,2983.0,47,R,4083268,4083384,118,541.0,535.1,5415,left
41,1,continuous,47,35,trial,4083088.0,4086071.0,2983.0,47,R,4083408,4083610,204,403.6,595.3,5169,left
41,1,continuous,47,35,trial,4083088.0,4086071.0,2983.0,47,R,4083622,4083746,126,396.5,626.1,4929,left
41,1,continuous,47,35,trial,4083088.0,4086071.0,2983.0,47,R,4083824,4084066,244,1435.8,582.3,4457,right
41,1,continuous,47,35,trial,4083088.0,4086071.0,2983.0,47,R,4084078,4084490,414,1474.0,608.2,4413,right
41,1,continuous,47,35,trial,4083088.0,4086071.0,2983.0,47,R,4084516,4084642,128,1332.8,493.7,4498,right
41,1,continuous,47,35,trial,4083088.0,4086071.0,2983.0,47,R,4084714,4084854,142,460.7,568.8,4670,left
41,1,continuous,47,35,trial,4083088.0,4086071.0,2983.0,47,R,4084874,4085158,286,390.0,628.1,4661,left
41,1,continuous,47,35,trial,4083088.0,4086071.0,2983.0,47,R,4085178,4085258,82,370.1,557.2,4634,left
41,1,continuous,47,35,trial,4083088.0,4086071.0,2983.0,47,R,4085336,4085586,252,1402.6,545.0,4384,right
41,1,continuous,47,35,trial,4083088.0,4086071.0,2983.0,47,R,4085604,4086060,458,1466.2,600.4,4611,right
41,1,continuous,47,35,trial,4083088.0,4086071.0,2983.0,47,R,4086070,4086288,220,1489.4,618.3,4691,right
41,1,continuous,48,28,fixationCross,4089071.0,4095121.0,6050.0,48,R,4086478,4087050,574,1304.6,662.0,5034,right
41,1,continuous,48,28,fixationCross,4089071.0,4095121.0,6050.0,48,R,4087112,4088820,1710,843.8,528.6,5208,NA
41,1,continuous,48,28,trial,4089071.0,4095121.0,6050.0,48,R,4088840,4089206,368,969.7,554.7,5298,NA
41,1,continuous,48,28,trial,4089071.0,4095121.0,6050.0,48,R,4089260,4089376,118,608.8,548.7,5567,left
41,1,continuous,48,28,trial,4089071.0,4095121.0,6050.0,48,R,4089402,4089636,236,440.4,496.7,5225,left
41,1,continuous,48,28,trial,4089071.0,4095121.0,6050.0,48,R,4089644,4089762,120,413.7,518.3,4844,left
41,1,continuous,48,28,trial,4089071.0,4095121.0,6050.0,48,R,4089782,4089950,170,498.0,559.5,4653,left
41,1,continuous,48,28,trial,4089071.0,4095121.0,6050.0,48,R,4089970,4090138,170,580.9,579.4,4620,left
41,1,continuous,48,28,trial,4089071.0,4095121.0,6050.0,48,R,4090208,4090456,250,1385.0,472.9,4421,right
41,1,continuous,48,28,trial,4089071.0,4095121.0,6050.0,48,R,4090480,4090700,222,1530.2,531.2,4408,right
41,1,continuous,48,28,trial,4089071.0,4095121.0,6050.0,48,R,4090726,4090962,238,1358.7,415.4,4591,right
41,1,continuous,48,28,trial,4089071.0,4095121.0,6050.0,48,R,4090972,4091132,162,1366.8,396.7,4544,right
41,1,continuous,48,28,trial,4089071.0,4095121.0,6050.0,48,R,4091154,4091404,252,1394.8,505.5,4583,right
41,1,continuous,48,28,trial,4089071.0,4095121.0,6050.0,48,R,4091432,4091694,264,1547.5,549.0,4755,right
41,1,continuous,48,28,trial,4089071.0,4095121.0,6050.0,48,R,4091716,4091860,146,1596.5,618.3,4858,right
41,1,continuous,48,28,trial,4089071.0,4095121.0,6050.0,48,R,4091940,4092204,266,565.9,608.7,5098,left
41,1,continuous,48,28,trial,4089071.0,4095121.0,6050.0,48,R,4092218,4092384,168,550.4,578.6,4988,left
41,1,continuous,48,28,trial,4089071.0,4095121.0,6050.0,48,R,4092398,4092652,256,491.1,569.4,4756,left
41,1,continuous,48,28,trial,4089071.0,4095121.0,6050.0,48,R,4092672,4093012,342,405.9,496.6,4561,left
41,1,continuous,48,28,trial,4089071.0,4095121.0,6050.0,48,R,4093034,4093168,136,511.6,545.3,4531,left
41,1,continuous,48,28,trial,4089071.0,4095121.0,6050.0,48,R,4093186,4093488,304,558.3,574.4,4571,left
41,1,continuous,48,28,trial,4089071.0,4095121.0,6050.0,48,R,4093558,4093846,290,1430.5,492.8,4458,right
41,1,continuous,48,28,trial,4089071.0,4095121.0,6050.0,48,R,4093856,4094026,172,1403.1,509.3,4548,right
41,1,continuous,48,28,trial,4089071.0,4095121.0,6050.0,48,R,4094050,4094312,264,1562.6,554.4,4653,right
41,1,continuous,48,28,trial,4089071.0,4095121.0,6050.0,48,R,4094332,4094634,304,1596.0,632.0,4712,right
41,1,continuous,48,28,trial,4089071.0,4095121.0,6050.0,48,R,4094662,4094950,290,1377.2,521.3,4768,right
41,1,continuous,48,28,trial,4089071.0,4095121.0,6050.0,48,R,4094976,4095326,352,1358.0,394.1,4736,right
41,1,continuous,49,50,fixationCross,4097088.0,4103288.0,6200.0,49,R,4095554,4095796,244,1318.0,604.1,4783,right
41,1,continuous,49,50,fixationCross,4097088.0,4103288.0,6200.0,49,R,4095864,4096822,960,825.0,554.1,5074,NA
41,1,continuous,49,50,fixationCross,4097088.0,4103288.0,6200.0,49,R,4096844,4096968,126,932.1,531.3,5091,NA
41,1,continuous,49,50,trial,4097088.0,4103288.0,6200.0,49,R,4096980,4097218,240,962.8,543.7,5166,NA
41,1,continuous,49,50,trial,4097088.0,4103288.0,6200.0,49,R,4097264,4097472,210,601.8,542.2,5317,left
41,1,continuous,49,50,trial,4097088.0,4103288.0,6200.0,49,R,4097492,4097868,378,494.6,559.4,4766,left
41,1,continuous,49,50,trial,4097088.0,4103288.0,6200.0,49,R,4097892,4098136,246,389.5,566.3,4323,left
41,1,continuous,49,50,trial,4097088.0,4103288.0,6200.0,49,R,4098160,4098258,100,546.5,576.3,4196,left
41,1,continuous,49,50,trial,4097088.0,4103288.0,6200.0,49,R,4098324,4098512,190,1393.6,489.4,4042,right
41,1,continuous,49,50,trial,4097088.0,4103288.0,6200.0,49,R,4098536,4098804,270,1430.4,410.5,4112,right
41,1,continuous,49,50,trial,4097088.0,4103288.0,6200.0,49,R,4098826,4099378,554,1539.3,438.3,4247,right
41,1,continuous,49,50,trial,4097088.0,4103288.0,6200.0,49,R,4099392,4099644,254,1589.9,429.3,4461,right
41,1,continuous,49,50,trial,4097088.0,4103288.0,6200.0,49,R,4099668,4099946,280,1423.9,432.8,4676,right
41,1,continuous,49,50,trial,4097088.0,4103288.0,6200.0,49,R,4099960,4100108,150,1376.5,430.4,4751,right
41,1,continuous,49,50,trial,4097088.0,4103288.0,6200.0,49,R,4100130,4100314,186,1278.5,437.9,4739,right
41,1,continuous,49,50,trial,4097088.0,4103288.0,6200.0,49,R,4100384,4100680,298,501.6,520.6,4850,left
41,1,continuous,49,50,trial,4097088.0,4103288.0,6200.0,49,R,4100702,4101008,308,403.2,575.4,4819,left
41,1,continuous,49,50,trial,4097088.0,4103288.0,6200.0,49,R,4101084,4101274,192,1362.3,501.5,4510,right
41,1,continuous,49,50,trial,4097088.0,4103288.0,6200.0,49,R,4101296,4101474,180,1493.0,492.3,4472,right
41,1,continuous,49,50,trial,4097088.0,4103288.0,6200.0,49,R,4101490,4101880,392,1525.3,456.3,4474,right
41,1,continuous,49,50,trial,4097088.0,4103288.0,6200.0,49,R,4101900,4102118,220,1403.3,426.7,4408,right
41,1,continuous,49,50,trial,4097088.0,4103288.0,6200.0,49,R,4102188,4102350,164,977.4,929.0,4691,likertHorizontal
41,1,continuous,49,50,trial,4097088.0,4103288.0,6200.0,49,R,4102408,4102740,334,540.6,597.4,4941,left
41,1,continuous,49,50,trial,4097088.0,4103288.0,6200.0,49,R,4102762,4103046,286,436.8,551.9,4940,left
41,1,continuous,49,50,trial,4097088.0,4103288.0,6200.0,49,R,4103066,4103486,422,337.7,551.6,4854,left
41,1,continuous,50,65,fixationCross,4104338.0,4109104.0,4766.0,50,R,4103696,4104052,358,1079.8,625.4,4695,NA
41,1,continuous,50,65,trial,4104338.0,4109104.0,4766.0,50,R,4104078,4104458,382,954.4,560.9,5017,NA
41,1,continuous,50,65,trial,4104338.0,4109104.0,4766.0,50,R,4104518,4104662,146,530.3,545.3,5176,left
41,1,continuous,50,65,trial,4104338.0,4109104.0,4766.0,50,R,4104684,4104818,136,484.6,613.7,5028,left
41,1,continuous,50,65,trial,4104338.0,4109104.0,4766.0,50,R,4104832,4105394,564,475.0,681.9,4932,left
41,1,continuous,50,65,trial,4104338.0,4109104.0,4766.0,50,R,4105468,4105624,158,1485.2,523.5,4714,right
41,1,continuous,50,65,trial,4104338.0,4109104.0,4766.0,50,R,4105638,4105794,158,1479.8,498.5,4648,right
41,1,continuous,50,65,trial,4104338.0,4109104.0,4766.0,50,R,4105818,4106154,338,1485.2,603.1,4496,right
41,1,continuous,50,65,trial,4104338.0,4109104.0,4766.0,50,R,4106168,4106328,162,1469.6,641.7,4489,right
41,1,continuous,50,65,trial,4104338.0,4109104.0,4766.0,50,R,4106348,4106558,212,1357.8,643.9,4500,right
41,1,continuous,50,65,trial,4104338.0,4109104.0,4766.0,50,R,4106600,4107046,448,1502.6,472.3,4402,right
41,1,continuous,50,65,trial,4104338.0,4109104.0,4766.0,50,R,4107064,4107400,338,1549.4,506.6,4413,right
41,1,continuous,50,65,trial,4104338.0,4109104.0,4766.0,50,R,4107424,4107812,390,1532.7,648.0,4386,right
41,1,continuous,50,65,trial,4104338.0,4109104.0,4766.0,50,R,4107828,4107982,156,1469.2,648.7,4347,right
41,1,continuous,50,65,trial,4104338.0,4109104.0,4766.0,50,R,4108004,4108164,162,1352.6,646.3,4359,right
41,1,continuous,50,65,trial,4104338.0,4109104.0,4766.0,50,R,4108236,4108404,170,541.3,588.2,4572,left
41,1,continuous,50,65,trial,4104338.0,4109104.0,4766.0,50,R,4108426,4108624,200,473.7,663.8,4605,left
41,1,continuous,50,65,trial,4104338.0,4109104.0,4766.0,50,R,4108634,4108974,342,475.3,685.3,4688,left
41,1,continuous,50,65,trial,4104338.0,4109104.0,4766.0,50,R,4108998,4109278,282,493.9,553.8,4667,left
41,1,continuous,50,65,postResponse,4104338.0,4109104.0,4766.0,50,R,4109432,4109456,26,1193.3,549.9,4488,right
41,2,binary,1,2,fixationCross,4239873.0,4253207.0,13334.0,51,R,4239400,4239668,270,1017.4,550.1,5689,NA
41,2,binary,1,2,fixationCross,4239873.0,4253207.0,13334.0,51,R,4239690,4239854,166,959.3,452.6,5670,NA
41,2,binary,1,2,trial,4239873.0,4253207.0,13334.0,51,R,4239876,4240056,182,966.6,542.0,5730,NA
41,2,binary,1,2,trial,4239873.0,4253207.0,13334.0,51,R,4240114,4240394,282,522.8,562.3,5995,left
41,2,binary,1,2,trial,4239873.0,4253207.0,13334.0,51,R,4240410,4240538,130,452.4,569.9,5630,left
41,2,binary,1,2,trial,4239873.0,4253207.0,13334.0,51,R,4240704,4240824,122,442.0,606.5,5035,left
41,2,binary,1,2,trial,4239873.0,4253207.0,13334.0,51,R,4240896,4241248,354,1388.0,605.5,4813,right
41,2,binary,1,2,trial,4239873.0,4253207.0,13334.0,51,R,4241320,4241578,260,471.5,573.6,4704,left
41,2,binary,1,2,trial,4239873.0,4253207.0,13334.0,51,R,4241636,4241758,124,917.9,988.6,4711,likertHorizontal
41,2,binary,1,2,trial,4239873.0,4253207.0,13334.0,51,R,4241770,4241936,168,946.0,999.2,4899,likertHorizontal
41,2,binary,1,2,trial,4239873.0,4253207.0,13334.0,51,R,4241994,4242270,278,458.2,1024.4,5605,NA
