participantNo,block,task,blockTrial,response,trialStage,trialStartTime,trialFinishTime,rt,trial,eye,fixStart,fixEnd,fixLength,fixPosX,fixPosY,dilation,aoi
8,1,binary,1,1,fixationCross,16151939.0,16154456.0,2517.0,1,R,16151397,16151421,26,946.6,892.6,6534,likertHorizontal
8,1,binary,1,1,fixationCross,16151939.0,16154456.0,2517.0,1,R,16151463,16151799,338,938.0,550.7,6600,NA
8,1,binary,1,1,trial,16151939.0,16154456.0,2517.0,1,R,16151813,16152161,350,976.3,514.0,6689,NA
8,1,binary,1,1,trial,16151939.0,16154456.0,2517.0,1,R,16152207,16152357,152,613.6,601.1,6392,left
8,1,binary,1,1,trial,16151939.0,16154456.0,2517.0,1,R,16152403,16152569,168,945.2,910.0,6126,likertHorizontal
8,1,binary,1,1,trial,16151939.0,16154456.0,2517.0,1,R,16152615,16152793,180,494.1,970.0,6005,NA
8,1,binary,1,1,trial,16151939.0,16154456.0,2517.0,1,R,16152851,16153005,156,418.1,490.1,5986,left
8,1,binary,1,1,trial,16151939.0,16154456.0,2517.0,1,R,16153027,16153219,194,523.7,495.3,6097,left
8,1,binary,1,1,trial,16151939.0,16154456.0,2517.0,1,R,16153229,16153331,104,533.3,523.0,6033,left
8,1,binary,1,1,trial,16151939.0,16154456.0,2517.0,1,R,16153395,16153633,240,1423.9,485.7,6062,right
8,1,binary,1,1,trial,16151939.0,16154456.0,2517.0,1,R,16153703,16153857,156,463.9,519.1,5598,left
8,1,binary,1,1,trial,16151939.0,16154456.0,2517.0,1,R,16153867,16154387,522,502.1,527.8,5370,left
8,1,binary,1,1,trial,16151939.0,16154456.0,2517.0,1,R,16154411,16154701,292,365.4,514.9,5259,left
8,1,binary,1,1,postResponse,16151939.0,16154456.0,2517.0,1,R,16154741,16154825,86,656.7,524.1,5390,left
8,1,binary,2,2,fixationCross,16155673.0,16157556.0,1883.0,2,R,16154899,16154953,56,650.5,530.1,5462,left
8,1,binary,2,2,fixationCross,16155673.0,16157556.0,1883.0,2,R,16154987,16155463,478,891.8,557.1,5763,NA
8,1,binary,2,2,fixationCross,16155673.0,16157556.0,1883.0,2,R,16155473,16155627,156,911.8,533.4,6000,NA
8,1,binary,2,2,trial,16155673.0,16157556.0,1883.0,2,R,16155639,16155845,208,955.5,536.4,6070,NA
8,1,binary,2,2,trial,16155673.0,16157556.0,1883.0,2,R,16155893,16156107,216,590.8,522.9,5795,left
8,1,binary,2,2,trial,16155673.0,16157556.0,1883.0,2,R,16156165,16156469,306,1332.5,554.2,5513,right
8,1,binary,2,2,trial,16155673.0,16157556.0,1883.0,2,R,16156489,16156589,102,1426.7,559.8,5445,right
8,1,binary,2,2,trial,16155673.0,16157556.0,1883.0,2,R,16156657,16156911,256,563.7,524.8,5228,left
8,1,binary,2,2,trial,16155673.0,16157556.0,1883.0,2,R,16156957,16157063,108,448.1,979.2,5339,NA
8,1,binary,2,2,trial,16155673.0,16157556.0,1883.0,2,R,16157125,16157473,350,1284.5,741.1,5507,NA
8,1,binary,2,2,postResponse,16155673.0,16157556.0,1883.0,2,R,16157515,16157905,392,1422.5,545.2,5735,right
8,1,binary,3,2,fixationCross,16158456.0,16160973.0,2517.0,3,R,16157979,16157993,16,1414.3,553.3,5826,right
8,1,binary,3,2,fixationCross,16158456.0,16160973.0,2517.0,3,R,16158041,16158337,298,1021.1,531.6,5950,NA
8,1,binary,3,2,trial,16158456.0,16160973.0,2517.0,3,R,16158357,16158617,262,943.9,554.0,6178,NA
8,1,binary,3,2,trial,16158456.0,16160973.0,2517.0,3,R,16158661,16158823,164,577.7,488.7,6000,left
8,1,binary,3,2,trial,16158456.0,16160973.0,2517.0,3,R,16158853,16159013,162,387.2,542.7,5371,left
8,1,binary,3,2,trial,16158456.0,16160973.0,2517.0,3,R,16159045,16159285,242,547.0,515.4,5074,left
8,1,binary,3,2,trial,16158456.0,16160973.0,2517.0,3,R,16159349,16159555,208,1414.4,603.9,5113,right
8,1,binary,3,2,trial,16158456.0,16160973.0,2517.0,3,R,16159573,16159811,240,1341.3,572.2,5145,right
8,1,binary,3,2,trial,16158456.0,16160973.0,2517.0,3,R,16159831,16160001,172,1422.0,593.8,5132,right
8,1,binary,3,2,trial,16158456.0,16160973.0,2517.0,3,R,16160073,16160307,236,554.5,505.0,4883,left
8,1,binary,3,2,trial,16158456.0,16160973.0,2517.0,3,R,16160315,16160509,196,532.1,491.7,4876,left
8,1,binary,3,2,trial,16158456.0,16160973.0,2517.0,3,R,16160579,16160893,316,1308.4,712.3,5142,right
8,1,binary,3,2,trial,16158456.0,16160973.0,2517.0,3,R,16160919,16161289,372,1328.5,581.8,5211,right
8,1,binary,4,1,fixationCross,16162072.0,16164489.0,2417.0,4,R,16161423,16161759,338,770.6,563.2,5380,NA
8,1,binary,4,1,trial,16162072.0,16164489.0,2417.0,4,R,16161785,16162235,452,930.2,564.0,5841,NA
8,1,binary,4,1,trial,16162072.0,16164489.0,2417.0,4,R,16162283,16162461,180,525.4,531.5,5779,left
8,1,binary,4,1,trial,16162072.0,16164489.0,2417.0,4,R,16162499,16162631,134,270.0,578.9,5306,left
8,1,binary,4,1,trial,16162072.0,16164489.0,2417.0,4,R,16162693,16162857,166,1151.5,605.4,5368,NA
8,1,binary,4,1,trial,16162072.0,16164489.0,2417.0,4,R,16162881,16163091,212,1284.2,584.1,5334,right
8,1,binary,4,1,trial,16162072.0,16164489.0,2417.0,4,R,16163111,16163293,184,1365.5,577.0,5486,right
8,1,binary,4,1,trial,16162072.0,16164489.0,2417.0,4,R,16163367,16163711,346,453.5,520.5,5322,left
8,1,binary,4,1,trial,16162072.0,16164489.0,2417.0,4,R,16163765,16164197,434,848.8,966.2,5470,likertHorizontal
8,1,binary,4,1,trial,16162072.0,16164489.0,2417.0,4,R,16164243,16164367,126,460.7,972.2,5591,NA
8,1,binary,4,1,trial,16162072.0,16164489.0,2417.0,4,R,16164413,16164771,360,454.1,579.3,5633,left
8,1,binary,4,1,postResponse,16162072.0,16164489.0,2417.0,4,R,16164801,16164849,50,694.5,520.6,5659,left
8,1,binary,5,2,fixationCross,16165606.0,16171440.0,5834.0,5,R,16164923,16165295,374,689.2,516.8,5736,left
8,1,binary,5,2,trial,16165606.0,16171440.0,5834.0,5,R,16165329,16165795,468,955.8,533.8,6087,NA
8,1,binary,5,2,trial,16165606.0,16171440.0,5834.0,5,R,16165847,16166033,188,448.6,549.3,5762,left
8,1,binary,5,2,trial,16165606.0,16171440.0,5834.0,5,R,16166093,16166309,218,1330.5,522.6,5287,right
8,1,binary,5,2,trial,16165606.0,16171440.0,5834.0,5,R,16166329,16166591,264,1408.0,520.0,5150,right
8,1,binary,5,2,trial,16165606.0,16171440.0,5834.0,5,R,16166663,16167035,374,440.6,582.3,5149,left
8,1,binary,5,2,trial,16165606.0,16171440.0,5834.0,5,R,16167045,16167213,170,425.9,588.6,5266,left
8,1,binary,5,2,trial,16165606.0,16171440.0,5834.0,5,R,16167243,16167477,236,422.9,484.3,5227,left
8,1,binary,5,2,trial,16165606.0,16171440.0,5834.0,5,R,16167493,16167791,300,452.5,458.9,5171,left
8,1,binary,5,2,trial,16165606.0,16171440.0,5834.0,5,R,16167807,16168185,380,378.3,432.6,5121,left
8,1,binary,5,2,trial,16165606.0,16171440.0,5834.0,5,R,16168217,16168327,112,376.3,585.6,5118,left
8,1,binary,5,2,trial,16165606.0,16171440.0,5834.0,5,R,16168391,16168555,166,1336.0,516.8,5491,right
8,1,binary,5,2,trial,16165606.0,16171440.0,5834.0,5,R,16168575,16168975,402,1405.0,460.9,5705,right
8,1,binary,5,2,trial,16165606.0,16171440.0,5834.0,5,R,16169033,16169197,166,1398.5,1011.8,5943,NA
8,1,binary,5,2,trial,16165606.0,16171440.0,5834.0,5,R,16169259,16169359,102,682.6,862.8,5853,NA
8,1,binary,5,2,trial,16165606.0,16171440.0,5834.0,5,R,16169407,16169649,244,437.5,584.5,5775,left
8,1,binary,5,2,trial,16165606.0,16171440.0,5834.0,5,R,16169661,16169901,242,434.7,565.2,5739,left
8,1,binary,5,2,trial,16165606.0,16171440.0,5834.0,5,R,16169927,16170121,196,443.4,474.7,5476,left
8,1,binary,5,2,trial,16165606.0,16171440.0,5834.0,5,R,16170141,16170407,268,506.6,436.5,5327,left
8,1,binary,5,2,trial,16165606.0,16171440.0,5834.0,5,R,16170435,16170619,186,369.5,596.3,5246,left
8,1,binary,5,2,trial,16165606.0,16171440.0,5834.0,5,R,16170693,16170891,200,1380.6,554.3,5413,right
8,1,binary,5,2,trial,16165606.0,16171440.0,5834.0,5,R,16170959,16171671,714,432.3,552.2,5421,left
8,1,binary,5,2,postResponse,16165606.0,16171440.0,5834.0,5,R,16171707,16171775,70,663.2,543.9,5617,left
8,1,binary,6,2,fixationCross,16172340.0,16175922.0,3582.0,6,R,16171877,16171947,72,656.2,541.7,5682,left
8,1,binary,6,2,fixationCross,16172340.0,16175922.0,3582.0,6,R,16171983,16172267,286,890.3,553.3,5903,NA
8,1,binary,6,2,trial,16172340.0,16175922.0,3582.0,6,R,16172283,16172411,130,946.7,566.7,6084,NA
8,1,binary,6,2,trial,16172340.0,16175922.0,3582.0,6,R,16172545,16172665,122,622.9,484.9,6063,left
8,1,binary,6,2,trial,16172340.0,16175922.0,3582.0,6,R,16172695,16172877,184,439.9,483.6,5649,left
8,1,binary,6,2,trial,16172340.0,16175922.0,3582.0,6,R,16173063,16173093,32,1346.6,536.0,5711,right
8,1,binary,6,2,trial,16172340.0,16175922.0,3582.0,6,R,16173103,16173383,282,1360.2,565.4,5540,right
8,1,binary,6,2,trial,16172340.0,16175922.0,3582.0,6,R,16173399,16173593,196,1380.1,529.0,5450,right
8,1,binary,6,2,trial,16172340.0,16175922.0,3582.0,6,R,16173667,16173875,210,320.7,490.9,5200,left
8,1,binary,6,2,trial,16172340.0,16175922.0,3582.0,6,R,16173889,16174309,422,400.8,505.0,5223,left
8,1,binary,6,2,trial,16172340.0,16175922.0,3582.0,6,R,16174325,16174481,158,457.3,519.2,5255,left
8,1,binary,6,2,trial,16172340.0,16175922.0,3582.0,6,R,16174495,16174827,334,508.6,496.3,5257,left
8,1,binary,6,2,trial,16172340.0,16175922.0,3582.0,6,R,16174893,16175233,342,1363.7,568.7,5428,right
8,1,binary,6,2,trial,16172340.0,16175922.0,3582.0,6,R,16175255,16175829,576,1364.4,516.4,5335,right
8,1,binary,6,2,trial,16172340.0,16175922.0,3582.0,6,R,16175875,16176137,264,1381.4,997.4,5292,NA
8,1,binary,6,2,postResponse,16172340.0,16175922.0,3582.0,6,R,16176201,16176261,62,779.0,662.8,5270,NA
8,1,binary,7,1,trial,16176840.0,16178789.0,1949.0,7,R,16176409,16177007,600,919.5,609.7,5784,NA
8,1,binary,7,1,trial,16176840.0,16178789.0,1949.0,7,R,16177061,16177239,180,472.1,523.7,5822,left
8,1,binary,7,1,trial,16176840.0,16178789.0,1949.0,7,R,16177305,16177497,194,1378.8,593.9,5474,right
8,1,binary,7,1,trial,16176840.0,16178789.0,1949.0,7,R,16177519,16177717,200,1485.1,574.7,5329,right
8,1,binary,7,1,trial,16176840.0,16178789.0,1949.0,7,R,16177741,16177899,160,1519.5,479.0,5336,right
8,1,binary,7,1,trial,16176840.0,16178789.0,1949.0,7,R,16177977,16178245,270,417.7,572.8,5303,left
8,1,binary,7,1,trial,16176840.0,16178789.0,1949.0,7,R,16178275,16178553,280,324.7,732.2,5375,NA
8,1,binary,7,1,trial,16176840.0,16178789.0,1949.0,7,R,16178573,16178797,226,406.1,776.4,5161,NA
8,1,binary,7,1,postResponse,16176840.0,16178789.0,1949.0,7,R,16178825,16179123,300,475.6,642.0,5011,left
8,1,binary,8,1,fixationCross,16179839.0,16181723.0,1884.0,8,R,16179197,16179215,20,480.8,652.1,5051,left
8,1,binary,8,1,fixationCross,16179839.0,16181723.0,1884.0,8,R,16179305,16179535,232,707.7,629.6,5309,left
8,1,binary,8,1,trial,16179839.0,16181723.0,1884.0,8,R,16179561,16180021,462,929.5,603.7,5728,NA
8,1,binary,8,1,trial,16179839.0,16181723.0,1884.0,8,R,16180065,16180293,230,1312.1,547.3,5771,right
8,1,binary,8,1,trial,16179839.0,16181723.0,1884.0,8,R,16180315,16180469,156,1405.2,547.1,5232,right
8,1,binary,8,1,trial,16179839.0,16181723.0,1884.0,8,R,16180541,16180715,176,488.6,704.9,4890,left
8,1,binary,8,1,trial,16179839.0,16181723.0,1884.0,8,R,16180757,16181061,306,237.0,620.8,4757,left
8,1,binary,8,1,trial,16179839.0,16181723.0,1884.0,8,R,16181081,16181479,400,292.3,576.6,4635,left
8,1,binary,8,1,postResponse,16179839.0,16181723.0,1884.0,8,R,16181505,16182057,554,471.7,593.2,4915,left
8,1,binary,9,2,fixationCross,16182823.0,16185406.0,2583.0,9,R,16182157,16182495,340,742.6,647.5,5311,NA
8,1,binary,9,2,trial,16182823.0,16185406.0,2583.0,9,R,16182519,16183015,498,904.3,598.6,5794,NA
8,1,binary,9,2,trial,16182823.0,16185406.0,2583.0,9,R,16183071,16183229,160,439.2,531.7,5705,left
8,1,binary,9,2,trial,16182823.0,16185406.0,2583.0,9,R,16183239,16184057,820,431.2,500.9,5142,left
8,1,binary,9,2,trial,16182823.0,16185406.0,2583.0,9,R,16184125,16184283,160,1361.2,486.5,5297,right
8,1,binary,9,2,trial,16182823.0,16185406.0,2583.0,9,R,16184305,16184551,248,1386.8,435.0,5213,right
8,1,binary,9,2,trial,16182823.0,16185406.0,2583.0,9,R,16184577,16184841,266,1289.6,521.5,5108,right
8,1,binary,9,2,postResponse,16182823.0,16185406.0,2583.0,9,R,16184907,16185741,836,429.0,479.4,4923,left
8,1,binary,10,1,fixationCross,16186523.0,16189073.0,2550.0,10,R,16185817,16185923,108,443.5,483.0,4953,left
8,1,binary,10,1,fixationCross,16186523.0,16189073.0,2550.0,10,R,16185989,16186221,234,917.5,640.1,5341,NA
8,1,binary,10,1,trial,16186523.0,16189073.0,2550.0,10,R,16186235,16186667,434,895.1,589.7,5646,NA
8,1,binary,10,1,trial,16186523.0,16189073.0,2550.0,10,R,16186717,16186911,196,453.4,536.1,5610,left
8,1,binary,10,1,trial,16186523.0,16189073.0,2550.0,10,R,16186931,16187295,366,370.7,537.3,5015,left
8,1,binary,10,1,trial,16186523.0,16189073.0,2550.0,10,R,16187319,16187555,238,239.2,605.5,4752,left
8,1,binary,10,1,trial,16186523.0,16189073.0,2550.0,10,R,16187633,16188319,688,1379.4,524.3,4996,right
8,1,binary,10,1,trial,16186523.0,16189073.0,2550.0,10,R,16188331,16188517,188,1405.4,534.2,4958,right
8,1,binary,10,1,trial,16186523.0,16189073.0,2550.0,10,R,16188593,16188987,396,342.9,526.2,4676,left
8,1,binary,10,1,trial,16186523.0,16189073.0,2550.0,10,R,16189019,16189099,82,215.2,665.8,4731,NA
8,1,binary,10,1,postResponse,16186523.0,16189073.0,2550.0,10,R,16189173,16189407,236,1357.0,552.2,4997,right
8,1,binary,11,2,fixationCross,16190340.0,16192040.0,1700.0,11,R,16189481,16189551,72,1340.0,540.6,5133,right
8,1,binary,11,2,fixationCross,16190340.0,16192040.0,1700.0,11,R,16189607,16189707,102,765.7,610.2,5209,NA
8,1,binary,11,2,fixationCross,16190340.0,16192040.0,1700.0,11,R,16189883,16190017,136,811.8,619.7,5465,NA
8,1,binary,11,2,fixationCross,16190340.0,16192040.0,1700.0,11,R,16190037,16190179,144,910.3,561.6,5601,NA
8,1,binary,11,2,trial,16190340.0,16192040.0,1700.0,11,R,16190347,16190531,186,901.5,504.7,5911,NA
8,1,binary,11,2,trial,16190340.0,16192040.0,1700.0,11,R,16190579,16190747,170,1397.1,568.4,5828,right
8,1,binary,11,2,trial,16190340.0,16192040.0,1700.0,11,R,16190805,16190947,144,1277.1,486.4,5246,right
8,1,binary,11,2,trial,16190340.0,16192040.0,1700.0,11,R,16190959,16191237,280,1328.4,483.6,5015,right
8,1,binary,11,2,trial,16190340.0,16192040.0,1700.0,11,R,16191313,16191787,476,376.6,562.4,4776,left
8,1,binary,11,2,postResponse,16190340.0,16192040.0,1700.0,11,R,16191797,16192373,578,392.7,561.5,4600,left
8,1,binary,12,2,fixationCross,16193056.0,16195273.0,2217.0,12,R,16192449,16192705,258,383.3,559.6,4774,left
8,1,binary,12,2,fixationCross,16193056.0,16195273.0,2217.0,12,R,16192739,16192753,16,667.4,594.2,5043,left
8,1,binary,12,2,trial,16193056.0,16195273.0,2217.0,12,R,16192779,16193211,434,932.2,588.0,5359,NA
8,1,binary,12,2,trial,16193056.0,16195273.0,2217.0,12,R,16193253,16193427,176,574.0,570.9,5551,left
8,1,binary,12,2,trial,16193056.0,16195273.0,2217.0,12,R,16193455,16193575,122,346.3,545.0,5226,left
8,1,binary,12,2,trial,16193056.0,16195273.0,2217.0,12,R,16193639,16193943,306,1287.3,513.0,5317,right
8,1,binary,12,2,trial,16193056.0,16195273.0,2217.0,12,R,16193977,16194149,174,1532.0,546.9,5208,right
8,1,binary,12,2,trial,16193056.0,16195273.0,2217.0,12,R,16194161,16194293,134,1569.4,568.8,5100,right
8,1,binary,12,2,trial,16193056.0,16195273.0,2217.0,12,R,16194335,16194537,204,1269.2,487.7,4962,right
8,1,binary,12,2,trial,16193056.0,16195273.0,2217.0,12,R,16194605,16194907,304,329.5,539.2,4621,left
8,1,binary,12,2,postResponse,16193056.0,16195273.0,2217.0,12,R,16194927,16195605,680,468.4,538.8,4715,left
8,1,binary,13,2,fixationCross,16196840.0,16198473.0,1633.0,13,R,16195705,16195823,120,488.8,549.0,4831,left
8,1,binary,13,2,fixationCross,16196840.0,16198473.0,1633.0,13,R,16195843,16196331,490,581.5,605.0,5164,left
8,1,binary,13,2,fixationCross,16196840.0,16198473.0,1633.0,13,R,16196367,16196539,174,840.5,628.1,5557,NA
8,1,binary,13,2,trial,16196840.0,16198473.0,1633.0,13,R,16196557,16197053,498,935.5,613.0,5723,NA
8,1,binary,13,2,trial,16196840.0,16198473.0,1633.0,13,R,16197099,16197317,220,1384.3,587.7,5585,right
8,1,binary,13,2,trial,16196840.0,16198473.0,1633.0,13,R,16197389,16197627,240,351.1,533.7,4907,left
8,1,binary,13,2,trial,16196840.0,16198473.0,1633.0,13,R,16197645,16197863,220,296.8,511.9,4811,left
8,1,binary,13,2,trial,16196840.0,16198473.0,1633.0,13,R,16197937,16198365,430,1360.6,576.4,4887,right
8,1,binary,13,2,postResponse,16196840.0,16198473.0,1633.0,13,R,16198389,16198807,420,1379.7,671.6,4992,right
8,1,binary,14,2,fixationCross,16199506.0,16201407.0,1901.0,14,R,16198907,16198943,38,1379.2,674.6,5106,right
8,1,binary,14,2,fixationCross,16199506.0,16201407.0,1901.0,14,R,16198993,16199045,54,1017.8,612.4,5132,NA
8,1,binary,14,2,trial,16199506.0,16201407.0,1901.0,14,R,16199065,16199667,604,927.7,630.2,5441,NA
8,1,binary,14,2,trial,16199506.0,16201407.0,1901.0,14,R,16199721,16199867,148,372.3,552.8,5517,left
8,1,binary,14,2,trial,16199506.0,16201407.0,1901.0,14,R,16199883,16200147,266,308.0,543.9,4953,left
8,1,binary,14,2,trial,16199506.0,16201407.0,1901.0,14,R,16200231,16200417,188,1308.9,621.4,4993,right
8,1,binary,14,2,trial,16199506.0,16201407.0,1901.0,14,R,16200437,16200699,264,1405.9,618.5,5012,right
8,1,binary,14,2,trial,16199506.0,16201407.0,1901.0,14,R,16200713,16200927,216,1434.7,668.4,5002,right
8,1,binary,14,2,trial,16199506.0,16201407.0,1901.0,14,R,16200951,16201175,226,1288.6,589.2,4902,right
8,1,binary,14,2,trial,16199506.0,16201407.0,1901.0,14,R,16201249,16201417,170,312.2,540.7,4670,left
8,1,binary,14,2,trial,16199506.0,16201407.0,1901.0,14,R,16201435,16201683,250,274.8,570.7,4748,left
8,1,binary,15,1,fixationCross,16202573.0,16206757.0,4184.0,15,R,16201993,16202205,214,868.9,635.8,5189,NA
8,1,binary,15,1,fixationCross,16202573.0,16206757.0,4184.0,15,R,16202221,16202331,112,920.2,594.5,5413,NA
8,1,binary,15,1,trial,16202573.0,16206757.0,4184.0,15,R,16202489,16202739,252,899.8,555.0,5524,NA
8,1,binary,15,1,trial,16202573.0,16206757.0,4184.0,15,R,16202785,16202925,142,504.3,530.4,5419,left
8,1,binary,15,1,trial,16202573.0,16206757.0,4184.0,15,R,16202945,16203067,124,399.3,583.2,5252,left
8,1,binary,15,1,trial,16202573.0,16206757.0,4184.0,15,R,16203211,16203329,120,1407.3,562.4,5521,right
8,1,binary,15,1,trial,16202573.0,16206757.0,4184.0,15,R,16203601,16203609,10,1384.1,587.4,5707,right
8,1,binary,15,1,trial,16202573.0,16206757.0,4184.0,15,R,16203735,16203883,150,433.5,501.6,5493,left
8,1,binary,15,1,trial,16202573.0,16206757.0,4184.0,15,R,16203951,16204331,382,1451.4,542.1,5810,right
8,1,binary,15,1,trial,16202573.0,16206757.0,4184.0,15,R,16204363,16204697,336,1456.5,445.7,5719,right
8,1,binary,15,1,trial,16202573.0,16206757.0,4184.0,15,R,16204719,16204935,218,1389.3,557.3,5455,right
8,1,binary,15,1,trial,16202573.0,16206757.0,4184.0,15,R,16204949,16205167,220,1423.1,539.7,5346,right
8,1,binary,15,1,trial,16202573.0,16206757.0,4184.0,15,R,16205187,16205483,298,1319.0,578.4,5236,right
8,1,binary,15,1,trial,16202573.0,16206757.0,4184.0,15,R,16205495,16205777,284,1360.8,579.6,5113,right
8,1,binary,15,1,trial,16202573.0,16206757.0,4184.0,15,R,16205801,16205929,130,1505.0,563.7,5047,right
8,1,binary,15,1,trial,16202573.0,16206757.0,4184.0,15,R,16206005,16206181,178,354.1,509.6,4785,left
8,1,binary,15,1,trial,16202573.0,16206757.0,4184.0,15,R,16206207,16206639,434,417.7,646.1,4903,left
8,1,binary,15,1,trial,16202573.0,16206757.0,4184.0,15,R,16206681,16206977,298,446.8,953.2,5114,NA
8,1,binary,16,2,fixationCross,16207823.0,16210390.0,2567.0,16,R,16207327,16207525,200,871.1,647.6,5463,NA
8,1,binary,16,2,trial,16207823.0,16210390.0,2567.0,16,R,16207545,16207977,434,931.9,563.5,5773,NA
8,1,binary,16,2,trial,16207823.0,16210390.0,2567.0,16,R,16208027,16208193,168,453.2,545.7,5490,left
8,1,binary,16,2,trial,16207823.0,16210390.0,2567.0,16,R,16208203,16208359,158,414.5,558.3,5111,left
8,1,binary,16,2,trial,16207823.0,16210390.0,2567.0,16,R,16208423,16208635,214,1388.7,521.4,5133,right
8,1,binary,16,2,trial,16207823.0,16210390.0,2567.0,16,R,16208647,16209109,464,1426.4,503.3,5053,right
8,1,binary,16,2,trial,16207823.0,16210390.0,2567.0,16,R,16209187,16209409,224,399.2,542.9,4940,left
8,1,binary,16,2,trial,16207823.0,16210390.0,2567.0,16,R,16209423,16209791,370,384.3,581.2,4876,left
8,1,binary,16,2,trial,16207823.0,16210390.0,2567.0,16,R,16209803,16210155,354,388.9,556.7,4631,left
8,1,binary,16,2,trial,16207823.0,16210390.0,2567.0,16,R,16210319,16210669,352,1376.0,543.6,4740,right
8,1,binary,17,1,fixationCross,16211490.0,16213707.0,2217.0,17,R,16210799,16211187,390,801.4,552.0,5076,NA
8,1,binary,17,1,trial,16211490.0,16213707.0,2217.0,17,R,16211207,16211651,446,909.9,567.6,5513,NA
8,1,binary,17,1,trial,16211490.0,16213707.0,2217.0,17,R,16211703,16211869,168,410.3,515.9,5444,left
8,1,binary,17,1,trial,16211490.0,16213707.0,2217.0,17,R,16211887,16212327,442,399.9,457.3,4781,left
8,1,binary,17,1,trial,16211490.0,16213707.0,2217.0,17,R,16212401,16212603,204,1404.2,476.4,4824,right
8,1,binary,17,1,trial,16211490.0,16213707.0,2217.0,17,R,16212613,16212795,184,1372.9,501.5,4812,right
8,1,binary,17,1,trial,16211490.0,16213707.0,2217.0,17,R,16212863,16213099,238,422.4,484.1,4550,left
8,1,binary,17,1,trial,16211490.0,16213707.0,2217.0,17,R,16213127,16213455,330,379.7,600.3,4602,left
8,1,binary,17,1,postResponse,16211490.0,16213707.0,2217.0,17,R,16213473,16214041,570,398.8,680.0,4762,left
8,1,binary,18,1,fixationCross,16214973.0,16217573.0,2600.0,18,R,16214143,16214181,40,405.7,691.9,4916,left
8,1,binary,18,1,fixationCross,16214973.0,16217573.0,2600.0,18,R,16214221,16214499,280,645.3,555.5,5076,left
8,1,binary,18,1,fixationCross,16214973.0,16217573.0,2600.0,18,R,16214533,16214561,30,916.5,578.5,5322,NA
8,1,binary,18,1,trial,16214973.0,16217573.0,2600.0,18,R,16214743,16215127,386,898.6,567.8,5592,NA
8,1,binary,18,1,trial,16214973.0,16217573.0,2600.0,18,R,16215175,16215481,308,436.8,555.4,5380,left
8,1,binary,18,1,trial,16214973.0,16217573.0,2600.0,18,R,16215547,16216033,488,1363.7,540.7,4965,right
8,1,binary,18,1,trial,16214973.0,16217573.0,2600.0,18,R,16216177,16216447,272,407.4,563.6,4899,left
8,1,binary,18,1,trial,16214973.0,16217573.0,2600.0,18,R,16216471,16216825,356,341.0,675.1,5014,left
8,1,binary,18,1,trial,16214973.0,16217573.0,2600.0,18,R,16216847,16217023,178,341.0,575.7,4935,left
8,1,binary,18,1,trial,16214973.0,16217573.0,2600.0,18,R,16217103,16217319,218,1434.4,534.8,5062,right
8,1,binary,18,1,trial,16214973.0,16217573.0,2600.0,18,R,16217341,16217495,156,1548.3,521.2,5087,right
8,1,binary,18,1,postResponse,16214973.0,16217573.0,2600.0,18,R,16217521,16217907,388,1365.2,523.4,5070,right
8,1,binary,19,1,fixationCross,16218823.0,16221757.0,2934.0,19,R,16218007,16218399,394,645.4,621.5,5114,left
8,1,binary,19,1,fixationCross,16218823.0,16221757.0,2934.0,19,R,16218435,16218535,102,887.3,586.8,5447,NA
8,1,binary,19,1,trial,16218823.0,16221757.0,2934.0,19,R,16218665,16218983,320,915.7,583.6,5697,NA
8,1,binary,19,1,trial,16218823.0,16221757.0,2934.0,19,R,16219027,16219223,198,549.9,517.5,5530,left
8,1,binary,19,1,trial,16218823.0,16221757.0,2934.0,19,R,16219249,16219419,172,379.1,531.4,4994,left
8,1,binary,19,1,trial,16218823.0,16221757.0,2934.0,19,R,16219575,16219715,142,538.9,568.9,4851,left
8,1,binary,19,1,trial,16218823.0,16221757.0,2934.0,19,R,16219743,16220151,410,344.9,532.1,4884,left
8,1,binary,19,1,trial,16218823.0,16221757.0,2934.0,19,R,16220173,16220345,174,476.2,513.3,4768,left
8,1,binary,19,1,trial,16218823.0,16221757.0,2934.0,19,R,16220407,16220565,160,1359.9,561.1,4932,right
8,1,binary,19,1,trial,16218823.0,16221757.0,2934.0,19,R,16220583,16220827,246,1411.9,534.9,5013,right
8,1,binary,19,1,trial,16218823.0,16221757.0,2934.0,19,R,16220839,16220969,132,1404.9,570.8,5141,right
8,1,binary,19,1,trial,16218823.0,16221757.0,2934.0,19,R,16220995,16221075,82,1223.2,555.9,5177,right
8,1,binary,19,1,trial,16218823.0,16221757.0,2934.0,19,R,16221137,16221343,208,419.8,507.0,4933,left
8,1,binary,19,1,trial,16218823.0,16221757.0,2934.0,19,R,16221389,16221691,304,406.9,947.9,5049,NA
8,1,binary,19,1,postResponse,16218823.0,16221757.0,2934.0,19,R,16221739,16222091,354,272.5,582.7,4955,left
8,1,binary,20,2,fixationCross,16223640.0,16227590.0,3950.0,20,R,16222191,16222529,340,532.1,563.2,5224,left
8,1,binary,20,2,fixationCross,16223640.0,16227590.0,3950.0,20,R,16222569,16223019,452,875.0,607.1,5728,NA
8,1,binary,20,2,fixationCross,16223640.0,16227590.0,3950.0,20,R,16223045,16223383,340,718.8,575.7,5801,left
8,1,binary,20,2,trial,16223640.0,16227590.0,3950.0,20,R,16223411,16223827,418,926.8,581.3,5888,NA
8,1,binary,20,2,trial,16223640.0,16227590.0,3950.0,20,R,16223873,16224017,146,1331.4,597.3,5910,right
8,1,binary,20,2,trial,16223640.0,16227590.0,3950.0,20,R,16224039,16224255,218,1445.1,612.1,5548,right
8,1,binary,20,2,trial,16223640.0,16227590.0,3950.0,20,R,16224275,16224415,142,1348.3,602.0,5575,right
8,1,binary,20,2,trial,16223640.0,16227590.0,3950.0,20,R,16224481,16224707,228,500.7,618.3,5650,left
8,1,binary,20,2,trial,16223640.0,16227590.0,3950.0,20,R,16224727,16224831,106,412.7,621.2,5749,left
8,1,binary,20,2,trial,16223640.0,16227590.0,3950.0,20,R,16224893,16225057,166,1329.4,580.9,5900,right
8,1,binary,20,2,trial,16223640.0,16227590.0,3950.0,20,R,16225071,16225865,796,1385.1,590.3,5991,right
8,1,binary,20,2,trial,16223640.0,16227590.0,3950.0,20,R,16225891,16226043,154,1464.9,572.5,6027,right
8,1,binary,20,2,trial,16223640.0,16227590.0,3950.0,20,R,16226115,16226365,252,437.3,629.0,5793,left
8,1,binary,20,2,trial,16223640.0,16227590.0,3950.0,20,R,16226381,16226611,232,505.1,621.9,5675,left
8,1,binary,20,2,trial,16223640.0,16227590.0,3950.0,20,R,16226623,16226771,150,469.9,604.2,5372,left
8,1,binary,20,2,trial,16223640.0,16227590.0,3950.0,20,R,16226839,16226965,128,1416.4,577.3,5372,right
8,1,binary,20,2,trial,16223640.0,16227590.0,3950.0,20,R,16226979,16227351,374,1456.6,597.0,5271,right
8,1,binary,20,2,trial,16223640.0,16227590.0,3950.0,20,R,16227373,16227885,514,1375.9,590.3,5546,right
8,1,binary,21,2,fixationCross,16228673.0,16230057.0,1384.0,21,R,16228067,16228407,342,853.0,562.9,5757,NA
8,1,binary,21,2,trial,16228673.0,16230057.0,1384.0,21,R,16228423,16228815,394,929.8,569.8,5984,NA
8,1,binary,21,2,trial,16228673.0,16230057.0,1384.0,21,R,16228869,16228995,128,465.4,531.2,5723,left
8,1,binary,21,2,trial,16228673.0,16230057.0,1384.0,21,R,16229053,16229193,142,1320.1,539.7,5347,right
8,1,binary,21,2,trial,16228673.0,16230057.0,1384.0,21,R,16229209,16229397,190,1373.4,552.8,5154,right
8,1,binary,21,2,trial,16228673.0,16230057.0,1384.0,21,R,16229411,16229549,140,1429.6,550.5,5232,right
8,1,binary,21,2,trial,16228673.0,16230057.0,1384.0,21,R,16229617,16229829,214,467.5,532.5,5194,left
8,1,binary,21,2,trial,16228673.0,16230057.0,1384.0,21,R,16229887,16230239,354,1266.2,949.4,5433,NA
8,1,binary,22,2,fixationCross,16230990.0,16232690.0,1700.0,22,R,16230511,16230847,338,870.7,565.3,5658,NA
8,1,binary,22,2,trial,16230990.0,16232690.0,1700.0,22,R,16230863,16231147,286,948.4,563.8,5937,NA
8,1,binary,22,2,trial,16230990.0,16232690.0,1700.0,22,R,16231197,16231355,160,452.3,513.0,5719,left
8,1,binary,22,2,trial,16230990.0,16232690.0,1700.0,22,R,16231373,16231537,166,411.9,556.7,5265,left
8,1,binary,22,2,trial,16230990.0,16232690.0,1700.0,22,R,16231605,16231885,282,1386.3,640.5,5243,right
8,1,binary,22,2,trial,16230990.0,16232690.0,1700.0,22,R,16231911,16232219,310,1273.9,584.6,5194,right
8,1,binary,22,2,trial,16230990.0,16232690.0,1700.0,22,R,16232285,16232593,310,434.0,541.8,5142,left
8,1,binary,22,2,postResponse,16230990.0,16232690.0,1700.0,22,R,16232653,16233037,386,1291.2,542.5,5437,right
8,1,binary,23,1,fixationCross,16233607.0,16235657.0,2050.0,23,R,16233111,16233157,48,1280.3,536.9,5456,right
8,1,binary,23,1,trial,16233607.0,16235657.0,2050.0,23,R,16233203,16233785,584,929.8,569.9,5738,NA
8,1,binary,23,1,trial,16233607.0,16235657.0,2050.0,23,R,16233825,16234039,216,1300.9,589.9,5938,right
8,1,binary,23,1,trial,16233607.0,16235657.0,2050.0,23,R,16234059,16234403,346,1350.9,534.4,5582,right
8,1,binary,23,1,trial,16233607.0,16235657.0,2050.0,23,R,16234471,16234813,344,406.8,520.0,5348,left
8,1,binary,23,1,trial,16233607.0,16235657.0,2050.0,23,R,16234841,16235437,598,528.8,609.8,5352,left
8,1,binary,23,1,postResponse,16233607.0,16235657.0,2050.0,23,R,16235463,16235991,530,381.5,487.0,5154,left
8,1,binary,24,1,fixationCross,16236873.0,16238657.0,1784.0,24,R,16236093,16236315,224,411.7,480.6,5388,left
8,1,binary,24,1,fixationCross,16236873.0,16238657.0,1784.0,24,R,16236341,16236391,52,547.6,510.8,5503,left
8,1,binary,24,1,fixationCross,16236873.0,16238657.0,1784.0,24,R,16236423,16236553,132,787.0,575.7,5637,NA
8,1,binary,24,1,trial,16236873.0,16238657.0,1784.0,24,R,16236579,16237037,460,940.9,578.1,5838,NA
8,1,binary,24,1,trial,16236873.0,16238657.0,1784.0,24,R,16237083,16237241,160,544.5,564.6,5721,left
8,1,binary,24,1,trial,16236873.0,16238657.0,1784.0,24,R,16237267,16237355,90,420.5,519.6,5121,left
8,1,binary,24,1,trial,16236873.0,16238657.0,1784.0,24,R,16237423,16237937,516,1417.2,573.6,4955,right
8,1,binary,24,1,trial,16236873.0,16238657.0,1784.0,24,R,16238011,16238137,128,382.5,598.3,4606,left
8,1,binary,24,1,trial,16236873.0,16238657.0,1784.0,24,R,16238179,16238535,358,449.5,961.3,4739,NA
8,1,binary,24,1,postResponse,16236873.0,16238657.0,1784.0,24,R,16238589,16238993,406,411.7,504.4,4991,left
8,1,binary,25,2,fixationCross,16239790.0,16241640.0,1850.0,25,R,16239067,16239107,42,413.0,522.5,5090,left
8,1,binary,25,2,fixationCross,16239790.0,16241640.0,1850.0,25,R,16239285,16239449,166,499.0,578.1,5290,left
8,1,binary,25,2,trial,16239790.0,16241640.0,1850.0,25,R,16239493,16239947,456,919.5,578.8,5645,NA
8,1,binary,25,2,trial,16239790.0,16241640.0,1850.0,25,R,16239997,16240159,164,544.8,587.5,5560,left
8,1,binary,25,2,trial,16239790.0,16241640.0,1850.0,25,R,16240233,16240437,206,1327.0,605.1,5354,right
8,1,binary,25,2,trial,16239790.0,16241640.0,1850.0,25,R,16240463,16240677,216,1423.0,523.0,5313,right
8,1,binary,25,2,trial,16239790.0,16241640.0,1850.0,25,R,16240747,16240965,220,488.9,612.9,5043,left
8,1,binary,25,2,trial,16239790.0,16241640.0,1850.0,25,R,16240983,16241601,620,588.2,642.3,4991,left
8,1,binary,25,2,trial,16239790.0,16241640.0,1850.0,25,R,16241637,16241879,244,357.4,549.5,4949,left
8,1,binary,26,2,fixationCross,16282257.0,16286008.0,3751.0,26,R,16281717,16281831,116,1058.9,35.5,5909,NA
8,1,binary,26,2,fixationCross,16282257.0,16286008.0,3751.0,26,R,16281967,16282129,164,946.3,596.5,6225,NA
8,1,binary,26,2,trial,16282257.0,16286008.0,3751.0,26,R,16282149,16282551,404,947.8,506.6,6349,NA
8,1,binary,26,2,trial,16282257.0,16286008.0,3751.0,26,R,16282597,16282829,234,610.2,581.7,5778,left
8,1,binary,26,2,trial,16282257.0,16286008.0,3751.0,26,R,16282873,16283049,178,421.8,1045.6,5549,NA
8,1,binary,26,2,trial,16282257.0,16286008.0,3751.0,26,R,16283105,16283237,134,380.4,483.7,5435,left
8,1,binary,26,2,trial,16282257.0,16286008.0,3751.0,26,R,16283301,16283559,260,1323.6,589.8,5805,right
8,1,binary,26,2,trial,16282257.0,16286008.0,3751.0,26,R,16283577,16283745,170,1386.1,597.9,5797,right
8,1,binary,26,2,trial,16282257.0,16286008.0,3751.0,26,R,16283773,16284113,342,1281.7,698.4,5635,right
8,1,binary,26,2,trial,16282257.0,16286008.0,3751.0,26,R,16284155,16284301,148,1367.3,1054.0,5519,NA
8,1,binary,26,2,trial,16282257.0,16286008.0,3751.0,26,R,16284371,16284535,166,383.1,480.9,5271,left
8,1,binary,26,2,trial,16282257.0,16286008.0,3751.0,26,R,16284561,16284723,164,584.7,563.4,5431,left
8,1,binary,26,2,trial,16282257.0,16286008.0,3751.0,26,R,16284737,16284923,188,584.9,596.4,5434,left
8,1,binary,26,2,trial,16282257.0,16286008.0,3751.0,26,R,16284963,16285113,152,308.6,449.8,5265,left
8,1,binary,26,2,trial,16282257.0,16286008.0,3751.0,26,R,16285125,16285295,172,354.8,473.9,5186,left
8,1,binary,26,2,trial,16282257.0,16286008.0,3751.0,26,R,16285327,16285579,254,580.6,614.7,5297,left
8,1,binary,26,2,trial,16282257.0,16286008.0,3751.0,26,R,16285695,16285925,232,1304.4,641.0,5503,right
8,1,binary,26,2,trial,16282257.0,16286008.0,3751.0,26,R,16285941,16286287,348,1366.4,617.9,5400,right
8,1,binary,27,2,fixationCross,16287107.0,16288658.0,1551.0,27,R,16286517,16286789,274,1270.9,544.5,5519,right
8,1,binary,27,2,trial,16287107.0,16288658.0,1551.0,27,R,16286831,16287271,442,941.8,508.3,5879,NA
8,1,binary,27,2,trial,16287107.0,16288658.0,1551.0,27,R,16287317,16287503,188,1314.3,523.6,5871,right
8,1,binary,27,2,trial,16287107.0,16288658.0,1551.0,27,R,16287519,16287777,260,1304.3,491.5,5360,right
8,1,binary,27,2,trial,16287107.0,16288658.0,1551.0,27,R,16287853,16288347,496,459.0,518.7,5221,left
8,1,binary,27,2,trial,16287107.0,16288658.0,1551.0,27,R,16288411,16288607,198,1269.1,555.1,5328,right
8,1,binary,27,2,postResponse,16287107.0,16288658.0,1551.0,27,R,16288621,16288993,374,1312.5,534.1,5292,right
8,1,binary,28,2,fixationCross,16289590.0,16291774.0,2184.0,28,R,16289095,16289165,72,1311.9,527.5,5416,right
8,1,binary,28,2,fixationCross,16289590.0,16291774.0,2184.0,28,R,16289207,16289459,254,979.6,504.5,5592,NA
8,1,binary,28,2,trial,16289590.0,16291774.0,2184.0,28,R,16289475,16289811,338,921.1,524.7,5872,NA
8,1,binary,28,2,trial,16289590.0,16291774.0,2184.0,28,R,16289859,16290053,196,502.0,521.8,5596,left
8,1,binary,28,2,trial,16289590.0,16291774.0,2184.0,28,R,16290079,16290331,254,358.3,517.8,5176,left
8,1,binary,28,2,trial,16289590.0,16291774.0,2184.0,28,R,16290349,16290483,136,452.8,527.5,5074,left
8,1,binary,28,2,trial,16289590.0,16291774.0,2184.0,28,R,16290547,16290739,194,1315.5,558.9,5199,right
8,1,binary,28,2,trial,16289590.0,16291774.0,2184.0,28,R,16290763,16290901,140,1428.9,563.5,5213,right
8,1,binary,28,2,trial,16289590.0,16291774.0,2184.0,28,R,16290925,16291259,336,1551.7,515.4,5272,right
8,1,binary,28,2,trial,16289590.0,16291774.0,2184.0,28,R,16291287,16291613,328,1334.1,572.5,5216,right
8,1,binary,28,2,trial,16289590.0,16291774.0,2184.0,28,R,16291683,16292007,326,400.5,503.2,5039,left
8,1,binary,29,1,fixationCross,16292741.0,16296607.0,3866.0,29,R,16292273,16292435,164,1128.1,522.9,5336,NA
8,1,binary,29,1,trial,16292741.0,16296607.0,3866.0,29,R,16292467,16292915,450,925.7,535.3,5613,NA
8,1,binary,29,1,trial,16292741.0,16296607.0,3866.0,29,R,16292957,16293187,232,1301.0,505.8,5483,right
8,1,binary,29,1,trial,16292741.0,16296607.0,3866.0,29,R,16293199,16293359,162,1310.3,531.2,5020,right
8,1,binary,29,1,trial,16292741.0,16296607.0,3866.0,29,R,16293383,16293665,284,1456.2,556.7,5192,right
8,1,binary,29,1,trial,16292741.0,16296607.0,3866.0,29,R,16293691,16293825,136,1299.1,531.8,5461,right
8,1,binary,29,1,trial,16292741.0,16296607.0,3866.0,29,R,16293891,16294093,204,422.9,530.4,5411,left
8,1,binary,29,1,trial,16292741.0,16296607.0,3866.0,29,R,16294105,16294289,186,390.1,520.2,5329,left
8,1,binary,29,1,trial,16292741.0,16296607.0,3866.0,29,R,16294297,16294649,354,400.0,510.7,4940,left
8,1,binary,29,1,trial,16292741.0,16296607.0,3866.0,29,R,16294695,16294889,196,556.3,872.7,4806,NA
8,1,binary,29,1,trial,16292741.0,16296607.0,3866.0,29,R,16294915,16295047,134,417.3,951.0,4739,NA
8,1,binary,29,1,trial,16292741.0,16296607.0,3866.0,29,R,16295097,16295199,104,358.2,530.6,4786,left
8,1,binary,29,1,trial,16292741.0,16296607.0,3866.0,29,R,16295363,16295571,210,1374.0,577.7,5145,right
8,1,binary,29,1,trial,16292741.0,16296607.0,3866.0,29,R,16295585,16295939,356,1324.3,546.3,5390,right
8,1,binary,29,1,trial,16292741.0,16296607.0,3866.0,29,R,16295963,16296191,230,1477.0,510.8,5366,right
8,1,binary,29,1,trial,16292741.0,16296607.0,3866.0,29,R,16296269,16296517,250,365.2,524.6,5133,left
8,1,binary,29,1,trial,16292741.0,16296607.0,3866.0,29,R,16296531,16296685,156,428.0,529.8,5140,left
8,1,binary,29,1,postResponse,16292741.0,16296607.0,3866.0,29,R,16296701,16296943,244,475.1,574.8,4959,left
8,1,binary,30,2,fixationCross,16297708.0,16300208.0,2500.0,30,R,16297019,16297073,56,469.1,578.0,4870,left
8,1,binary,30,2,fixationCross,16297708.0,16300208.0,2500.0,30,R,16297099,16297385,288,683.7,570.3,5167,left
8,1,binary,30,2,trial,16297708.0,16300208.0,2500.0,30,R,16297413,16297863,452,895.9,560.7,5657,NA
8,1,binary,30,2,trial,16297708.0,16300208.0,2500.0,30,R,16297911,16298063,154,500.2,486.2,5752,left
8,1,binary,30,2,trial,16297708.0,16300208.0,2500.0,30,R,16298105,16298333,230,244.9,533.8,5352,left
8,1,binary,30,2,trial,16297708.0,16300208.0,2500.0,30,R,16298375,16298459,86,590.1,536.8,5446,left
8,1,binary,30,2,trial,16297708.0,16300208.0,2500.0,30,R,16298523,16298677,156,1351.3,572.8,5579,right
8,1,binary,30,2,trial,16297708.0,16300208.0,2500.0,30,R,16298691,16299137,448,1412.7,552.9,5694,right
8,1,binary,30,2,trial,16297708.0,16300208.0,2500.0,30,R,16299221,16299461,242,398.4,518.7,5408,left
8,1,binary,30,2,trial,16297708.0,16300208.0,2500.0,30,R,16299493,16299631,140,579.8,527.6,5326,left
8,1,binary,30,2,trial,16297708.0,16300208.0,2500.0,30,R,16299669,16299765,98,371.2,405.3,5200,left
8,1,binary,30,2,trial,16297708.0,16300208.0,2500.0,30,R,16299835,16300001,168,1384.3,589.6,5448,right
8,1,binary,30,2,trial,16297708.0,16300208.0,2500.0,30,R,16300017,16300473,458,1443.5,566.8,5547,right
8,1,binary,31,1,fixationCross,16301391.0,16303391.0,2000.0,31,R,16300713,16301167,456,851.4,537.8,5886,NA
8,1,binary,31,1,trial,16301391.0,16303391.0,2000.0,31,R,16301181,16301599,420,917.2,528.0,6176,NA
8,1,binary,31,1,trial,16301391.0,16303391.0,2000.0,31,R,16301645,16301799,156,1390.7,574.1,5941,right
8,1,binary,31,1,trial,16301391.0,16303391.0,2000.0,31,R,16301823,16301915,94,1463.3,527.0,5497,right
8,1,binary,31,1,trial,16301391.0,16303391.0,2000.0,31,R,16301937,16302361,426,1388.1,436.7,5309,right
8,1,binary,31,1,trial,16301391.0,16303391.0,2000.0,31,R,16302385,16302487,104,1478.4,525.5,5326,right
8,1,binary,31,1,trial,16301391.0,16303391.0,2000.0,31,R,16302563,16302755,194,442.5,494.0,5100,left
8,1,binary,31,1,trial,16301391.0,16303391.0,2000.0,31,R,16302765,16302881,118,464.4,466.0,5110,left
8,1,binary,31,1,trial,16301391.0,16303391.0,2000.0,31,R,16302907,16303377,472,389.3,586.4,5052,left
8,1,binary,31,1,postResponse,16301391.0,16303391.0,2000.0,31,R,16303403,16303737,336,455.3,453.7,5018,left
8,1,binary,32,1,fixationCross,16304508.0,16306441.0,1933.0,32,R,16303999,16304195,198,770.7,521.8,5414,NA
8,1,binary,32,1,trial,16304508.0,16306441.0,1933.0,32,R,16304219,16304673,456,908.9,529.2,5769,NA
8,1,binary,32,1,trial,16304508.0,16306441.0,1933.0,32,R,16304709,16304869,162,1209.7,553.7,5876,right
8,1,binary,32,1,trial,16304508.0,16306441.0,1933.0,32,R,16304889,16305103,216,1296.3,624.7,5498,right
8,1,binary,32,1,trial,16304508.0,16306441.0,1933.0,32,R,16305117,16305469,354,1334.2,583.0,5469,right
8,1,binary,32,1,trial,16304508.0,16306441.0,1933.0,32,R,16305543,16305733,192,353.0,516.3,5287,left
8,1,binary,32,1,trial,16304508.0,16306441.0,1933.0,32,R,16305745,16306029,286,312.7,531.9,5186,left
8,1,binary,32,1,trial,16304508.0,16306441.0,1933.0,32,R,16306075,16306279,206,442.1,975.3,5148,NA
8,1,binary,32,1,trial,16304508.0,16306441.0,1933.0,32,R,16306327,16306743,418,320.7,532.3,5016,left
8,1,binary,33,1,fixationCross,16307558.0,16312907.0,5349.0,33,R,16306875,16307043,170,604.5,532.8,5308,left
8,1,binary,33,1,fixationCross,16307558.0,16312907.0,5349.0,33,R,16307077,16307261,186,815.2,600.6,5601,NA
8,1,binary,33,1,trial,16307558.0,16312907.0,5349.0,33,R,16307279,16307701,424,915.5,556.5,5945,NA
8,1,binary,33,1,trial,16307558.0,16312907.0,5349.0,33,R,16307857,16307973,118,1319.9,553.0,5831,right
8,1,binary,33,1,trial,16307558.0,16312907.0,5349.0,33,R,16307999,16308117,120,1472.3,542.5,5491,right
8,1,binary,33,1,trial,16307558.0,16312907.0,5349.0,33,R,16308131,16308289,160,1485.3,499.1,5461,right
8,1,binary,33,1,trial,16307558.0,16312907.0,5349.0,33,R,16308317,16308401,86,1252.6,522.4,5435,right
8,1,binary,33,1,trial,16307558.0,16312907.0,5349.0,33,R,16308467,16308693,228,407.2,504.5,5171,left
8,1,binary,33,1,trial,16307558.0,16312907.0,5349.0,33,R,16308719,16309067,350,287.0,553.0,5280,left
8,1,binary,33,1,trial,16307558.0,16312907.0,5349.0,33,R,16309077,16309211,136,339.1,558.9,5440,left
8,1,binary,33,1,trial,16307558.0,16312907.0,5349.0,33,R,16309279,16309479,202,1399.3,548.1,5770,right
8,1,binary,33,1,trial,16307558.0,16312907.0,5349.0,33,R,16309499,16309803,306,1279.1,563.5,5837,right
8,1,binary,33,1,trial,16307558.0,16312907.0,5349.0,33,R,16309833,16310005,174,1500.2,496.4,5832,right
8,1,binary,33,1,trial,16307558.0,16312907.0,5349.0,33,R,16310081,16310523,444,414.8,553.2,5448,left
8,1,binary,33,1,trial,16307558.0,16312907.0,5349.0,33,R,16310593,16310827,236,1385.9,524.0,5754,right
8,1,binary,33,1,trial,16307558.0,16312907.0,5349.0,33,R,16310849,16311221,374,1284.3,550.3,5667,right
8,1,binary,33,1,trial,16307558.0,16312907.0,5349.0,33,R,16311237,16311503,268,1246.3,602.3,5423,right
8,1,binary,33,1,trial,16307558.0,16312907.0,5349.0,33,R,16311537,16311709,174,1512.2,655.5,5338,right
8,1,binary,33,1,trial,16307558.0,16312907.0,5349.0,33,R,16311745,16311999,256,1500.7,497.5,5294,right
8,1,binary,33,1,trial,16307558.0,16312907.0,5349.0,33,R,16312073,16312351,280,423.0,508.3,5171,left
8,1,binary,33,1,trial,16307558.0,16312907.0,5349.0,33,R,16312377,16312677,302,299.6,525.6,5295,left
8,1,binary,33,1,trial,16307558.0,16312907.0,5349.0,33,R,16312691,16313185,496,366.2,538.7,5464,left
8,1,binary,34,2,fixationCross,16313974.0,16318075.0,4101.0,34,R,16313363,16313663,302,655.9,511.5,5763,left
8,1,binary,34,2,fixationCross,16313974.0,16318075.0,4101.0,34,R,16313691,16313931,242,885.8,553.6,5994,NA
8,1,binary,34,2,trial,16313974.0,16318075.0,4101.0,34,R,16314113,16314201,90,918.7,524.0,6073,NA
8,1,binary,34,2,trial,16313974.0,16318075.0,4101.0,34,R,16314245,16314447,204,1286.0,525.3,6071,right
8,1,binary,34,2,trial,16313974.0,16318075.0,4101.0,34,R,16314465,16314729,266,1235.2,571.4,5707,right
8,1,binary,34,2,trial,16313974.0,16318075.0,4101.0,34,R,16314793,16315303,512,453.5,566.2,5178,left
8,1,binary,34,2,trial,16313974.0,16318075.0,4101.0,34,R,16315321,16315647,328,535.3,638.7,5002,left
8,1,binary,34,2,trial,16313974.0,16318075.0,4101.0,34,R,16315665,16315841,178,517.6,571.7,4995,left
8,1,binary,34,2,trial,16313974.0,16318075.0,4101.0,34,R,16315877,16316117,242,288.0,520.7,4954,left
8,1,binary,34,2,trial,16313974.0,16318075.0,4101.0,34,R,16316137,16316399,264,379.8,547.3,5067,left
8,1,binary,34,2,trial,16313974.0,16318075.0,4101.0,34,R,16316461,16316683,224,1188.2,552.0,5409,right
8,1,binary,34,2,trial,16313974.0,16318075.0,4101.0,34,R,16316695,16316945,252,1225.0,550.7,5593,right
8,1,binary,34,2,trial,16313974.0,16318075.0,4101.0,34,R,16316961,16317417,458,1314.8,549.7,5732,right
8,1,binary,34,2,trial,16313974.0,16318075.0,4101.0,34,R,16317437,16317911,476,1228.1,552.3,5940,right
8,1,binary,34,2,trial,16313974.0,16318075.0,4101.0,34,R,16317943,16318077,136,1480.2,555.9,5902,right
8,1,binary,34,2,postResponse,16313974.0,16318075.0,4101.0,34,R,16318241,16318409,170,462.4,469.6,5692,left
8,1,binary,35,2,fixationCross,16320041.0,16322524.0,2483.0,35,R,16318483,16318533,52,463.4,476.4,5699,left
8,1,binary,35,2,fixationCross,16320041.0,16322524.0,2483.0,35,R,16318561,16319041,482,672.5,500.2,5894,left
8,1,binary,35,2,fixationCross,16320041.0,16322524.0,2483.0,35,R,16319067,16319467,402,838.5,508.4,6005,NA
8,1,binary,35,2,fixationCross,16320041.0,16322524.0,2483.0,35,R,16319481,16319739,260,797.9,548.5,6100,NA
8,1,binary,35,2,fixationCross,16320041.0,16322524.0,2483.0,35,R,16319763,16319963,202,919.4,527.2,6163,NA
8,1,binary,35,2,trial,16320041.0,16322524.0,2483.0,35,R,16320143,16320217,76,924.1,475.6,6241,NA
8,1,binary,35,2,trial,16320041.0,16322524.0,2483.0,35,R,16320265,16320397,134,510.5,504.3,6111,left
8,1,binary,35,2,trial,16320041.0,16322524.0,2483.0,35,R,16320411,16320601,192,473.2,545.7,5967,left
8,1,binary,35,2,trial,16320041.0,16322524.0,2483.0,35,R,16320667,16320797,132,1366.1,567.5,5790,right
8,1,binary,35,2,trial,16320041.0,16322524.0,2483.0,35,R,16320817,16320977,162,1422.9,540.6,5588,right
8,1,binary,35,2,trial,16320041.0,16322524.0,2483.0,35,R,16320989,16321151,164,1463.5,549.2,5445,right
8,1,binary,35,2,trial,16320041.0,16322524.0,2483.0,35,R,16321223,16321339,118,487.3,538.0,5194,left
8,1,binary,35,2,trial,16320041.0,16322524.0,2483.0,35,R,16321359,16321541,184,417.2,563.2,5116,left
8,1,binary,35,2,trial,16320041.0,16322524.0,2483.0,35,R,16321563,16321791,230,540.4,592.1,5210,left
8,1,binary,35,2,trial,16320041.0,16322524.0,2483.0,35,R,16321857,16322227,372,1444.2,551.5,5269,right
8,1,binary,35,2,trial,16320041.0,16322524.0,2483.0,35,R,16322251,16322523,274,1546.0,643.1,5292,right
8,1,binary,35,2,trial,16320041.0,16322524.0,2483.0,35,R,16322557,16322737,182,1283.1,709.7,5277,right
8,1,binary,36,2,fixationCross,16323808.0,16325574.0,1766.0,36,R,16322959,16323235,278,951.0,531.3,5210,NA
8,1,binary,36,2,fixationCross,16323808.0,16325574.0,1766.0,36,R,16323261,16323613,354,809.8,538.5,5545,NA
8,1,binary,36,2,trial,16323808.0,16325574.0,1766.0,36,R,16323631,16324017,388,895.5,534.1,5669,NA
8,1,binary,36,2,trial,16323808.0,16325574.0,1766.0,36,R,16324069,16324233,166,437.3,524.1,5408,left
8,1,binary,36,2,trial,16323808.0,16325574.0,1766.0,36,R,16324255,16324485,232,357.2,574.9,5090,left
8,1,binary,36,2,trial,16323808.0,16325574.0,1766.0,36,R,16324557,16324719,164,1386.1,520.5,5350,right
8,1,binary,36,2,trial,16323808.0,16325574.0,1766.0,36,R,16324743,16325157,416,1505.9,507.7,5281,right
8,1,binary,36,2,trial,16323808.0,16325574.0,1766.0,36,R,16325203,16325491,290,1206.8,917.2,5350,NA
8,1,binary,36,2,postResponse,16323808.0,16325574.0,1766.0,36,R,16325537,16325909,374,1248.0,491.2,5571,right
8,1,binary,37,2,fixationCross,16326607.0,16329708.0,3101.0,37,R,16326169,16326341,174,1050.9,486.6,5955,NA
8,1,binary,37,2,trial,16326607.0,16329708.0,3101.0,37,R,16326365,16326783,420,917.0,518.0,6145,NA
8,1,binary,37,2,trial,16326607.0,16329708.0,3101.0,37,R,16326829,16327039,212,531.1,502.1,5785,left
8,1,binary,37,2,trial,16326607.0,16329708.0,3101.0,37,R,16327061,16327287,228,440.4,501.8,5064,left
8,1,binary,37,2,trial,16326607.0,16329708.0,3101.0,37,R,16327325,16327501,178,292.6,603.3,4860,left
8,1,binary,37,2,trial,16326607.0,16329708.0,3101.0,37,R,16327531,16327891,362,458.7,491.9,4833,left
8,1,binary,37,2,trial,16326607.0,16329708.0,3101.0,37,R,16327913,16327939,28,344.9,516.1,4862,left
8,1,binary,37,2,trial,16326607.0,16329708.0,3101.0,37,R,16327961,16328027,68,343.9,516.2,4868,left
8,1,binary,37,2,trial,16326607.0,16329708.0,3101.0,37,R,16328093,16328401,310,1315.0,586.1,5068,right
8,1,binary,37,2,trial,16326607.0,16329708.0,3101.0,37,R,16328423,16328675,254,1405.9,607.0,5042,right
8,1,binary,37,2,trial,16326607.0,16329708.0,3101.0,37,R,16328775,16329123,350,418.0,494.0,4702,left
8,1,binary,37,2,trial,16326607.0,16329708.0,3101.0,37,R,16329143,16329465,324,333.4,501.4,4786,left
8,1,binary,37,2,trial,16326607.0,16329708.0,3101.0,37,R,16329489,16329917,430,448.0,486.6,4817,left
8,1,binary,38,1,fixationCross,16330642.0,16335542.0,4900.0,38,R,16330185,16330339,156,829.6,564.0,4988,NA
8,1,binary,38,1,fixationCross,16330642.0,16335542.0,4900.0,38,R,16330373,16330615,244,1036.2,488.3,5308,NA
8,1,binary,38,1,trial,16330642.0,16335542.0,4900.0,38,R,16330637,16330827,192,920.4,528.6,5532,NA
8,1,binary,38,1,trial,16330642.0,16335542.0,4900.0,38,R,16330873,16331019,148,1312.5,575.0,5530,right
8,1,binary,38,1,trial,16330642.0,16335542.0,4900.0,38,R,16331031,16331793,764,1363.6,570.9,4895,right
8,1,binary,38,1,trial,16330642.0,16335542.0,4900.0,38,R,16331809,16331935,128,1335.9,544.7,4759,right
8,1,binary,38,1,trial,16330642.0,16335542.0,4900.0,38,R,16332007,16332353,348,357.6,507.4,4655,left
8,1,binary,38,1,trial,16330642.0,16335542.0,4900.0,38,R,16332365,16332601,238,385.5,481.6,4716,left
8,1,binary,38,1,trial,16330642.0,16335542.0,4900.0,38,R,16332627,16332809,184,490.9,469.7,4706,left
8,1,binary,38,1,trial,16330642.0,16335542.0,4900.0,38,R,16332827,16332941,116,415.9,522.2,4689,left
8,1,binary,38,1,trial,16330642.0,16335542.0,4900.0,38,R,16333003,16333161,160,1323.9,574.1,4980,right
8,1,binary,38,1,trial,16330642.0,16335542.0,4900.0,38,R,16333173,16333343,172,1360.3,584.6,4964,right
8,1,binary,38,1,trial,16330642.0,16335542.0,4900.0,38,R,16333361,16333659,300,1310.1,635.6,5029,right
8,1,binary,38,1,trial,16330642.0,16335542.0,4900.0,38,R,16333677,16333901,226,1361.3,580.7,4996,right
8,1,binary,38,1,trial,16330642.0,16335542.0,4900.0,38,R,16334047,16334147,102,370.4,488.1,4760,left
8,1,binary,38,1,trial,16330642.0,16335542.0,4900.0,38,R,16334465,16334495,32,299.6,539.9,4862,left
8,1,binary,38,1,trial,16330642.0,16335542.0,4900.0,38,R,16334627,16334897,272,340.4,493.9,4801,left
8,1,binary,38,1,trial,16330642.0,16335542.0,4900.0,38,R,16334919,16335177,260,421.8,522.9,4767,left
8,1,binary,38,1,trial,16330642.0,16335542.0,4900.0,38,R,16335221,16335347,128,420.6,946.5,4912,NA
8,1,binary,38,1,trial,16330642.0,16335542.0,4900.0,38,R,16335397,16335779,384,384.7,470.2,4844,left
8,1,binary,39,2,fixationCross,16338175.0,16340175.0,2000.0,39,R,16336023,16337711,1690,772.4,570.4,5626,NA
8,1,binary,39,2,fixationCross,16338175.0,16340175.0,2000.0,39,R,16337727,16337869,144,832.3,571.0,6001,NA
8,1,binary,39,2,fixationCross,16338175.0,16340175.0,2000.0,39,R,16337883,16338105,224,906.6,561.8,6074,NA
8,1,binary,39,2,trial,16338175.0,16340175.0,2000.0,39,R,16338329,16338415,88,934.4,505.0,6233,NA
8,1,binary,39,2,trial,16338175.0,16340175.0,2000.0,39,R,16338463,16338599,138,1345.7,449.1,6231,right
8,1,binary,39,2,trial,16338175.0,16340175.0,2000.0,39,R,16338613,16338865,254,1292.8,475.9,5863,right
8,1,binary,39,2,trial,16338175.0,16340175.0,2000.0,39,R,16338891,16339073,184,1407.3,611.9,5354,right
8,1,binary,39,2,trial,16338175.0,16340175.0,2000.0,39,R,16339099,16339403,306,1522.9,754.1,5148,NA
8,1,binary,39,2,trial,16338175.0,16340175.0,2000.0,39,R,16339451,16339525,76,1347.0,479.3,5151,right
8,1,binary,39,2,trial,16338175.0,16340175.0,2000.0,39,R,16339593,16339749,158,455.5,544.4,4965,left
8,1,binary,39,2,trial,16338175.0,16340175.0,2000.0,39,R,16339769,16339873,106,404.8,490.6,4889,left
8,1,binary,39,2,postResponse,16338175.0,16340175.0,2000.0,39,R,16339933,16340513,582,1309.0,479.1,5322,right
8,1,binary,40,1,fixationCross,16341258.0,16343425.0,2167.0,40,R,16340627,16340959,334,1177.1,502.6,5369,NA
8,1,binary,40,1,trial,16341258.0,16343425.0,2167.0,40,R,16340999,16341435,438,898.5,534.0,5771,NA
8,1,binary,40,1,trial,16341258.0,16343425.0,2167.0,40,R,16341475,16341619,146,1280.4,537.7,5909,right
8,1,binary,40,1,trial,16341258.0,16343425.0,2167.0,40,R,16341729,16341943,216,536.9,530.4,4984,left
8,1,binary,40,1,trial,16341258.0,16343425.0,2167.0,40,R,16341955,16342379,426,492.2,498.7,4899,left
8,1,binary,40,1,trial,16341258.0,16343425.0,2167.0,40,R,16342441,16342679,240,1329.6,569.6,4863,right
8,1,binary,40,1,trial,16341258.0,16343425.0,2167.0,40,R,16342695,16342819,126,1302.4,542.2,4772,right
8,1,binary,40,1,trial,16341258.0,16343425.0,2167.0,40,R,16342889,16343145,258,461.4,597.1,4744,left
8,1,binary,40,1,trial,16341258.0,16343425.0,2167.0,40,R,16343169,16343341,174,544.7,523.2,4893,left
8,1,binary,40,1,postResponse,16341258.0,16343425.0,2167.0,40,R,16343361,16343759,400,503.2,486.6,4778,left
8,1,binary,41,2,fixationCross,16344742.0,16346559.0,1817.0,41,R,16343859,16344175,318,517.4,493.2,4946,left
8,1,binary,41,2,trial,16344742.0,16346559.0,1817.0,41,R,16344479,16344913,436,931.4,523.4,5676,NA
8,1,binary,41,2,trial,16344742.0,16346559.0,1817.0,41,R,16344953,16345113,162,1281.5,548.4,5671,right
8,1,binary,41,2,trial,16344742.0,16346559.0,1817.0,41,R,16345137,16345417,282,1373.5,641.7,4928,right
8,1,binary,41,2,trial,16344742.0,16346559.0,1817.0,41,R,16345491,16345741,252,419.6,552.3,4788,left
8,1,binary,41,2,trial,16344742.0,16346559.0,1817.0,41,R,16345801,16346161,362,1291.9,527.0,5306,right
8,1,binary,41,2,trial,16344742.0,16346559.0,1817.0,41,R,16346187,16346453,268,1392.7,681.3,5486,right
8,1,binary,41,2,postResponse,16344742.0,16346559.0,1817.0,41,R,16346489,16346889,402,1337.3,487.9,5609,right
8,1,binary,42,2,fixationCross,16347608.0,16353208.0,5600.0,42,R,16347127,16347285,160,1326.2,465.8,5924,right
8,1,binary,42,2,fixationCross,16347608.0,16353208.0,5600.0,42,R,16347335,16347539,206,871.8,557.0,6040,NA
8,1,binary,42,2,trial,16347608.0,16353208.0,5600.0,42,R,16347553,16347769,218,909.1,543.4,6140,NA
8,1,binary,42,2,trial,16347608.0,16353208.0,5600.0,42,R,16347817,16347965,150,1338.4,489.7,6046,right
8,1,binary,42,2,trial,16347608.0,16353208.0,5600.0,42,R,16347983,16348127,146,1324.5,442.9,5393,right
8,1,binary,42,2,trial,16347608.0,16353208.0,5600.0,42,R,16348195,16348373,180,464.0,483.4,4843,left
8,1,binary,42,2,trial,16347608.0,16353208.0,5600.0,42,R,16348397,16348611,216,366.7,535.9,4727,left
8,1,binary,42,2,trial,16347608.0,16353208.0,5600.0,42,R,16348637,16348759,124,245.4,613.2,4687,left
8,1,binary,42,2,trial,16347608.0,16353208.0,5600.0,42,R,16348827,16348995,170,1264.9,506.4,4920,right
8,1,binary,42,2,trial,16347608.0,16353208.0,5600.0,42,R,16349011,16349591,582,1307.4,459.2,5158,right
8,1,binary,42,2,trial,16347608.0,16353208.0,5600.0,42,R,16349615,16349791,178,1322.2,565.9,5253,right
8,1,binary,42,2,trial,16347608.0,16353208.0,5600.0,42,R,16349807,16350181,376,1381.3,529.5,5251,right
8,1,binary,42,2,trial,16347608.0,16353208.0,5600.0,42,R,16350199,16350367,170,1319.1,516.2,5321,right
8,1,binary,42,2,trial,16347608.0,16353208.0,5600.0,42,R,16350385,16350733,350,1325.6,465.0,5347,right
8,1,binary,42,2,trial,16347608.0,16353208.0,5600.0,42,R,16350749,16351261,514,1330.3,508.0,5416,right
8,1,binary,42,2,trial,16347608.0,16353208.0,5600.0,42,R,16351281,16351473,194,1411.5,495.3,5446,right
8,1,binary,42,2,trial,16347608.0,16353208.0,5600.0,42,R,16351493,16351917,426,1327.4,501.7,5480,right
8,1,binary,42,2,trial,16347608.0,16353208.0,5600.0,42,R,16351949,16352033,86,1218.4,591.6,5432,right
8,1,binary,42,2,trial,16347608.0,16353208.0,5600.0,42,R,16352099,16352303,206,359.8,506.7,5119,left
8,1,binary,42,2,trial,16347608.0,16353208.0,5600.0,42,R,16352325,16352391,68,461.4,500.4,5028,left
8,1,binary,42,2,trial,16347608.0,16353208.0,5600.0,42,R,16352511,16352639,130,242.9,629.7,4810,left
8,1,binary,42,2,trial,16347608.0,16353208.0,5600.0,42,R,16352705,16352837,134,1323.5,449.9,4992,right
8,1,binary,42,2,trial,16347608.0,16353208.0,5600.0,42,R,16352845,16353173,330,1314.5,427.4,5003,right
8,1,binary,42,2,postResponse,16347608.0,16353208.0,5600.0,42,R,16353205,16353541,338,1247.2,570.0,5016,right
8,1,binary,43,2,fixationCross,16354308.0,16356475.0,2167.0,43,R,16353641,16353673,34,1251.6,582.6,5110,right
8,1,binary,43,2,fixationCross,16354308.0,16356475.0,2167.0,43,R,16353697,16353997,302,1154.1,553.3,5344,NA
8,1,binary,43,2,trial,16354308.0,16356475.0,2167.0,43,R,16354031,16354479,450,906.3,549.9,5691,NA
8,1,binary,43,2,trial,16354308.0,16356475.0,2167.0,43,R,16354571,16354693,124,1366.0,532.9,5813,right
8,1,binary,43,2,trial,16354308.0,16356475.0,2167.0,43,R,16354809,16355001,194,508.8,503.6,5246,left
8,1,binary,43,2,trial,16354308.0,16356475.0,2167.0,43,R,16355025,16355227,204,393.2,524.4,5267,left
8,1,binary,43,2,trial,16354308.0,16356475.0,2167.0,43,R,16355293,16355491,200,1313.0,532.4,5449,right
8,1,binary,43,2,trial,16354308.0,16356475.0,2167.0,43,R,16355513,16355685,174,1400.5,527.3,5382,right
8,1,binary,43,2,trial,16354308.0,16356475.0,2167.0,43,R,16355727,16355989,264,1363.8,963.0,5497,NA
8,1,binary,43,2,trial,16354308.0,16356475.0,2167.0,43,R,16356059,16356331,274,455.8,458.2,5282,left
8,1,binary,43,2,postResponse,16354308.0,16356475.0,2167.0,43,R,16356391,16356809,420,1291.2,524.5,5448,right
8,1,binary,44,1,fixationCross,16357642.0,16360558.0,2916.0,44,R,16356929,16357169,242,989.7,495.0,5611,NA
8,1,binary,44,1,fixationCross,16357642.0,16360558.0,2916.0,44,R,16357527,16357629,104,935.2,497.9,5960,NA
8,1,binary,44,1,trial,16357642.0,16360558.0,2916.0,44,R,16357639,16357801,164,907.8,512.5,6000,NA
8,1,binary,44,1,trial,16357642.0,16360558.0,2916.0,44,R,16357847,16358117,272,479.6,482.2,5718,left
8,1,binary,44,1,trial,16357642.0,16360558.0,2916.0,44,R,16358139,16358309,172,387.6,531.4,5270,left
8,1,binary,44,1,trial,16357642.0,16360558.0,2916.0,44,R,16358439,16358505,68,263.3,586.1,5157,left
8,1,binary,44,1,trial,16357642.0,16360558.0,2916.0,44,R,16358545,16358665,122,453.3,454.5,5168,left
8,1,binary,44,1,trial,16357642.0,16360558.0,2916.0,44,R,16358729,16358955,228,1325.1,538.9,5362,right
8,1,binary,44,1,trial,16357642.0,16360558.0,2916.0,44,R,16358973,16359225,254,1405.1,555.2,5502,right
8,1,binary,44,1,trial,16357642.0,16360558.0,2916.0,44,R,16359271,16359549,280,1357.6,400.6,5541,right
8,1,binary,44,1,trial,16357642.0,16360558.0,2916.0,44,R,16359583,16359923,342,1558.0,572.2,5553,right
8,1,binary,44,1,trial,16357642.0,16360558.0,2916.0,44,R,16359941,16360123,184,1519.0,632.1,5617,right
8,1,binary,44,1,trial,16357642.0,16360558.0,2916.0,44,R,16360203,16360327,126,503.7,887.9,5414,NA
8,1,binary,44,1,trial,16357642.0,16360558.0,2916.0,44,R,16360353,16360471,120,438.1,1020.7,5331,NA
8,1,binary,44,1,postResponse,16357642.0,16360558.0,2916.0,44,R,16360521,16360877,358,344.0,483.5,5139,left
8,1,binary,45,1,fixationCross,16361658.0,16364175.0,2517.0,45,R,16361103,16361353,252,700.5,515.5,5459,left
8,1,binary,45,1,trial,16361658.0,16364175.0,2517.0,45,R,16361379,16361815,438,888.1,519.6,5733,NA
8,1,binary,45,1,trial,16361658.0,16364175.0,2517.0,45,R,16361865,16362055,192,488.5,534.3,5556,left
8,1,binary,45,1,trial,16361658.0,16364175.0,2517.0,45,R,16362175,16362267,94,298.3,549.4,4991,left
8,1,binary,45,1,trial,16361658.0,16364175.0,2517.0,45,R,16362307,16362469,164,569.2,501.7,5012,left
8,1,binary,45,1,trial,16361658.0,16364175.0,2517.0,45,R,16362485,16362691,208,597.3,477.2,5026,left
8,1,binary,45,1,trial,16361658.0,16364175.0,2517.0,45,R,16362749,16362925,178,1350.6,491.7,5261,right
8,1,binary,45,1,trial,16361658.0,16364175.0,2517.0,45,R,16362949,16363075,128,1512.6,500.7,5256,right
8,1,binary,45,1,trial,16361658.0,16364175.0,2517.0,45,R,16363087,16363317,232,1559.3,474.6,5259,right
8,1,binary,45,1,trial,16361658.0,16364175.0,2517.0,45,R,16363363,16363655,294,1200.7,515.8,5357,right
8,1,binary,45,1,trial,16361658.0,16364175.0,2517.0,45,R,16363681,16364039,360,1266.3,660.2,5441,right
8,1,binary,45,1,postResponse,16361658.0,16364175.0,2517.0,45,R,16364109,16364505,398,410.5,518.8,5054,left
8,1,binary,46,1,fixationCross,16365625.0,16370542.0,4917.0,46,R,16364579,16364809,232,404.0,526.4,5057,left
8,1,binary,46,1,fixationCross,16365625.0,16370542.0,4917.0,46,R,16365019,16365107,90,840.3,603.0,5537,NA
8,1,binary,46,1,trial,16365625.0,16370542.0,4917.0,46,R,16365297,16365823,528,873.8,537.1,5872,NA
8,1,binary,46,1,trial,16365625.0,16370542.0,4917.0,46,R,16365879,16366033,156,479.3,514.4,5616,left
8,1,binary,46,1,trial,16365625.0,16370542.0,4917.0,46,R,16366093,16366337,246,1369.3,516.8,5418,right
8,1,binary,46,1,trial,16365625.0,16370542.0,4917.0,46,R,16366355,16366557,204,1436.2,504.0,5301,right
8,1,binary,46,1,trial,16365625.0,16370542.0,4917.0,46,R,16366685,16366837,154,444.3,495.3,5316,left
8,1,binary,46,1,trial,16365625.0,16370542.0,4917.0,46,R,16366901,16367059,160,1398.6,523.3,5649,right
8,1,binary,46,1,trial,16365625.0,16370542.0,4917.0,46,R,16367083,16367543,462,1510.7,480.7,5707,right
8,1,binary,46,1,trial,16365625.0,16370542.0,4917.0,46,R,16367569,16367749,182,1364.2,441.1,5673,right
8,1,binary,46,1,trial,16365625.0,16370542.0,4917.0,46,R,16367819,16368005,188,457.0,486.0,5464,left
8,1,binary,46,1,trial,16365625.0,16370542.0,4917.0,46,R,16368023,16368293,272,397.0,534.7,5431,left
8,1,binary,46,1,trial,16365625.0,16370542.0,4917.0,46,R,16368305,16368489,186,439.6,540.6,5301,left
8,1,binary,46,1,trial,16365625.0,16370542.0,4917.0,46,R,16368515,16368677,164,333.1,480.9,5089,left
8,1,binary,46,1,trial,16365625.0,16370542.0,4917.0,46,R,16368687,16368853,168,303.6,492.3,5009,left
8,1,binary,46,1,trial,16365625.0,16370542.0,4917.0,46,R,16368875,16369355,482,412.6,527.4,5063,left
8,1,binary,46,1,trial,16365625.0,16370542.0,4917.0,46,R,16369377,16369561,186,396.2,615.4,4990,left
8,1,binary,46,1,trial,16365625.0,16370542.0,4917.0,46,R,16369575,16369747,174,400.8,561.7,4897,left
8,1,binary,46,1,trial,16365625.0,16370542.0,4917.0,46,R,16369813,16370029,218,1363.5,522.7,5131,right
8,1,binary,46,1,trial,16365625.0,16370542.0,4917.0,46,R,16370055,16370309,256,1483.7,528.3,5171,right
8,1,binary,46,1,trial,16365625.0,16370542.0,4917.0,46,R,16370335,16370499,166,1353.8,439.5,5288,right
8,1,binary,46,1,trial,16365625.0,16370542.0,4917.0,46,R,16370535,16370747,214,1335.2,717.7,5283,right
8,1,binary,47,1,fixationCross,16371708.0,16373892.0,2184.0,47,R,16370985,16371239,256,726.3,594.9,5290,left
8,1,binary,47,1,fixationCross,16371708.0,16373892.0,2184.0,47,R,16371265,16371419,156,835.9,532.7,5496,NA
8,1,binary,47,1,trial,16371708.0,16373892.0,2184.0,47,R,16371431,16371875,446,882.3,547.8,5600,NA
8,1,binary,47,1,trial,16371708.0,16373892.0,2184.0,47,R,16371917,16372083,168,579.5,519.7,5485,left
8,1,binary,47,1,trial,16371708.0,16373892.0,2184.0,47,R,16372107,16372513,408,418.4,483.1,4914,left
8,1,binary,47,1,trial,16371708.0,16373892.0,2184.0,47,R,16372539,16373001,464,318.2,628.3,4734,left
8,1,binary,47,1,trial,16371708.0,16373892.0,2184.0,47,R,16373067,16373299,234,1271.8,508.4,5010,right
8,1,binary,47,1,trial,16371708.0,16373892.0,2184.0,47,R,16373319,16373513,196,1343.5,520.6,5014,right
8,1,binary,47,1,trial,16371708.0,16373892.0,2184.0,47,R,16373577,16373771,196,442.8,491.7,5063,left
8,1,binary,47,1,trial,16371708.0,16373892.0,2184.0,47,R,16373791,16374183,394,370.5,516.5,5082,left
8,1,binary,48,1,fixationCross,16374992.0,16376775.0,1783.0,48,R,16374343,16374659,318,550.3,574.9,5004,left
8,1,binary,48,1,trial,16374992.0,16376775.0,1783.0,48,R,16374701,16375165,466,878.8,549.7,5505,NA
8,1,binary,48,1,trial,16374992.0,16376775.0,1783.0,48,R,16375211,16375395,186,460.8,574.9,5257,left
8,1,binary,48,1,trial,16374992.0,16376775.0,1783.0,48,R,16375413,16375645,234,384.5,590.4,4625,left
8,1,binary,48,1,trial,16374992.0,16376775.0,1783.0,48,R,16375667,16375813,148,357.0,525.9,4504,left
8,1,binary,48,1,trial,16374992.0,16376775.0,1783.0,48,R,16375859,16375953,96,384.3,950.4,4660,NA
8,1,binary,48,1,trial,16374992.0,16376775.0,1783.0,48,R,16376017,16376321,306,1239.9,597.8,5006,right
8,1,binary,48,1,trial,16374992.0,16376775.0,1783.0,48,R,16376343,16376513,172,1153.4,650.3,5121,NA
8,1,binary,48,1,postResponse,16374992.0,16376775.0,1783.0,48,R,16376575,16377111,538,368.6,555.8,4971,left
8,1,binary,49,1,fixationCross,16377908.0,16379825.0,1917.0,49,R,16377185,16377585,402,380.2,562.3,5160,left
8,1,binary,49,1,trial,16377908.0,16379825.0,1917.0,49,R,16377631,16378077,448,868.4,560.7,5672,NA
8,1,binary,49,1,trial,16377908.0,16379825.0,1917.0,49,R,16378123,16378273,152,501.1,511.0,5675,left
8,1,binary,49,1,trial,16377908.0,16379825.0,1917.0,49,R,16378301,16378481,182,313.0,550.8,5271,left
8,1,binary,49,1,trial,16377908.0,16379825.0,1917.0,49,R,16378509,16378699,192,471.4,491.3,5275,left
8,1,binary,49,1,trial,16377908.0,16379825.0,1917.0,49,R,16378725,16378919,196,333.8,482.0,5254,left
8,1,binary,49,1,trial,16377908.0,16379825.0,1917.0,49,R,16378985,16379133,150,1279.6,450.1,5582,right
8,1,binary,49,1,trial,16377908.0,16379825.0,1917.0,49,R,16379155,16379345,192,1374.7,454.4,5675,right
8,1,binary,49,1,trial,16377908.0,16379825.0,1917.0,49,R,16379467,16379711,246,414.8,508.4,5496,left
8,1,binary,49,1,trial,16377908.0,16379825.0,1917.0,49,R,16379735,16380119,386,340.6,507.6,5422,left
8,1,binary,50,1,fixationCross,16380925.0,16382775.0,1850.0,50,R,16380323,16380597,276,488.9,529.8,5378,left
8,1,binary,50,1,fixationCross,16380925.0,16382775.0,1850.0,50,R,16380643,16380849,208,878.4,543.1,5747,NA
8,1,binary,50,1,trial,16380925.0,16382775.0,1850.0,50,R,16380859,16381141,284,904.9,553.2,5834,NA
8,1,binary,50,1,trial,16380925.0,16382775.0,1850.0,50,R,16381189,16381713,526,432.1,517.8,5301,left
8,1,binary,50,1,trial,16380925.0,16382775.0,1850.0,50,R,16381783,16382009,228,1404.7,537.9,5334,right
8,1,binary,50,1,trial,16380925.0,16382775.0,1850.0,50,R,16382031,16382229,200,1322.9,480.0,5317,right
8,1,binary,50,1,trial,16380925.0,16382775.0,1850.0,50,R,16382299,16382539,242,436.1,561.3,5281,left
8,1,binary,50,1,postResponse,16380925.0,16382775.0,1850.0,50,R,16382567,16383109,544,405.1,449.6,5126,left
8,2,continuous,1,83,fixationCross,16493594.0,16497426.0,3832.0,51,R,16492998,16493256,260,937.0,503.4,6553,NA
8,2,continuous,1,83,fixationCross,16493594.0,16497426.0,3832.0,51,R,16493276,16493392,118,882.8,445.8,6546,NA
8,2,continuous,1,83,fixationCross,16493594.0,16497426.0,3832.0,51,R,16493418,16493530,114,965.6,542.0,6554,NA
8,2,continuous,1,83,trial,16493594.0,16497426.0,3832.0,51,R,16493690,16493770,82,975.3,490.1,6725,NA
8,2,continuous,1,83,trial,16493594.0,16497426.0,3832.0,51,R,16493816,16493958,144,611.1,546.3,6600,left
8,2,continuous,1,83,trial,16493594.0,16497426.0,3832.0,51,R,16494000,16494150,152,656.8,953.1,6471,NA
8,2,continuous,1,83,trial,16493594.0,16497426.0,3832.0,51,R,16494198,16494318,122,562.1,646.5,6215,left
8,2,continuous,1,83,trial,16493594.0,16497426.0,3832.0,51,R,16494358,16494456,100,552.7,993.8,6193,NA
8,2,continuous,1,83,trial,16493594.0,16497426.0,3832.0,51,R,16494520,16494718,200,1407.0,563.7,6235,right
8,2,continuous,1,83,trial,16493594.0,16497426.0,3832.0,51,R,16494746,16494870,126,1506.7,698.6,6153,right
8,2,continuous,1,83,trial,16493594.0,16497426.0,3832.0,51,R,16494936,16495108,174,568.1,590.7,5852,left
8,2,continuous,1,83,trial,16493594.0,16497426.0,3832.0,51,R,16495120,16495150,32,541.6,621.7,5767,left
8,2,continuous,1,83,trial,16493594.0,16497426.0,3832.0,51,R,16495218,16495380,164,1499.0,637.2,5993,right
8,2,continuous,1,83,trial,16493594.0,16497426.0,3832.0,51,R,16495394,16495540,148,1487.2,683.9,6001,right
8,2,continuous,1,83,trial,16493594.0,16497426.0,3832.0,51,R,16495578,16495794,218,1330.5,484.5,5948,right
8,2,continuous,1,83,trial,16493594.0,16497426.0,3832.0,51,R,16495834,16496048,216,1528.2,726.3,5891,right
8,2,continuous,1,83,trial,16493594.0,16497426.0,3832.0,51,R,16496094,16496190,98,1141.9,974.7,5882,likertHorizontal
8,2,continuous,1,83,trial,16493594.0,16497426.0,3832.0,51,R,16496358,16496396,40,1257.8,935.5,5998,NA
8,2,continuous,1,83,trial,16493594.0,16497426.0,3832.0,51,R,16496436,16496776,342,1494.9,727.2,6089,right
8,2,continuous,1,83,trial,16493594.0,16497426.0,3832.0,51,R,16496822,16496946,126,1164.8,1020.1,6236,likertHorizontal
8,2,continuous,1,83,trial,16493594.0,16497426.0,3832.0,51,R,16496958,16497142,186,1203.4,995.8,6152,NA
8,2,continuous,1,83,trial,16493594.0,16497426.0,3832.0,51,R,16497158,16497254,98,1280.4,997.9,6059,NA
8,2,continuous,1,83,trial,16493594.0,16497426.0,3832.0,51,R,16497304,16497638,336,1355.7,491.9,6036,right
8,2,continuous,1,83,postResponse,16493594.0,16497426.0,3832.0,51,R,16497698,16497770,74,792.8,628.5,6030,NA
8,2,continuous,2,89,fixationCross,16498560.0,16501760.0,3200.0,52,R,16498078,16498244,168,848.2,600.0,6223,NA
8,2,continuous,2,89,trial,16498560.0,16501760.0,3200.0,52,R,16498262,16498786,526,920.6,563.1,6426,NA
8,2,continuous,2,89,trial,16498560.0,16501760.0,3200.0,52,R,16498856,16499154,300,1370.9,586.9,5618,right
8,2,continuous,2,89,trial,16498560.0,16501760.0,3200.0,52,R,16499180,16499250,72,1242.7,565.0,5325,right
8,2,continuous,2,89,trial,16498560.0,16501760.0,3200.0,52,R,16499316,16499558,244,486.3,583.9,5143,left
8,2,continuous,2,89,trial,16498560.0,16501760.0,3200.0,52,R,16499582,16499798,218,428.5,653.7,5122,left
8,2,continuous,2,89,trial,16498560.0,16501760.0,3200.0,52,R,16499838,16500026,190,530.7,1005.5,5058,NA
8,2,continuous,2,89,trial,16498560.0,16501760.0,3200.0,52,R,16500058,16500208,152,754.4,1018.0,5026,likertHorizontal
8,2,continuous,2,89,trial,16498560.0,16501760.0,3200.0,52,R,16500260,16500376,118,1324.0,1015.8,5161,NA
8,2,continuous,2,89,trial,16498560.0,16501760.0,3200.0,52,R,16500394,16500520,128,1391.2,1028.7,5278,NA
8,2,continuous,2,89,trial,16498560.0,16501760.0,3200.0,52,R,16500566,16500916,352,1300.2,603.1,5467,right
8,2,continuous,2,89,trial,16498560.0,16501760.0,3200.0,52,R,16500960,16501140,182,1322.6,958.0,5650,NA
8,2,continuous,2,89,trial,16498560.0,16501760.0,3200.0,52,R,16501158,16501366,210,1261.3,1005.4,5654,NA
8,2,continuous,2,89,trial,16498560.0,16501760.0,3200.0,52,R,16501414,16501652,240,1322.6,617.8,5660,right
8,2,continuous,2,89,postResponse,16498560.0,16501760.0,3200.0,52,R,16501664,16502094,432,1332.8,595.3,5619,right
8,2,continuous,3,83,fixationCross,16502977.0,16506944.0,3967.0,53,R,16502176,16502668,494,1132.4,572.8,5777,NA
8,2,continuous,3,83,trial,16502977.0,16506944.0,3967.0,53,R,16502696,16503142,448,942.3,557.0,6064,NA
8,2,continuous,3,83,trial,16502977.0,16506944.0,3967.0,53,R,16503180,16503272,94,1266.8,557.8,6115,right
8,2,continuous,3,83,trial,16502977.0,16506944.0,3967.0,53,R,16503418,16503554,138,1293.7,593.1,5323,right
8,2,continuous,3,83,trial,16502977.0,16506944.0,3967.0,53,R,16503598,16503818,222,1541.3,524.4,5260,right
8,2,continuous,3,83,trial,16502977.0,16506944.0,3967.0,53,R,16503894,16504090,198,426.4,555.6,5014,left
8,2,continuous,3,83,trial,16502977.0,16506944.0,3967.0,53,R,16504112,16504856,746,311.5,607.4,4692,left
8,2,continuous,3,83,trial,16502977.0,16506944.0,3967.0,53,R,16504928,16505096,170,1288.7,584.9,4865,right
8,2,continuous,3,83,trial,16502977.0,16506944.0,3967.0,53,R,16505112,16505306,196,1225.8,566.9,4888,right
8,2,continuous,3,83,trial,16502977.0,16506944.0,3967.0,53,R,16505336,16505714,380,1266.0,740.8,5129,NA
8,2,continuous,3,83,trial,16502977.0,16506944.0,3967.0,53,R,16505756,16505896,142,1521.4,525.4,5132,right
8,2,continuous,3,83,trial,16502977.0,16506944.0,3967.0,53,R,16505906,16506104,200,1542.3,515.6,5083,right
8,2,continuous,3,83,trial,16502977.0,16506944.0,3967.0,53,R,16506162,16506366,206,1134.5,1048.8,5232,likertHorizontal
8,2,continuous,3,83,trial,16502977.0,16506944.0,3967.0,53,R,16506394,16506564,172,1333.5,1038.7,5260,NA
8,2,continuous,3,83,trial,16502977.0,16506944.0,3967.0,53,R,16506586,16506966,382,1218.8,1024.3,5319,NA
8,2,continuous,3,83,postResponse,16502977.0,16506944.0,3967.0,53,R,16507120,16507276,158,1217.7,638.9,5498,right
8,2,continuous,4,2,fixationCross,16507860.0,16511877.0,4017.0,54,R,16507376,16507478,104,1220.2,642.7,5579,right
8,2,continuous,4,2,fixationCross,16507860.0,16511877.0,4017.0,54,R,16507510,16507742,234,978.7,597.9,5719,NA
8,2,continuous,4,2,trial,16507860.0,16511877.0,4017.0,54,R,16507756,16508036,282,928.1,586.0,5796,NA
8,2,continuous,4,2,trial,16507860.0,16511877.0,4017.0,54,R,16508082,16508306,226,1338.8,599.3,5604,right
8,2,continuous,4,2,trial,16507860.0,16511877.0,4017.0,54,R,16508376,16508542,168,455.7,507.7,4791,left
8,2,continuous,4,2,trial,16507860.0,16511877.0,4017.0,54,R,16508562,16508870,310,360.2,478.3,4691,left
8,2,continuous,4,2,trial,16507860.0,16511877.0,4017.0,54,R,16508890,16509290,402,420.3,529.6,4602,left
8,2,continuous,4,2,trial,16507860.0,16511877.0,4017.0,54,R,16509348,16509378,32,1055.9,551.1,4846,NA
8,2,continuous,4,2,trial,16507860.0,16511877.0,4017.0,54,R,16509444,16509598,156,329.8,537.2,4628,left
8,2,continuous,4,2,trial,16507860.0,16511877.0,4017.0,54,R,16509620,16509770,152,442.8,532.0,4672,left
8,2,continuous,4,2,trial,16507860.0,16511877.0,4017.0,54,R,16509786,16509958,174,519.5,559.6,4793,left
8,2,continuous,4,2,trial,16507860.0,16511877.0,4017.0,54,R,16510086,16510214,130,1455.5,554.9,4954,right
8,2,continuous,4,2,trial,16507860.0,16511877.0,4017.0,54,R,16510238,16510592,356,1545.3,513.6,4960,right
8,2,continuous,4,2,trial,16507860.0,16511877.0,4017.0,54,R,16510752,16510888,138,646.1,1003.5,4943,NA
8,2,continuous,4,2,trial,16507860.0,16511877.0,4017.0,54,R,16510914,16511238,326,482.0,1045.7,4968,NA
8,2,continuous,4,2,trial,16507860.0,16511877.0,4017.0,54,R,16511250,16511898,650,496.7,1045.9,5123,NA
8,2,continuous,4,2,trial,16507860.0,16511877.0,4017.0,54,R,16511948,16512140,194,497.4,560.4,5172,left
8,2,continuous,5,83,fixationCross,16512994.0,16518077.0,5083.0,55,R,16512352,16512388,38,780.1,563.4,5450,NA
8,2,continuous,5,83,fixationCross,16512994.0,16518077.0,5083.0,55,R,16512404,16512682,280,779.8,634.3,5544,NA
8,2,continuous,5,83,trial,16512994.0,16518077.0,5083.0,55,R,16512704,16513154,452,904.3,569.9,5863,NA
8,2,continuous,5,83,trial,16512994.0,16518077.0,5083.0,55,R,16513198,16513370,174,547.4,539.2,5558,left
8,2,continuous,5,83,trial,16512994.0,16518077.0,5083.0,55,R,16513396,16513594,200,399.3,510.0,4829,left
8,2,continuous,5,83,trial,16512994.0,16518077.0,5083.0,55,R,16513608,16513780,174,449.9,521.6,4591,left
8,2,continuous,5,83,trial,16512994.0,16518077.0,5083.0,55,R,16513802,16513948,148,563.5,541.5,4519,left
8,2,continuous,5,83,trial,16512994.0,16518077.0,5083.0,55,R,16513976,16514114,140,375.2,515.0,4479,left
8,2,continuous,5,83,trial,16512994.0,16518077.0,5083.0,55,R,16514180,16514392,214,1247.5,521.9,4772,right
8,2,continuous,5,83,trial,16512994.0,16518077.0,5083.0,55,R,16514404,16514976,574,1288.5,501.9,5055,right
8,2,continuous,5,83,trial,16512994.0,16518077.0,5083.0,55,R,16514990,16515184,196,1353.2,508.0,5209,right
8,2,continuous,5,83,trial,16512994.0,16518077.0,5083.0,55,R,16515372,16515500,130,1299.6,525.4,5266,right
8,2,continuous,5,83,trial,16512994.0,16518077.0,5083.0,55,R,16515560,16515718,160,524.7,528.5,5183,left
8,2,continuous,5,83,trial,16512994.0,16518077.0,5083.0,55,R,16515738,16516146,410,400.1,498.4,5027,left
8,2,continuous,5,83,trial,16512994.0,16518077.0,5083.0,55,R,16516174,16516522,350,598.4,529.9,4744,left
8,2,continuous,5,83,trial,16512994.0,16518077.0,5083.0,55,R,16516546,16516792,248,557.9,693.9,4690,left
8,2,continuous,5,83,trial,16512994.0,16518077.0,5083.0,55,R,16516814,16516900,88,459.0,645.8,4731,left
8,2,continuous,5,83,trial,16512994.0,16518077.0,5083.0,55,R,16516964,16517174,212,1350.2,491.3,5093,right
8,2,continuous,5,83,trial,16512994.0,16518077.0,5083.0,55,R,16517190,16517376,188,1275.6,489.2,5114,right
8,2,continuous,5,83,trial,16512994.0,16518077.0,5083.0,55,R,16517428,16518094,668,1263.4,1019.9,5190,NA
8,2,continuous,5,83,trial,16512994.0,16518077.0,5083.0,55,R,16518142,16518364,224,1242.4,651.2,5346,right
8,2,continuous,6,1,trial,16518977.0,16523177.0,4200.0,56,R,16518548,16519150,604,934.6,580.9,5702,NA
8,2,continuous,6,1,trial,16518977.0,16523177.0,4200.0,56,R,16519196,16519308,114,1349.7,619.6,5763,right
8,2,continuous,6,1,trial,16518977.0,16523177.0,4200.0,56,R,16519322,16519692,372,1379.2,606.8,5095,right
8,2,continuous,6,1,trial,16518977.0,16523177.0,4200.0,56,R,16519736,16519886,152,1316.9,904.9,5093,NA
8,2,continuous,6,1,trial,16518977.0,16523177.0,4200.0,56,R,16519918,16520170,254,1132.8,793.6,5272,likertHorizontal
8,2,continuous,6,1,trial,16518977.0,16523177.0,4200.0,56,R,16520180,16520308,130,1109.2,823.1,5455,likertHorizontal
8,2,continuous,6,1,trial,16518977.0,16523177.0,4200.0,56,R,16520354,16520512,160,1442.3,592.1,5559,right
8,2,continuous,6,1,trial,16518977.0,16523177.0,4200.0,56,R,16520524,16520766,244,1396.7,571.8,5561,right
8,2,continuous,6,1,trial,16518977.0,16523177.0,4200.0,56,R,16520924,16521120,198,548.2,592.0,5323,left
8,2,continuous,6,1,trial,16518977.0,16523177.0,4200.0,56,R,16521138,16521300,164,450.5,593.8,5194,left
8,2,continuous,6,1,trial,16518977.0,16523177.0,4200.0,56,R,16521364,16521770,408,1382.6,568.3,5036,right
8,2,continuous,6,1,trial,16518977.0,16523177.0,4200.0,56,R,16521844,16522216,374,378.4,663.6,4887,left
8,2,continuous,6,1,trial,16518977.0,16523177.0,4200.0,56,R,16522260,16522520,262,526.3,1018.3,5023,NA
8,2,continuous,6,1,trial,16518977.0,16523177.0,4200.0,56,R,16522532,16522766,236,475.7,1044.6,4998,NA
8,2,continuous,6,1,trial,16518977.0,16523177.0,4200.0,56,R,16522774,16522944,172,455.3,1044.8,5167,NA
8,2,continuous,6,1,trial,16518977.0,16523177.0,4200.0,56,R,16522992,16523170,180,422.9,664.6,5262,left
8,2,continuous,6,1,postResponse,16518977.0,16523177.0,4200.0,56,R,16523194,16523512,320,390.5,571.5,5241,left
8,2,continuous,7,5,fixationCross,16524260.0,16528177.0,3917.0,57,R,16523588,16523696,110,391.4,570.4,5299,left
8,2,continuous,7,5,fixationCross,16524260.0,16528177.0,3917.0,57,R,16523730,16523944,216,647.1,637.4,5572,left
8,2,continuous,7,5,trial,16524260.0,16528177.0,3917.0,57,R,16523978,16524436,460,937.7,617.7,5920,NA
8,2,continuous,7,5,trial,16524260.0,16528177.0,3917.0,57,R,16524486,16524674,190,1422.6,578.6,5796,right
8,2,continuous,7,5,trial,16524260.0,16528177.0,3917.0,57,R,16524698,16524866,170,1424.8,501.9,5129,right
8,2,continuous,7,5,trial,16524260.0,16528177.0,3917.0,57,R,16525034,16525212,180,401.8,503.4,4937,left
8,2,continuous,7,5,trial,16524260.0,16528177.0,3917.0,57,R,16525230,16525590,362,367.9,540.5,5081,left
8,2,continuous,7,5,trial,16524260.0,16528177.0,3917.0,57,R,16525610,16525724,116,296.2,585.3,4957,left
8,2,continuous,7,5,trial,16524260.0,16528177.0,3917.0,57,R,16525792,16525914,124,1331.4,554.2,5056,right
8,2,continuous,7,5,trial,16524260.0,16528177.0,3917.0,57,R,16525940,16526326,388,1432.3,485.1,5099,right
8,2,continuous,7,5,trial,16524260.0,16528177.0,3917.0,57,R,16526402,16526598,198,369.5,609.2,5131,left
8,2,continuous,7,5,trial,16524260.0,16528177.0,3917.0,57,R,16526612,16527106,496,332.9,565.6,4988,left
8,2,continuous,7,5,trial,16524260.0,16528177.0,3917.0,57,R,16527132,16527402,272,293.6,666.2,4854,left
8,2,continuous,7,5,trial,16524260.0,16528177.0,3917.0,57,R,16527446,16527634,190,483.2,1004.2,5083,NA
8,2,continuous,7,5,trial,16524260.0,16528177.0,3917.0,57,R,16527652,16527802,152,511.6,1075.5,5161,NA
8,2,continuous,7,5,trial,16524260.0,16528177.0,3917.0,57,R,16527814,16527962,150,551.8,1061.6,5198,NA
8,2,continuous,7,5,trial,16524260.0,16528177.0,3917.0,57,R,16527974,16528402,430,503.7,1062.4,5250,NA
8,2,continuous,8,80,fixationCross,16529260.0,16534194.0,4934.0,58,R,16528592,16528622,32,658.6,479.8,5338,left
8,2,continuous,8,80,fixationCross,16529260.0,16534194.0,4934.0,58,R,16528634,16528922,290,658.0,541.9,5321,left
8,2,continuous,8,80,fixationCross,16529260.0,16534194.0,4934.0,58,R,16528954,16529080,128,876.1,574.8,5570,NA
8,2,continuous,8,80,trial,16529260.0,16534194.0,4934.0,58,R,16529092,16529416,326,921.6,581.9,5724,NA
8,2,continuous,8,80,trial,16529260.0,16534194.0,4934.0,58,R,16529464,16529670,208,497.8,539.0,5517,left
8,2,continuous,8,80,trial,16529260.0,16534194.0,4934.0,58,R,16529696,16529912,218,324.2,558.6,5090,left
8,2,continuous,8,80,trial,16529260.0,16534194.0,4934.0,58,R,16529940,16530172,234,500.7,540.2,5020,left
8,2,continuous,8,80,trial,16529260.0,16534194.0,4934.0,58,R,16530252,16530510,260,1341.4,574.8,5189,right
8,2,continuous,8,80,trial,16529260.0,16534194.0,4934.0,58,R,16530526,16530662,138,1391.1,588.2,5227,right
8,2,continuous,8,80,trial,16529260.0,16534194.0,4934.0,58,R,16530734,16530998,266,493.5,448.5,5026,left
8,2,continuous,8,80,trial,16529260.0,16534194.0,4934.0,58,R,16531024,16531272,250,555.7,579.7,5059,left
8,2,continuous,8,80,trial,16529260.0,16534194.0,4934.0,58,R,16531310,16531532,224,298.1,518.7,5059,left
8,2,continuous,8,80,trial,16529260.0,16534194.0,4934.0,58,R,16531572,16531596,26,532.2,463.6,4993,left
8,2,continuous,8,80,trial,16529260.0,16534194.0,4934.0,58,R,16531668,16531954,288,1429.8,583.1,5110,right
8,2,continuous,8,80,trial,16529260.0,16534194.0,4934.0,58,R,16531978,16532308,332,1319.7,545.6,5238,right
8,2,continuous,8,80,trial,16529260.0,16534194.0,4934.0,58,R,16532430,16532674,246,415.7,483.1,4770,left
8,2,continuous,8,80,trial,16529260.0,16534194.0,4934.0,58,R,16532696,16532898,204,464.5,414.8,4769,left
8,2,continuous,8,80,trial,16529260.0,16534194.0,4934.0,58,R,16532920,16533088,170,360.8,402.5,4766,left
8,2,continuous,8,80,trial,16529260.0,16534194.0,4934.0,58,R,16533116,16533304,190,313.9,547.7,4757,left
8,2,continuous,8,80,trial,16529260.0,16534194.0,4934.0,58,R,16533334,16533514,182,535.0,544.1,4813,left
8,2,continuous,8,80,trial,16529260.0,16534194.0,4934.0,58,R,16533572,16533778,208,1134.4,981.8,5144,likertHorizontal
8,2,continuous,8,80,trial,16529260.0,16534194.0,4934.0,58,R,16533804,16533962,160,1278.7,1034.9,5165,NA
8,2,continuous,8,80,trial,16529260.0,16534194.0,4934.0,58,R,16533972,16534404,434,1226.7,1032.6,5319,NA
8,2,continuous,9,83,fixationCross,16535110.0,16542927.0,7817.0,59,R,16534630,16535062,434,867.4,559.3,5556,NA
8,2,continuous,9,83,trial,16535110.0,16542927.0,7817.0,59,R,16535074,16535266,194,920.5,573.3,5795,NA
8,2,continuous,9,83,trial,16535110.0,16542927.0,7817.0,59,R,16535314,16535490,178,478.1,542.0,5520,left
8,2,continuous,9,83,trial,16535110.0,16542927.0,7817.0,59,R,16535518,16535764,248,308.5,563.6,4738,left
8,2,continuous,9,83,trial,16535110.0,16542927.0,7817.0,59,R,16535786,16535946,162,263.9,650.2,4502,left
8,2,continuous,9,83,trial,16535110.0,16542927.0,7817.0,59,R,16535978,16536214,238,249.0,544.0,4358,left
8,2,continuous,9,83,trial,16535110.0,16542927.0,7817.0,59,R,16536238,16536356,120,354.2,599.9,4293,left
8,2,continuous,9,83,trial,16535110.0,16542927.0,7817.0,59,R,16536426,16536656,232,1275.8,632.9,4558,right
8,2,continuous,9,83,trial,16535110.0,16542927.0,7817.0,59,R,16536692,16536778,88,1508.0,715.5,4725,right
8,2,continuous,9,83,trial,16535110.0,16542927.0,7817.0,59,R,16536914,16537050,138,1402.4,541.8,4959,right
8,2,continuous,9,83,trial,16535110.0,16542927.0,7817.0,59,R,16537068,16537304,238,1389.9,498.9,5115,right
8,2,continuous,9,83,trial,16535110.0,16542927.0,7817.0,59,R,16537502,16537736,236,354.5,544.0,4942,left
8,2,continuous,9,83,trial,16535110.0,16542927.0,7817.0,59,R,16537752,16537914,164,313.1,578.4,5013,left
8,2,continuous,9,83,trial,16535110.0,16542927.0,7817.0,59,R,16538072,16538208,138,333.3,594.0,4754,left
8,2,continuous,9,83,trial,16535110.0,16542927.0,7817.0,59,R,16538228,16538574,348,317.2,526.6,4562,left
8,2,continuous,9,83,trial,16535110.0,16542927.0,7817.0,59,R,16538606,16538726,122,475.7,612.4,4458,left
8,2,continuous,9,83,trial,16535110.0,16542927.0,7817.0,59,R,16538788,16538984,198,1306.4,676.2,4590,right
8,2,continuous,9,83,trial,16535110.0,16542927.0,7817.0,59,R,16539008,16539226,220,1432.4,675.5,4652,right
8,2,continuous,9,83,trial,16535110.0,16542927.0,7817.0,59,R,16539252,16539522,272,1370.8,507.4,4919,right
8,2,continuous,9,83,trial,16535110.0,16542927.0,7817.0,59,R,16539596,16539884,290,315.4,619.9,4965,left
8,2,continuous,9,83,trial,16535110.0,16542927.0,7817.0,59,R,16539904,16539964,62,433.4,602.2,5064,left
8,2,continuous,9,83,trial,16535110.0,16542927.0,7817.0,59,R,16540028,16540298,272,1365.8,608.5,5219,right
8,2,continuous,9,83,trial,16535110.0,16542927.0,7817.0,59,R,16540320,16540496,178,1387.6,708.0,5210,right
8,2,continuous,9,83,trial,16535110.0,16542927.0,7817.0,59,R,16540572,16540772,202,290.2,583.8,5078,left
8,2,continuous,9,83,trial,16535110.0,16542927.0,7817.0,59,R,16540796,16540986,192,390.8,562.4,4957,left
8,2,continuous,9,83,trial,16535110.0,16542927.0,7817.0,59,R,16541004,16541338,336,312.4,622.3,4774,left
8,2,continuous,9,83,trial,16535110.0,16542927.0,7817.0,59,R,16541358,16541602,246,359.6,590.1,4609,left
8,2,continuous,9,83,trial,16535110.0,16542927.0,7817.0,59,R,16541626,16541794,170,259.2,515.9,4479,left
8,2,continuous,9,83,trial,16535110.0,16542927.0,7817.0,59,R,16541912,16541958,48,412.6,511.7,4524,left
8,2,continuous,9,83,trial,16535110.0,16542927.0,7817.0,59,R,16542022,16542408,388,1313.0,727.3,4793,right
8,2,continuous,9,83,trial,16535110.0,16542927.0,7817.0,59,R,16542452,16542698,248,1136.0,963.2,5072,likertHorizontal
8,2,continuous,9,83,trial,16535110.0,16542927.0,7817.0,59,R,16542732,16542918,188,1336.4,878.2,5109,NA
8,2,continuous,9,83,trial,16535110.0,16542927.0,7817.0,59,R,16542944,16543162,220,1241.4,1032.4,5188,NA
8,2,continuous,10,89,fixationCross,16545028.0,16547828.0,2800.0,60,R,16543368,16543750,384,787.5,611.8,5475,NA
8,2,continuous,10,89,fixationCross,16545028.0,16547828.0,2800.0,60,R,16543766,16544154,390,876.3,625.7,5797,NA
8,2,continuous,10,89,fixationCross,16545028.0,16547828.0,2800.0,60,R,16544174,16544428,256,787.1,614.8,5760,NA
8,2,continuous,10,89,trial,16545028.0,16547828.0,2800.0,60,R,16544450,16545180,732,896.6,611.5,5942,NA
8,2,continuous,10,89,trial,16545028.0,16547828.0,2800.0,60,R,16545228,16545422,196,502.3,559.2,5565,left
8,2,continuous,10,89,trial,16545028.0,16547828.0,2800.0,60,R,16545484,16545680,198,1278.0,672.5,4839,right
8,2,continuous,10,89,trial,16545028.0,16547828.0,2800.0,60,R,16545702,16545986,286,1334.0,631.3,4592,right
8,2,continuous,10,89,trial,16545028.0,16547828.0,2800.0,60,R,16546056,16546282,228,469.7,563.6,4355,left
8,2,continuous,10,89,trial,16545028.0,16547828.0,2800.0,60,R,16546302,16546564,264,411.8,602.6,4420,left
8,2,continuous,10,89,trial,16545028.0,16547828.0,2800.0,60,R,16546630,16546858,230,1138.5,956.8,4681,likertHorizontal
8,2,continuous,10,89,trial,16545028.0,16547828.0,2800.0,60,R,16546886,16547034,150,1292.4,1060.5,4676,NA
8,2,continuous,10,89,trial,16545028.0,16547828.0,2800.0,60,R,16547052,16547206,156,1218.7,1051.7,4804,NA
8,2,continuous,10,89,trial,16545028.0,16547828.0,2800.0,60,R,16547218,16547452,236,1186.6,1044.0,4987,NA
8,2,continuous,10,89,trial,16545028.0,16547828.0,2800.0,60,R,16547470,16548004,536,1288.9,1021.1,5261,NA
8,2,continuous,11,9,fixationCross,16549111.0,16553744.0,4633.0,61,R,16548464,16548656,194,823.0,489.1,5543,NA
8,2,continuous,11,9,fixationCross,16549111.0,16553744.0,4633.0,61,R,16548672,16548806,136,890.9,511.4,5740,NA
8,2,continuous,11,9,fixationCross,16549111.0,16553744.0,4633.0,61,R,16549000,16549030,32,885.5,498.9,5717,NA
8,2,continuous,11,9,trial,16549111.0,16553744.0,4633.0,61,R,16549038,16549288,252,890.9,528.1,5513,NA
8,2,continuous,11,9,trial,16549111.0,16553744.0,4633.0,61,R,16549330,16549558,230,1252.6,553.1,5302,right
8,2,continuous,11,9,trial,16549111.0,16553744.0,4633.0,61,R,16549582,16549910,330,1366.8,554.9,4836,right
8,2,continuous,11,9,trial,16549111.0,16553744.0,4633.0,61,R,16549990,16550142,154,429.5,567.1,4645,left
8,2,continuous,11,9,trial,16549111.0,16553744.0,4633.0,61,R,16550156,16550396,242,400.1,584.4,4826,left
8,2,continuous,11,9,trial,16549111.0,16553744.0,4633.0,61,R,16550470,16550750,282,1336.2,620.4,5012,right
8,2,continuous,11,9,trial,16549111.0,16553744.0,4633.0,61,R,16550770,16551006,238,1380.0,564.3,4944,right
8,2,continuous,11,9,trial,16549111.0,16553744.0,4633.0,61,R,16551026,16551232,208,1386.0,455.9,5070,right
8,2,continuous,11,9,trial,16549111.0,16553744.0,4633.0,61,R,16551310,16551446,138,311.2,591.9,4925,left
8,2,continuous,11,9,trial,16549111.0,16553744.0,4633.0,61,R,16551462,16551676,216,385.7,599.8,4882,left
8,2,continuous,11,9,trial,16549111.0,16553744.0,4633.0,61,R,16551694,16552022,330,441.3,564.9,4654,left
8,2,continuous,11,9,trial,16549111.0,16553744.0,4633.0,61,R,16552116,16552304,190,1350.7,537.9,4773,right
8,2,continuous,11,9,trial,16549111.0,16553744.0,4633.0,61,R,16552432,16552568,138,1417.9,517.6,4865,right
8,2,continuous,11,9,trial,16549111.0,16553744.0,4633.0,61,R,16552586,16552876,292,1412.4,447.4,5073,right
8,2,continuous,11,9,trial,16549111.0,16553744.0,4633.0,61,R,16552904,16553098,196,1401.3,618.2,5140,right
8,2,continuous,11,9,trial,16549111.0,16553744.0,4633.0,61,R,16553170,16553464,296,627.7,1024.8,5023,NA
8,2,continuous,11,9,trial,16549111.0,16553744.0,4633.0,61,R,16553478,16553974,498,543.0,1035.6,4874,NA
8,2,continuous,12,94,fixationCross,16555261.0,16558578.0,3317.0,62,R,16554182,16554212,32,681.8,514.0,5073,left
8,2,continuous,12,94,fixationCross,16555261.0,16558578.0,3317.0,62,R,16554224,16554500,278,683.3,567.2,5146,left
8,2,continuous,12,94,trial,16555261.0,16558578.0,3317.0,62,R,16554526,16555436,912,863.0,577.6,5522,NA
8,2,continuous,12,94,trial,16555261.0,16558578.0,3317.0,62,R,16555478,16555652,176,540.1,547.6,5376,left
8,2,continuous,12,94,trial,16555261.0,16558578.0,3317.0,62,R,16555676,16555852,178,417.2,583.1,4813,left
8,2,continuous,12,94,trial,16555261.0,16558578.0,3317.0,62,R,16555918,16556050,134,1232.6,539.6,4937,right
8,2,continuous,12,94,trial,16555261.0,16558578.0,3317.0,62,R,16556076,16556208,134,1361.8,518.0,4915,right
8,2,continuous,12,94,trial,16555261.0,16558578.0,3317.0,62,R,16556218,16556732,516,1356.2,482.5,4888,right
8,2,continuous,12,94,trial,16555261.0,16558578.0,3317.0,62,R,16556804,16557024,222,455.2,546.7,4724,left
8,2,continuous,12,94,trial,16555261.0,16558578.0,3317.0,62,R,16557044,16557252,210,376.1,573.5,4753,left
8,2,continuous,12,94,trial,16555261.0,16558578.0,3317.0,62,R,16557264,16557482,220,357.3,602.2,4691,left
8,2,continuous,12,94,trial,16555261.0,16558578.0,3317.0,62,R,16557654,16557834,182,1056.4,1001.7,4746,likertHorizontal
8,2,continuous,12,94,trial,16555261.0,16558578.0,3317.0,62,R,16557864,16558150,288,1260.0,1023.3,4904,NA
8,2,continuous,12,94,trial,16555261.0,16558578.0,3317.0,62,R,16558166,16558306,142,1329.9,1014.3,5085,NA
8,2,continuous,12,94,trial,16555261.0,16558578.0,3317.0,62,R,16558356,16558598,244,1425.1,522.1,5129,right
8,2,continuous,12,94,trial,16555261.0,16558578.0,3317.0,62,R,16558610,16558888,280,1444.9,561.7,5234,right
8,2,continuous,13,6,fixationCross,16559728.0,16566994.0,7266.0,63,R,16559016,16559402,388,811.1,642.6,5214,NA
8,2,continuous,13,6,trial,16559728.0,16566994.0,7266.0,63,R,16559420,16559888,470,893.3,599.7,5581,NA
8,2,continuous,13,6,trial,16559728.0,16566994.0,7266.0,63,R,16559936,16560092,158,486.6,543.2,5368,left
8,2,continuous,13,6,trial,16559728.0,16566994.0,7266.0,63,R,16560118,16560296,180,319.1,646.0,4676,left
8,2,continuous,13,6,trial,16559728.0,16566994.0,7266.0,63,R,16560314,16560562,250,374.6,700.1,4505,left
8,2,continuous,13,6,trial,16559728.0,16566994.0,7266.0,63,R,16560588,16560836,250,330.5,592.7,4425,left
8,2,continuous,13,6,trial,16559728.0,16566994.0,7266.0,63,R,16560856,16561004,150,348.8,533.2,4387,left
8,2,continuous,13,6,trial,16559728.0,16566994.0,7266.0,63,R,16561082,16561246,166,1321.5,565.2,4734,right
8,2,continuous,13,6,trial,16559728.0,16566994.0,7266.0,63,R,16561264,16561536,274,1396.0,582.1,4847,right
8,2,continuous,13,6,trial,16559728.0,16566994.0,7266.0,63,R,16561560,16561776,218,1298.2,539.2,4858,right
8,2,continuous,13,6,trial,16559728.0,16566994.0,7266.0,63,R,16561798,16562012,216,1160.7,555.4,4710,NA
8,2,continuous,13,6,trial,16559728.0,16566994.0,7266.0,63,R,16562176,16562408,234,1413.2,541.7,4857,right
8,2,continuous,13,6,trial,16559728.0,16566994.0,7266.0,63,R,16562420,16562508,90,1358.7,535.0,4953,right
8,2,continuous,13,6,trial,16559728.0,16566994.0,7266.0,63,R,16562686,16562880,196,1399.4,489.3,4912,right
8,2,continuous,13,6,trial,16559728.0,16566994.0,7266.0,63,R,16562916,16563140,226,1129.7,483.3,4954,NA
8,2,continuous,13,6,trial,16559728.0,16566994.0,7266.0,63,R,16563190,16563378,190,1534.1,552.8,4925,right
8,2,continuous,13,6,trial,16559728.0,16566994.0,7266.0,63,R,16563398,16563468,72,1432.7,541.6,5023,right
8,2,continuous,13,6,trial,16559728.0,16566994.0,7266.0,63,R,16563638,16563806,170,1533.2,551.4,5036,right
8,2,continuous,13,6,trial,16559728.0,16566994.0,7266.0,63,R,16563830,16564020,192,1407.7,476.8,5123,right
8,2,continuous,13,6,trial,16559728.0,16566994.0,7266.0,63,R,16564058,16564284,228,1176.0,465.2,5144,NA
8,2,continuous,13,6,trial,16559728.0,16566994.0,7266.0,63,R,16564312,16564532,222,1385.6,493.2,5112,right
8,2,continuous,13,6,trial,16559728.0,16566994.0,7266.0,63,R,16564548,16564802,256,1442.6,528.2,5186,right
8,2,continuous,13,6,trial,16559728.0,16566994.0,7266.0,63,R,16564828,16564992,166,1458.6,641.9,5286,right
8,2,continuous,13,6,trial,16559728.0,16566994.0,7266.0,63,R,16565018,16565244,228,1582.0,782.2,5329,NA
8,2,continuous,13,6,trial,16559728.0,16566994.0,7266.0,63,R,16565298,16565450,154,1178.4,604.9,5310,NA
8,2,continuous,13,6,trial,16559728.0,16566994.0,7266.0,63,R,16565514,16565708,196,409.0,528.3,5096,left
8,2,continuous,13,6,trial,16559728.0,16566994.0,7266.0,63,R,16565732,16566124,394,423.6,666.5,5024,left
8,2,continuous,13,6,trial,16559728.0,16566994.0,7266.0,63,R,16566170,16566818,650,535.9,1032.5,5019,NA
8,2,continuous,13,6,postResponse,16559728.0,16566994.0,7266.0,63,R,16567016,16567328,314,423.6,606.9,5089,left
8,2,continuous,14,8,fixationCross,16568111.0,16570678.0,2567.0,64,R,16567428,16567472,46,415.0,605.5,5242,left
8,2,continuous,14,8,fixationCross,16568111.0,16570678.0,2567.0,64,R,16567508,16567786,280,739.0,654.1,5429,NA
8,2,continuous,14,8,fixationCross,16568111.0,16570678.0,2567.0,64,R,16567810,16567990,182,909.1,611.7,5531,NA
8,2,continuous,14,8,trial,16568111.0,16570678.0,2567.0,64,R,16568186,16568290,106,908.2,583.4,5877,NA
8,2,continuous,14,8,trial,16568111.0,16570678.0,2567.0,64,R,16568338,16568560,224,1348.0,545.0,6002,right
8,2,continuous,14,8,trial,16568111.0,16570678.0,2567.0,64,R,16568632,16568776,146,371.4,565.4,5495,left
8,2,continuous,14,8,trial,16568111.0,16570678.0,2567.0,64,R,16568792,16569186,396,328.3,596.1,5233,left
8,2,continuous,14,8,trial,16568111.0,16570678.0,2567.0,64,R,16569226,16569338,114,592.6,763.5,5238,NA
8,2,continuous,14,8,trial,16568111.0,16570678.0,2567.0,64,R,16569400,16569626,228,1366.6,572.7,5327,right
8,2,continuous,14,8,trial,16568111.0,16570678.0,2567.0,64,R,16569636,16569914,280,1405.4,551.4,5464,right
8,2,continuous,14,8,trial,16568111.0,16570678.0,2567.0,64,R,16569988,16570214,228,570.2,999.5,5416,NA
8,2,continuous,14,8,trial,16568111.0,16570678.0,2567.0,64,R,16570226,16570356,132,543.9,1032.9,5285,NA
8,2,continuous,14,8,trial,16568111.0,16570678.0,2567.0,64,R,16570406,16570972,568,305.1,596.3,5155,left
8,2,continuous,15,92,fixationCross,16571744.0,16576461.0,4717.0,65,R,16571176,16571422,248,649.1,592.6,5486,left
8,2,continuous,15,92,trial,16571744.0,16576461.0,4717.0,65,R,16571450,16571928,480,894.4,599.6,5776,NA
8,2,continuous,15,92,trial,16571744.0,16576461.0,4717.0,65,R,16571974,16572252,280,1287.3,616.7,5390,right
8,2,continuous,15,92,trial,16571744.0,16576461.0,4717.0,65,R,16572280,16572400,122,1424.5,541.7,4961,right
8,2,continuous,15,92,trial,16571744.0,16576461.0,4717.0,65,R,16572422,16572528,108,1454.4,475.4,5008,right
8,2,continuous,15,92,trial,16571744.0,16576461.0,4717.0,65,R,16572604,16572844,242,347.6,515.8,4918,left
8,2,continuous,15,92,trial,16571744.0,16576461.0,4717.0,65,R,16572866,16573132,268,394.9,607.4,5005,left
8,2,continuous,15,92,trial,16571744.0,16576461.0,4717.0,65,R,16573148,16573386,240,371.3,562.9,4828,left
8,2,continuous,15,92,trial,16571744.0,16576461.0,4717.0,65,R,16573408,16573684,278,291.9,473.8,4600,left
8,2,continuous,15,92,trial,16571744.0,16576461.0,4717.0,65,R,16573714,16573894,182,370.0,630.2,4715,left
8,2,continuous,15,92,trial,16571744.0,16576461.0,4717.0,65,R,16573912,16574050,140,427.8,669.6,4802,left
8,2,continuous,15,92,trial,16571744.0,16576461.0,4717.0,65,R,16574200,16574312,114,1345.9,593.1,5094,right
8,2,continuous,15,92,trial,16571744.0,16576461.0,4717.0,65,R,16574328,16574520,194,1282.7,618.7,5106,right
8,2,continuous,15,92,trial,16571744.0,16576461.0,4717.0,65,R,16574550,16574674,126,1449.7,515.0,5251,right
8,2,continuous,15,92,trial,16571744.0,16576461.0,4717.0,65,R,16574692,16574924,234,1505.2,467.9,5334,right
8,2,continuous,15,92,trial,16571744.0,16576461.0,4717.0,65,R,16575006,16575292,288,374.5,607.3,5019,left
8,2,continuous,15,92,trial,16571744.0,16576461.0,4717.0,65,R,16575302,16575618,318,394.7,575.0,4835,left
8,2,continuous,15,92,trial,16571744.0,16576461.0,4717.0,65,R,16575640,16575878,240,413.1,643.0,4692,left
8,2,continuous,15,92,trial,16571744.0,16576461.0,4717.0,65,R,16575936,16576078,144,1097.6,991.5,4940,likertHorizontal
8,2,continuous,15,92,trial,16571744.0,16576461.0,4717.0,65,R,16576104,16576292,190,1288.0,1022.8,5055,NA
8,2,continuous,15,92,postResponse,16571744.0,16576461.0,4717.0,65,R,16576450,16576796,348,1354.8,581.0,5310,right
8,2,continuous,16,12,fixationCross,16577645.0,16586795.0,9150.0,66,R,16576914,16577248,336,859.1,623.1,5602,NA
8,2,continuous,16,12,fixationCross,16577645.0,16586795.0,9150.0,66,R,16577262,16577372,112,917.6,622.1,5638,NA
8,2,continuous,16,12,trial,16577645.0,16586795.0,9150.0,66,R,16577548,16577838,292,904.0,581.2,5723,NA
8,2,continuous,16,12,trial,16577645.0,16586795.0,9150.0,66,R,16577888,16578032,146,1397.5,584.5,5713,right
8,2,continuous,16,12,trial,16577645.0,16586795.0,9150.0,66,R,16578062,16578186,126,1442.8,441.4,5196,right
8,2,continuous,16,12,trial,16577645.0,16586795.0,9150.0,66,R,16578198,16578400,204,1429.7,415.7,5032,right
8,2,continuous,16,12,trial,16577645.0,16586795.0,9150.0,66,R,16578476,16578706,232,380.8,605.1,4779,left
8,2,continuous,16,12,trial,16577645.0,16586795.0,9150.0,66,R,16578720,16578928,210,455.5,587.3,4890,left
8,2,continuous,16,12,trial,16577645.0,16586795.0,9150.0,66,R,16579006,16579252,248,1469.2,482.9,5180,right
8,2,continuous,16,12,trial,16577645.0,16586795.0,9150.0,66,R,16579296,16579430,136,1353.7,830.0,5283,NA
8,2,continuous,16,12,trial,16577645.0,16586795.0,9150.0,66,R,16579448,16579664,218,1416.2,757.5,5326,NA
8,2,continuous,16,12,trial,16577645.0,16586795.0,9150.0,66,R,16579708,16579916,210,1467.0,397.6,5283,right
8,2,continuous,16,12,trial,16577645.0,16586795.0,9150.0,66,R,16579926,16580022,98,1435.5,411.9,5277,right
8,2,continuous,16,12,trial,16577645.0,16586795.0,9150.0,66,R,16580100,16580434,336,462.2,616.6,5060,left
8,2,continuous,16,12,trial,16577645.0,16586795.0,9150.0,66,R,16580484,16580924,442,608.0,1062.9,5253,NA
8,2,continuous,16,12,trial,16577645.0,16586795.0,9150.0,66,R,16581088,16581248,162,1404.3,508.2,5291,right
8,2,continuous,16,12,trial,16577645.0,16586795.0,9150.0,66,R,16581274,16581844,572,1445.8,402.4,5340,right
8,2,continuous,16,12,trial,16577645.0,16586795.0,9150.0,66,R,16581872,16582058,188,1443.5,602.3,5247,right
8,2,continuous,16,12,trial,16577645.0,16586795.0,9150.0,66,R,16582084,16582322,240,1447.0,728.0,5258,right
8,2,continuous,16,12,trial,16577645.0,16586795.0,9150.0,66,R,16582332,16582440,110,1438.2,750.7,5254,NA
8,2,continuous,16,12,trial,16577645.0,16586795.0,9150.0,66,R,16582484,16582614,132,1455.0,426.4,5181,right
8,2,continuous,16,12,trial,16577645.0,16586795.0,9150.0,66,R,16582624,16583064,442,1449.6,400.3,5249,right
8,2,continuous,16,12,trial,16577645.0,16586795.0,9150.0,66,R,16583100,16583274,176,1462.3,677.8,5295,right
8,2,continuous,16,12,trial,16577645.0,16586795.0,9150.0,66,R,16583474,16583728,256,459.3,606.2,4958,left
8,2,continuous,16,12,trial,16577645.0,16586795.0,9150.0,66,R,16583750,16584220,472,383.6,560.8,4951,left
8,2,continuous,16,12,trial,16577645.0,16586795.0,9150.0,66,R,16584248,16584592,346,570.3,579.5,4877,left
8,2,continuous,16,12,trial,16577645.0,16586795.0,9150.0,66,R,16584614,16584828,216,455.7,551.5,4976,left
8,2,continuous,16,12,trial,16577645.0,16586795.0,9150.0,66,R,16585022,16585172,152,417.5,551.7,5114,left
8,2,continuous,16,12,trial,16577645.0,16586795.0,9150.0,66,R,16585242,16585466,226,1424.4,700.1,5399,right
8,2,continuous,16,12,trial,16577645.0,16586795.0,9150.0,66,R,16585484,16585674,192,1439.1,756.4,5329,NA
8,2,continuous,16,12,trial,16577645.0,16586795.0,9150.0,66,R,16585718,16586176,460,1463.3,406.6,5146,right
8,2,continuous,16,12,trial,16577645.0,16586795.0,9150.0,66,R,16586254,16586636,384,432.7,555.7,4940,left
8,2,continuous,16,12,trial,16577645.0,16586795.0,9150.0,66,R,16586690,16586856,168,606.8,1079.9,5096,NA
8,2,continuous,16,12,trial,16577645.0,16586795.0,9150.0,66,R,16586868,16587022,156,582.2,1044.2,5138,NA
8,2,continuous,17,100,fixationCross,16587845.0,16590911.0,3066.0,67,R,16587234,16587520,288,781.1,606.5,5360,NA
8,2,continuous,17,100,trial,16587845.0,16590911.0,3066.0,67,R,16587544,16588008,466,912.6,601.2,5598,NA
8,2,continuous,17,100,trial,16587845.0,16590911.0,3066.0,67,R,16588060,16588236,178,444.5,521.7,5297,left
8,2,continuous,17,100,trial,16587845.0,16590911.0,3066.0,67,R,16588256,16588382,128,413.6,465.4,4705,left
8,2,continuous,17,100,trial,16587845.0,16590911.0,3066.0,67,R,16588446,16588610,166,1340.7,553.1,4815,right
