participantNo,block,task,blockTrial,response,trialStage,trialStartTime,trialFinishTime,rt,trial,eye,fixStart,fixEnd,fixLength,fixPosX,fixPosY,dilation,aoi
64,1,binary,1,1,fixationCross,9989576.0,9993142.0,3566.0,1,R,9988845,9988973,130,971.9,489.2,5184,NA
64,1,binary,1,1,fixationCross,9989576.0,9993142.0,3566.0,1,R,9988999,9989251,254,900.2,449.9,5108,NA
64,1,binary,1,1,trial,9989576.0,9993142.0,3566.0,1,R,9989291,9989747,458,979.1,572.1,5224,NA
64,1,binary,1,1,trial,9989576.0,9993142.0,3566.0,1,R,9989811,9989983,174,551.2,530.0,5439,left
64,1,binary,1,1,trial,9989576.0,9993142.0,3566.0,1,R,9990043,9990169,128,476.4,972.7,5244,NA
64,1,binary,1,1,trial,9989576.0,9993142.0,3566.0,1,R,9990203,9990429,228,512.7,1033.2,5097,NA
64,1,binary,1,1,trial,9989576.0,9993142.0,3566.0,1,R,9990519,9990691,174,1513.3,997.8,4951,NA
64,1,binary,1,1,trial,9989576.0,9993142.0,3566.0,1,R,9990755,9991037,284,1446.4,600.1,5058,right
64,1,binary,1,1,trial,9989576.0,9993142.0,3566.0,1,R,9991119,9991263,146,560.6,589.3,5442,left
64,1,binary,1,1,trial,9989576.0,9993142.0,3566.0,1,R,9991289,9991575,288,531.8,495.5,5376,left
64,1,binary,1,1,trial,9989576.0,9993142.0,3566.0,1,R,9991665,9992139,476,1470.1,577.1,4634,right
64,1,binary,1,1,trial,9989576.0,9993142.0,3566.0,1,R,9992163,9992281,120,1357.9,547.1,4792,right
64,1,binary,1,1,trial,9989576.0,9993142.0,3566.0,1,R,9992361,9992777,418,560.6,483.9,4882,left
64,1,binary,1,1,trial,9989576.0,9993142.0,3566.0,1,R,9992807,9992907,102,499.4,463.3,4628,left
64,1,binary,1,1,trial,9989576.0,9993142.0,3566.0,1,R,9992995,9993403,410,1437.8,568.3,4481,right
64,1,binary,2,2,fixationCross,9994259.0,9995859.0,1600.0,2,R,9993607,9993671,66,637.9,573.6,4976,left
64,1,binary,2,2,fixationCross,9994259.0,9995859.0,1600.0,2,R,9993733,9993939,208,1068.6,597.9,4968,NA
64,1,binary,2,2,fixationCross,9994259.0,9995859.0,1600.0,2,R,9993973,9994223,252,945.6,543.3,5071,NA
64,1,binary,2,2,trial,9994259.0,9995859.0,1600.0,2,R,9994245,9994417,174,971.0,529.9,5218,NA
64,1,binary,2,2,trial,9994259.0,9995859.0,1600.0,2,R,9994479,9994669,192,566.8,468.8,5221,left
64,1,binary,2,2,trial,9994259.0,9995859.0,1600.0,2,R,9994751,9994957,208,1438.9,505.0,4541,right
64,1,binary,2,2,trial,9994259.0,9995859.0,1600.0,2,R,9994983,9995391,410,1556.5,511.1,4293,right
64,1,binary,2,2,trial,9994259.0,9995859.0,1600.0,2,R,9995431,9995717,288,1294.8,596.6,4453,right
64,1,binary,2,2,trial,9994259.0,9995859.0,1600.0,2,R,9995747,9996117,372,1512.2,499.0,4527,right
64,1,binary,3,1,fixationCross,9996992.0,9998692.0,1700.0,3,R,9996307,9996501,196,1180.0,498.5,5021,NA
64,1,binary,3,1,fixationCross,9996992.0,9998692.0,1700.0,3,R,9996555,9996735,182,776.6,541.3,5364,NA
64,1,binary,3,1,fixationCross,9996992.0,9998692.0,1700.0,3,R,9996785,9996927,144,1010.4,541.3,5319,NA
64,1,binary,3,1,trial,9996992.0,9998692.0,1700.0,3,R,9996955,9997147,194,964.5,551.3,5092,NA
64,1,binary,3,1,trial,9996992.0,9998692.0,1700.0,3,R,9997213,9997393,182,534.2,497.6,5094,left
64,1,binary,3,1,trial,9996992.0,9998692.0,1700.0,3,R,9997471,9997747,278,1424.7,499.6,4551,right
64,1,binary,3,1,trial,9996992.0,9998692.0,1700.0,3,R,9997779,9997955,178,1535.1,519.7,4469,right
64,1,binary,3,1,trial,9996992.0,9998692.0,1700.0,3,R,9998035,9998979,946,462.0,466.1,4626,left
64,1,binary,4,2,fixationCross,9999792.0,10003376.0,3584.0,4,R,9999105,9999261,158,1010.1,814.1,4503,likertHorizontal
64,1,binary,4,2,fixationCross,9999792.0,10003376.0,3584.0,4,R,9999293,9999485,194,1096.3,549.6,4660,NA
64,1,binary,4,2,trial,9999792.0,10003376.0,3584.0,4,R,9999513,9999991,480,969.3,533.5,5131,NA
64,1,binary,4,2,trial,9999792.0,10003376.0,3584.0,4,R,10000055,10000191,138,1355.8,567.6,5119,right
64,1,binary,4,2,trial,9999792.0,10003376.0,3584.0,4,R,10000225,10000559,336,1488.9,570.2,4625,right
64,1,binary,4,2,trial,9999792.0,10003376.0,3584.0,4,R,10000579,10000929,352,1518.2,506.2,4283,right
64,1,binary,4,2,trial,9999792.0,10003376.0,3584.0,4,R,10000943,10001219,278,1480.6,503.8,4190,right
64,1,binary,4,2,trial,9999792.0,10003376.0,3584.0,4,R,10001245,10001345,102,1332.4,553.4,4353,right
64,1,binary,4,2,trial,9999792.0,10003376.0,3584.0,4,R,10001419,10001731,314,423.5,481.9,4725,left
64,1,binary,4,2,trial,9999792.0,10003376.0,3584.0,4,R,10001747,10002085,340,409.6,455.3,4337,left
64,1,binary,4,2,trial,9999792.0,10003376.0,3584.0,4,R,10002163,10002759,598,1410.2,571.6,4169,right
64,1,binary,4,2,trial,9999792.0,10003376.0,3584.0,4,R,10002785,10003167,384,1260.7,552.8,4478,right
64,1,binary,4,2,trial,9999792.0,10003376.0,3584.0,4,R,10003225,10003601,378,1571.8,559.6,4594,right
64,1,binary,5,1,fixationCross,10004342.0,10006393.0,2051.0,5,R,10003887,10004333,448,959.8,493.2,5134,NA
64,1,binary,5,1,trial,10004342.0,10006393.0,2051.0,5,R,10004359,10004495,138,959.8,551.3,5031,NA
64,1,binary,5,1,trial,10004342.0,10006393.0,2051.0,5,R,10004557,10004789,234,549.3,541.0,4793,left
64,1,binary,5,1,trial,10004342.0,10006393.0,2051.0,5,R,10004811,10005067,258,471.0,497.7,4335,left
64,1,binary,5,1,trial,10004342.0,10006393.0,2051.0,5,R,10005087,10005247,162,386.1,498.9,4053,left
64,1,binary,5,1,trial,10004342.0,10006393.0,2051.0,5,R,10005275,10005413,140,567.4,554.5,4008,left
64,1,binary,5,1,trial,10004342.0,10006393.0,2051.0,5,R,10005467,10005887,422,1296.4,574.7,3942,right
64,1,binary,5,1,trial,10004342.0,10006393.0,2051.0,5,R,10005965,10006363,400,501.6,566.2,4556,left
64,1,binary,5,1,trial,10004342.0,10006393.0,2051.0,5,R,10006389,10006621,234,410.1,505.7,4295,left
64,1,binary,6,1,fixationCross,10007626.0,10009375.0,1749.0,6,R,10006811,10007015,206,823.0,525.1,4250,NA
64,1,binary,6,1,fixationCross,10007626.0,10009375.0,1749.0,6,R,10007077,10007207,132,1245.0,514.8,4540,right
64,1,binary,6,1,fixationCross,10007626.0,10009375.0,1749.0,6,R,10007233,10007371,140,1077.6,521.4,4797,NA
64,1,binary,6,1,trial,10007626.0,10009375.0,1749.0,6,R,10007403,10007771,370,960.8,533.8,4917,NA
64,1,binary,6,1,trial,10007626.0,10009375.0,1749.0,6,R,10007839,10008013,176,508.5,516.0,4981,left
64,1,binary,6,1,trial,10007626.0,10009375.0,1749.0,6,R,10008043,10008195,154,573.3,506.5,4750,left
64,1,binary,6,1,trial,10007626.0,10009375.0,1749.0,6,R,10008277,10008533,258,1554.7,484.9,4198,right
64,1,binary,6,1,trial,10007626.0,10009375.0,1749.0,6,R,10008605,10008775,172,478.1,509.2,4299,left
64,1,binary,6,1,trial,10007626.0,10009375.0,1749.0,6,R,10008797,10009005,210,529.1,504.7,4370,left
64,1,binary,6,1,trial,10007626.0,10009375.0,1749.0,6,R,10009047,10009349,304,521.0,642.4,4264,left
64,1,binary,6,1,trial,10007626.0,10009375.0,1749.0,6,R,10009357,10009619,264,508.1,639.4,4116,left
64,1,binary,7,1,fixationCross,10010525.0,10013492.0,2967.0,7,R,10009789,10009941,154,873.8,654.5,3985,NA
64,1,binary,7,1,fixationCross,10010525.0,10013492.0,2967.0,7,R,10009987,10010223,238,1166.0,421.6,4218,NA
64,1,binary,7,1,trial,10010525.0,10013492.0,2967.0,7,R,10010251,10010657,408,964.3,520.5,4726,NA
64,1,binary,7,1,trial,10010525.0,10013492.0,2967.0,7,R,10010709,10011069,362,1377.7,518.9,4539,right
64,1,binary,7,1,trial,10010525.0,10013492.0,2967.0,7,R,10011151,10011545,396,491.1,530.5,4172,left
64,1,binary,7,1,trial,10010525.0,10013492.0,2967.0,7,R,10011563,10011693,132,430.3,522.1,3995,left
64,1,binary,7,1,trial,10010525.0,10013492.0,2967.0,7,R,10011771,10012157,388,1431.6,508.0,3877,right
64,1,binary,7,1,trial,10010525.0,10013492.0,2967.0,7,R,10012181,10012289,110,1364.4,556.3,4107,right
64,1,binary,7,1,trial,10010525.0,10013492.0,2967.0,7,R,10012375,10012919,546,460.5,536.4,4451,left
64,1,binary,7,1,trial,10010525.0,10013492.0,2967.0,7,R,10012989,10013175,188,950.9,952.0,4274,likertHorizontal
64,1,binary,7,1,trial,10010525.0,10013492.0,2967.0,7,R,10013239,10013417,180,475.8,979.4,4485,NA
64,1,binary,7,1,trial,10010525.0,10013492.0,2967.0,7,R,10013433,10013735,304,529.7,1000.8,4676,NA
64,1,binary,8,2,fixationCross,10014609.0,10016959.0,2350.0,8,R,10013923,10014111,190,1094.9,553.7,4755,NA
64,1,binary,8,2,fixationCross,10014609.0,10016959.0,2350.0,8,R,10014137,10014363,228,932.6,441.3,5110,NA
64,1,binary,8,2,trial,10014609.0,10016959.0,2350.0,8,R,10014405,10014787,384,981.5,539.9,5230,NA
64,1,binary,8,2,trial,10014609.0,10016959.0,2350.0,8,R,10014851,10014989,140,553.7,511.6,5056,left
64,1,binary,8,2,trial,10014609.0,10016959.0,2350.0,8,R,10015015,10015297,284,408.7,446.4,4697,left
64,1,binary,8,2,trial,10014609.0,10016959.0,2350.0,8,R,10015339,10015791,454,455.5,617.2,4424,left
64,1,binary,8,2,trial,10014609.0,10016959.0,2350.0,8,R,10015881,10016559,680,1511.1,473.2,4250,right
64,1,binary,8,2,trial,10014609.0,10016959.0,2350.0,8,R,10016647,10016755,110,502.1,474.5,4637,left
64,1,binary,8,2,trial,10014609.0,10016959.0,2350.0,8,R,10016793,10016927,136,389.7,423.5,4620,left
64,1,binary,8,2,trial,10014609.0,10016959.0,2350.0,8,R,10016985,10017185,202,513.1,610.9,4440,left
64,1,binary,8,2,postResponse,10014609.0,10016959.0,2350.0,8,R,10017249,10017293,46,1326.3,676.0,4131,right
64,1,binary,9,1,fixationCross,10018809.0,10021759.0,2950.0,9,R,10017393,10017603,212,1315.8,681.3,4225,right
64,1,binary,9,1,fixationCross,10018809.0,10021759.0,2950.0,9,R,10017645,10018181,538,1355.9,490.8,4653,right
64,1,binary,9,1,fixationCross,10018809.0,10021759.0,2950.0,9,R,10018207,10018499,294,1201.6,435.6,4863,right
64,1,binary,9,1,trial,10018809.0,10021759.0,2950.0,9,R,10018549,10018953,406,949.2,492.1,4905,NA
64,1,binary,9,1,trial,10018809.0,10021759.0,2950.0,9,R,10019021,10019141,122,480.1,538.4,5158,left
64,1,binary,9,1,trial,10018809.0,10021759.0,2950.0,9,R,10019177,10019319,144,597.1,549.7,4824,left
64,1,binary,9,1,trial,10018809.0,10021759.0,2950.0,9,R,10019347,10019487,142,647.3,539.2,4402,left
64,1,binary,9,1,trial,10018809.0,10021759.0,2950.0,9,R,10019529,10020403,876,450.6,489.9,3961,left
64,1,binary,9,1,trial,10018809.0,10021759.0,2950.0,9,R,10020493,10021309,818,1451.9,555.2,4331,right
64,1,binary,9,1,trial,10018809.0,10021759.0,2950.0,9,R,10021381,10021659,280,528.1,554.3,4830,left
64,1,binary,9,1,trial,10018809.0,10021759.0,2950.0,9,R,10021695,10021955,262,653.4,541.0,4608,left
64,1,binary,10,1,fixationCross,10023826.0,10026325.0,2499.0,10,R,10022167,10022321,156,839.1,468.5,4208,NA
64,1,binary,10,1,fixationCross,10023826.0,10026325.0,2499.0,10,R,10022371,10022693,324,1177.8,533.3,4507,NA
64,1,binary,10,1,fixationCross,10023826.0,10026325.0,2499.0,10,R,10022747,10023089,344,835.0,479.6,4819,NA
64,1,binary,10,1,fixationCross,10023826.0,10026325.0,2499.0,10,R,10023137,10023349,214,1132.1,512.9,4641,NA
64,1,binary,10,1,fixationCross,10023826.0,10026325.0,2499.0,10,R,10023409,10023683,276,641.3,528.6,4810,left
64,1,binary,10,1,trial,10023826.0,10026325.0,2499.0,10,R,10023729,10023981,254,972.1,547.4,4757,NA
64,1,binary,10,1,trial,10023826.0,10026325.0,2499.0,10,R,10024037,10024227,192,542.8,522.1,4768,left
64,1,binary,10,1,trial,10023826.0,10026325.0,2499.0,10,R,10024253,10024495,244,435.6,478.5,4538,left
64,1,binary,10,1,trial,10023826.0,10026325.0,2499.0,10,R,10024531,10024699,170,375.9,559.6,4243,left
64,1,binary,10,1,trial,10023826.0,10026325.0,2499.0,10,R,10024787,10025177,392,1447.2,544.5,3968,right
64,1,binary,10,1,trial,10023826.0,10026325.0,2499.0,10,R,10025201,10025715,516,1304.9,540.4,4295,right
64,1,binary,10,1,trial,10023826.0,10026325.0,2499.0,10,R,10025785,10026267,484,500.9,987.4,4718,NA
64,1,binary,10,1,trial,10023826.0,10026325.0,2499.0,10,R,10026287,10026485,200,492.8,957.2,4626,NA
64,1,binary,10,1,postResponse,10023826.0,10026325.0,2499.0,10,R,10026541,10026659,120,506.1,524.6,4581,left
64,1,binary,11,2,fixationCross,10027226.0,10029343.0,2117.0,11,R,10026825,10027125,302,1015.8,513.1,4661,NA
64,1,binary,11,2,trial,10027226.0,10029343.0,2117.0,11,R,10027159,10027375,218,917.8,506.8,4870,NA
64,1,binary,11,2,trial,10027226.0,10029343.0,2117.0,11,R,10027439,10027559,122,473.2,487.6,5020,left
64,1,binary,11,2,trial,10027226.0,10029343.0,2117.0,11,R,10027645,10027841,198,1521.1,516.3,4422,right
64,1,binary,11,2,trial,10027226.0,10029343.0,2117.0,11,R,10027923,10028135,214,614.5,499.5,4334,left
64,1,binary,11,2,trial,10027226.0,10029343.0,2117.0,11,R,10028217,10028349,134,1586.3,539.9,4182,right
64,1,binary,11,2,trial,10027226.0,10029343.0,2117.0,11,R,10028381,10028739,360,1500.0,508.2,4201,right
64,1,binary,11,2,trial,10027226.0,10029343.0,2117.0,11,R,10028873,10029035,164,1466.1,962.6,4641,NA
64,1,binary,11,2,trial,10027226.0,10029343.0,2117.0,11,R,10029103,10029303,202,1552.0,488.3,4735,right
64,1,binary,11,2,postResponse,10027226.0,10029343.0,2117.0,11,R,10029335,10029675,342,1455.8,487.0,4740,right
64,1,binary,12,1,fixationCross,10030409.0,10032343.0,1934.0,12,R,10029807,10029809,4,818.3,478.4,4692,NA
64,1,binary,12,1,fixationCross,10030409.0,10032343.0,1934.0,12,R,10029815,10030105,292,798.2,481.3,4715,NA
64,1,binary,12,1,trial,10030409.0,10032343.0,1934.0,12,R,10030153,10030551,400,949.1,516.5,4899,NA
64,1,binary,12,1,trial,10030409.0,10032343.0,1934.0,12,R,10030601,10030801,202,604.3,486.0,5143,left
64,1,binary,12,1,trial,10030409.0,10032343.0,1934.0,12,R,10030833,10030977,146,545.5,516.1,4765,left
64,1,binary,12,1,trial,10030409.0,10032343.0,1934.0,12,R,10031061,10031569,510,1442.1,522.9,4053,right
64,1,binary,12,1,trial,10030409.0,10032343.0,1934.0,12,R,10031651,10031997,348,550.5,499.7,4095,left
64,1,binary,12,1,trial,10030409.0,10032343.0,1934.0,12,R,10032031,10032297,268,618.1,459.5,4055,left
64,1,binary,12,1,trial,10030409.0,10032343.0,1934.0,12,R,10032323,10032541,220,524.9,486.4,4236,left
64,1,binary,13,1,fixationCross,10033409.0,10036260.0,2851.0,13,R,10032777,10032859,84,621.6,757.0,4479,NA
64,1,binary,13,1,fixationCross,10033409.0,10036260.0,2851.0,13,R,10032925,10033031,108,1085.7,905.9,4566,likertHorizontal
64,1,binary,13,1,trial,10033409.0,10036260.0,2851.0,13,R,10033095,10033561,468,991.9,444.4,4830,NA
64,1,binary,13,1,trial,10033409.0,10036260.0,2851.0,13,R,10033627,10033859,234,533.4,541.3,4861,left
64,1,binary,13,1,trial,10033409.0,10036260.0,2851.0,13,R,10033879,10033905,28,515.0,516.5,4573,left
64,1,binary,13,1,trial,10033409.0,10036260.0,2851.0,13,R,10033985,10034193,210,1421.3,565.0,4080,right
64,1,binary,13,1,trial,10033409.0,10036260.0,2851.0,13,R,10034213,10034351,140,1450.0,605.9,3925,right
64,1,binary,13,1,trial,10033409.0,10036260.0,2851.0,13,R,10034429,10034631,204,536.7,530.8,4165,left
64,1,binary,13,1,trial,10033409.0,10036260.0,2851.0,13,R,10034657,10035177,522,493.7,502.7,4133,left
64,1,binary,13,1,trial,10033409.0,10036260.0,2851.0,13,R,10035265,10035703,440,1447.3,653.7,4131,right
64,1,binary,13,1,trial,10033409.0,10036260.0,2851.0,13,R,10035761,10035951,192,1450.4,945.9,4264,NA
64,1,binary,13,1,trial,10033409.0,10036260.0,2851.0,13,R,10036033,10036467,436,508.6,994.7,4599,NA
64,1,binary,14,1,fixationCross,10037509.0,10040309.0,2800.0,14,R,10036693,10036825,134,824.5,539.6,4706,NA
64,1,binary,14,1,fixationCross,10037509.0,10040309.0,2800.0,14,R,10036849,10037205,358,707.6,465.6,4926,left
64,1,binary,14,1,fixationCross,10037509.0,10040309.0,2800.0,14,R,10037247,10037501,256,962.9,488.3,4594,NA
64,1,binary,14,1,trial,10037509.0,10040309.0,2800.0,14,R,10037525,10037669,146,841.0,481.8,4453,NA
64,1,binary,14,1,trial,10037509.0,10040309.0,2800.0,14,R,10037731,10037851,122,452.5,500.8,4599,left
64,1,binary,14,1,trial,10037509.0,10040309.0,2800.0,14,R,10037883,10037949,68,423.1,453.9,4627,left
64,1,binary,14,1,trial,10037509.0,10040309.0,2800.0,14,R,10038033,10038387,356,1433.7,470.1,4182,right
64,1,binary,14,1,trial,10037509.0,10040309.0,2800.0,14,R,10038409,10038647,240,1493.9,483.7,4195,right
64,1,binary,14,1,trial,10037509.0,10040309.0,2800.0,14,R,10038799,10038875,78,1434.2,477.6,4442,right
64,1,binary,14,1,trial,10037509.0,10040309.0,2800.0,14,R,10038959,10039185,228,437.3,484.5,4806,left
64,1,binary,14,1,trial,10037509.0,10040309.0,2800.0,14,R,10039217,10039385,170,392.3,453.5,4685,left
64,1,binary,14,1,trial,10037509.0,10040309.0,2800.0,14,R,10039427,10039983,558,450.0,643.3,4238,left
64,1,binary,14,1,trial,10037509.0,10040309.0,2800.0,14,R,10040005,10040141,138,406.4,607.7,4352,left
64,1,binary,14,1,trial,10037509.0,10040309.0,2800.0,14,R,10040233,10040579,348,1439.4,486.3,4436,right
64,1,binary,15,2,fixationCross,10041292.0,10043693.0,2401.0,15,R,10040769,10040983,216,679.1,571.1,4927,left
64,1,binary,15,2,trial,10041292.0,10043693.0,2401.0,15,R,10041031,10041439,410,962.2,485.5,4948,NA
64,1,binary,15,2,trial,10041292.0,10043693.0,2401.0,15,R,10041501,10041791,292,575.8,558.0,4619,left
64,1,binary,15,2,trial,10041292.0,10043693.0,2401.0,15,R,10041875,10042053,180,1478.7,481.5,4136,right
64,1,binary,15,2,trial,10041292.0,10043693.0,2401.0,15,R,10042085,10042299,216,1541.1,419.8,3985,right
64,1,binary,15,2,trial,10041292.0,10043693.0,2401.0,15,R,10042379,10042703,326,505.2,627.4,4261,left
64,1,binary,15,2,trial,10041292.0,10043693.0,2401.0,15,R,10042737,10042885,150,605.7,627.6,4287,left
64,1,binary,15,2,trial,10041292.0,10043693.0,2401.0,15,R,10042955,10043291,338,1545.5,507.3,4088,right
64,1,binary,15,2,trial,10041292.0,10043693.0,2401.0,15,R,10043329,10043659,332,1533.8,429.5,4254,right
64,1,binary,15,2,trial,10041292.0,10043693.0,2401.0,15,R,10043679,10043983,306,1536.0,420.8,4476,right
64,1,binary,16,1,fixationCross,10045359.0,10047160.0,1801.0,16,R,10044099,10044641,544,855.9,533.7,4692,NA
64,1,binary,16,1,fixationCross,10045359.0,10047160.0,1801.0,16,R,10044689,10045103,416,1067.1,479.8,4801,NA
64,1,binary,16,1,trial,10045359.0,10047160.0,1801.0,16,R,10045137,10045383,248,967.9,540.9,5009,NA
64,1,binary,16,1,trial,10045359.0,10047160.0,1801.0,16,R,10045561,10045607,48,1037.7,532.5,4923,NA
64,1,binary,16,1,trial,10045359.0,10047160.0,1801.0,16,R,10045673,10045801,130,544.1,542.3,5085,left
64,1,binary,16,1,trial,10045359.0,10047160.0,1801.0,16,R,10045831,10045995,166,591.1,583.5,5068,left
64,1,binary,16,1,trial,10045359.0,10047160.0,1801.0,16,R,10046071,10046511,442,1384.7,567.1,4370,right
64,1,binary,16,1,trial,10045359.0,10047160.0,1801.0,16,R,10046565,10046685,122,712.6,707.5,4314,left
64,1,binary,16,1,postResponse,10045359.0,10047160.0,1801.0,16,R,10046713,10047493,782,583.0,569.6,4313,left
64,1,binary,17,1,fixationCross,10048076.0,10051043.0,2967.0,17,R,10047595,10047781,188,1078.1,469.4,4331,NA
64,1,binary,17,1,trial,10048076.0,10051043.0,2967.0,17,R,10047807,10048247,442,866.6,521.2,4734,NA
64,1,binary,17,1,trial,10048076.0,10051043.0,2967.0,17,R,10048295,10048425,132,570.9,585.5,4892,left
64,1,binary,17,1,trial,10048076.0,10051043.0,2967.0,17,R,10048505,10048691,188,1414.3,509.2,4290,right
64,1,binary,17,1,trial,10048076.0,10051043.0,2967.0,17,R,10048709,10049107,400,1395.0,476.7,4083,right
64,1,binary,17,1,trial,10048076.0,10051043.0,2967.0,17,R,10049187,10049339,154,589.0,580.1,4530,left
64,1,binary,17,1,trial,10048076.0,10051043.0,2967.0,17,R,10049371,10049725,356,516.9,586.1,4493,left
64,1,binary,17,1,trial,10048076.0,10051043.0,2967.0,17,R,10049815,10049957,144,1436.4,507.1,4060,right
64,1,binary,17,1,trial,10048076.0,10051043.0,2967.0,17,R,10049983,10050231,250,1389.1,476.8,4056,right
64,1,binary,17,1,trial,10048076.0,10051043.0,2967.0,17,R,10050323,10050461,140,549.8,632.3,4394,left
64,1,binary,17,1,trial,10048076.0,10051043.0,2967.0,17,R,10050491,10050799,310,506.9,595.9,4279,left
64,1,binary,17,1,trial,10048076.0,10051043.0,2967.0,17,R,10050819,10051267,450,503.8,570.7,3951,left
64,1,binary,17,1,postResponse,10048076.0,10051043.0,2967.0,17,R,10051349,10051377,30,1388.6,574.5,3850,right
64,1,binary,18,1,fixationCross,10052643.0,10054526.0,1883.0,18,R,10051479,10051539,62,1374.0,583.6,3989,right
64,1,binary,18,1,fixationCross,10052643.0,10054526.0,1883.0,18,R,10051701,10051861,162,893.9,431.6,4442,NA
64,1,binary,18,1,fixationCross,10052643.0,10054526.0,1883.0,18,R,10051903,10052443,542,1073.4,504.7,4773,NA
64,1,binary,18,1,trial,10052643.0,10054526.0,1883.0,18,R,10052469,10052775,308,962.7,500.2,4697,NA
64,1,binary,18,1,trial,10052643.0,10054526.0,1883.0,18,R,10052839,10053015,178,1375.1,513.4,4662,right
64,1,binary,18,1,trial,10052643.0,10054526.0,1883.0,18,R,10053061,10053193,134,1605.2,559.1,4560,right
64,1,binary,18,1,trial,10052643.0,10054526.0,1883.0,18,R,10053215,10053433,220,1597.3,533.3,4520,right
64,1,binary,18,1,trial,10052643.0,10054526.0,1883.0,18,R,10053517,10053691,176,580.6,492.0,4529,left
64,1,binary,18,1,trial,10052643.0,10054526.0,1883.0,18,R,10053715,10054077,364,635.3,496.2,4278,left
64,1,binary,18,1,trial,10052643.0,10054526.0,1883.0,18,R,10054095,10054451,358,623.2,486.0,4205,left
64,1,binary,18,1,trial,10052643.0,10054526.0,1883.0,18,R,10054623,10054775,154,584.9,475.4,4354,left
64,1,binary,18,1,postResponse,10052643.0,10054526.0,1883.0,18,R,10054823,10054861,40,1012.1,478.0,4351,NA
64,1,binary,19,1,fixationCross,10056276.0,10059042.0,2766.0,19,R,10054961,10055133,174,1011.3,492.6,4580,NA
64,1,binary,19,1,fixationCross,10056276.0,10059042.0,2766.0,19,R,10055173,10055511,340,752.3,464.4,4796,NA
64,1,binary,19,1,fixationCross,10056276.0,10059042.0,2766.0,19,R,10055569,10056017,450,1214.7,471.6,4609,right
64,1,binary,19,1,trial,10056276.0,10059042.0,2766.0,19,R,10056055,10056339,286,921.2,496.5,4905,NA
64,1,binary,19,1,trial,10056276.0,10059042.0,2766.0,19,R,10056373,10056479,108,988.7,528.6,4990,NA
64,1,binary,19,1,trial,10056276.0,10059042.0,2766.0,19,R,10056543,10056721,180,551.2,471.9,4902,left
64,1,binary,19,1,trial,10056276.0,10059042.0,2766.0,19,R,10056753,10056941,190,479.6,480.8,4506,left
64,1,binary,19,1,trial,10056276.0,10059042.0,2766.0,19,R,10057031,10057165,136,1596.3,493.5,3961,right
64,1,binary,19,1,trial,10056276.0,10059042.0,2766.0,19,R,10057189,10057517,330,1537.3,498.8,3819,right
64,1,binary,19,1,trial,10056276.0,10059042.0,2766.0,19,R,10057529,10058011,484,1505.0,488.9,3986,right
64,1,binary,19,1,trial,10056276.0,10059042.0,2766.0,19,R,10058101,10058415,316,502.7,480.9,4516,left
64,1,binary,19,1,trial,10056276.0,10059042.0,2766.0,19,R,10058435,10058975,542,473.2,493.8,4370,left
64,1,binary,19,1,postResponse,10056276.0,10059042.0,2766.0,19,R,10059157,10059377,222,1496.3,500.4,4180,right
64,1,binary,20,1,fixationCross,10060226.0,10062860.0,2634.0,20,R,10059459,10059703,246,894.7,922.1,4595,likertHorizontal
64,1,binary,20,1,fixationCross,10060226.0,10062860.0,2634.0,20,R,10059767,10059923,158,1096.9,570.3,4657,NA
64,1,binary,20,1,trial,10060226.0,10062860.0,2634.0,20,R,10059949,10060367,420,989.4,492.0,4671,NA
64,1,binary,20,1,trial,10060226.0,10062860.0,2634.0,20,R,10060433,10060551,120,511.4,514.9,4793,left
64,1,binary,20,1,trial,10060226.0,10062860.0,2634.0,20,R,10060587,10060775,190,607.2,536.3,4591,left
64,1,binary,20,1,trial,10060226.0,10062860.0,2634.0,20,R,10060807,10060967,162,395.8,479.1,4245,left
64,1,binary,20,1,trial,10060226.0,10062860.0,2634.0,20,R,10061053,10061231,180,1471.2,543.2,3841,right
64,1,binary,20,1,trial,10060226.0,10062860.0,2634.0,20,R,10061251,10061439,190,1548.4,552.4,3755,right
64,1,binary,20,1,trial,10060226.0,10062860.0,2634.0,20,R,10061519,10061723,206,506.0,466.6,4112,left
64,1,binary,20,1,trial,10060226.0,10062860.0,2634.0,20,R,10061761,10062513,754,599.0,497.9,4187,left
64,1,binary,20,1,trial,10060226.0,10062860.0,2634.0,20,R,10062559,10062679,122,421.1,467.9,4485,left
64,1,binary,20,1,trial,10060226.0,10062860.0,2634.0,20,R,10062705,10063105,402,356.8,462.6,4364,left
64,1,binary,21,1,fixationCross,10063759.0,10066242.0,2483.0,21,R,10063293,10063409,118,1212.9,516.0,3978,right
64,1,binary,21,1,trial,10063759.0,10066242.0,2483.0,21,R,10063435,10063893,460,1019.4,485.2,4352,NA
64,1,binary,21,1,trial,10063759.0,10066242.0,2483.0,21,R,10063939,10064243,306,1351.2,498.9,4523,right
64,1,binary,21,1,trial,10063759.0,10066242.0,2483.0,21,R,10064267,10064329,64,1440.6,494.2,4272,right
64,1,binary,21,1,trial,10063759.0,10066242.0,2483.0,21,R,10064407,10064781,376,556.9,488.7,4366,left
64,1,binary,21,1,trial,10063759.0,10066242.0,2483.0,21,R,10064943,10064977,36,453.8,890.5,4453,NA
64,1,binary,21,1,trial,10063759.0,10066242.0,2483.0,21,R,10065065,10065483,420,1412.3,505.8,4543,right
64,1,binary,21,1,trial,10063759.0,10066242.0,2483.0,21,R,10065525,10065675,152,1341.9,625.6,4601,right
64,1,binary,21,1,trial,10063759.0,10066242.0,2483.0,21,R,10065739,10065961,224,706.3,578.7,4551,left
64,1,binary,21,1,trial,10063759.0,10066242.0,2483.0,21,R,10066007,10066463,458,439.6,542.9,4554,left
64,1,binary,22,1,fixationCross,10067126.0,10069343.0,2217.0,22,R,10066651,10066805,156,1244.6,642.3,4414,right
64,1,binary,22,1,trial,10067126.0,10069343.0,2217.0,22,R,10066857,10067277,422,994.4,452.9,4691,NA
64,1,binary,22,1,trial,10067126.0,10069343.0,2217.0,22,R,10067339,10067505,168,1357.2,569.3,4854,right
64,1,binary,22,1,trial,10067126.0,10069343.0,2217.0,22,R,10067535,10067643,110,1445.8,561.9,4562,right
64,1,binary,22,1,trial,10067126.0,10069343.0,2217.0,22,R,10067721,10068033,314,561.3,601.6,4474,left
64,1,binary,22,1,trial,10067126.0,10069343.0,2217.0,22,R,10068189,10068381,194,1474.4,571.5,4237,right
64,1,binary,22,1,trial,10067126.0,10069343.0,2217.0,22,R,10068405,10068957,554,1431.0,560.4,4422,right
64,1,binary,22,1,trial,10067126.0,10069343.0,2217.0,22,R,10069039,10069261,224,572.7,605.6,4433,left
64,1,binary,22,1,trial,10067126.0,10069343.0,2217.0,22,R,10069295,10069623,330,501.8,598.7,4526,left
64,1,binary,23,1,fixationCross,10070410.0,10073426.0,3016.0,23,R,10069775,10070119,346,1125.7,552.1,4643,NA
64,1,binary,23,1,trial,10070410.0,10073426.0,3016.0,23,R,10070145,10070595,452,974.0,537.8,4975,NA
64,1,binary,23,1,trial,10070410.0,10073426.0,3016.0,23,R,10070659,10070731,74,565.0,593.8,5059,left
64,1,binary,23,1,trial,10070410.0,10073426.0,3016.0,23,R,10070795,10071197,404,1375.3,509.4,4435,right
64,1,binary,23,1,trial,10070410.0,10073426.0,3016.0,23,R,10071267,10071477,212,532.9,602.2,4601,left
64,1,binary,23,1,trial,10070410.0,10073426.0,3016.0,23,R,10071513,10071813,302,424.7,568.4,4520,left
64,1,binary,23,1,trial,10070410.0,10073426.0,3016.0,23,R,10071907,10072205,300,1518.5,453.5,3912,right
64,1,binary,23,1,trial,10070410.0,10073426.0,3016.0,23,R,10072235,10072497,264,1602.5,457.9,3966,right
64,1,binary,23,1,trial,10070410.0,10073426.0,3016.0,23,R,10072527,10072843,318,1379.6,450.0,4332,right
64,1,binary,23,1,trial,10070410.0,10073426.0,3016.0,23,R,10072995,10073245,252,437.7,567.3,4800,left
64,1,binary,23,1,trial,10070410.0,10073426.0,3016.0,23,R,10073269,10073703,436,414.0,554.9,4486,left
64,1,binary,24,2,fixationCross,10074560.0,10076076.0,1516.0,24,R,10073891,10074089,200,1298.1,871.3,3912,NA
64,1,binary,24,2,fixationCross,10074560.0,10076076.0,1516.0,24,R,10074141,10074255,116,920.8,969.0,4285,likertHorizontal
64,1,binary,24,2,fixationCross,10074560.0,10076076.0,1516.0,24,R,10074321,10074519,200,941.7,526.7,4573,NA
64,1,binary,24,2,trial,10074560.0,10076076.0,1516.0,24,R,10074547,10074717,172,1061.1,440.6,4744,NA
64,1,binary,24,2,trial,10074560.0,10076076.0,1516.0,24,R,10074775,10074933,160,1387.4,489.8,4732,right
64,1,binary,24,2,trial,10074560.0,10076076.0,1516.0,24,R,10075021,10075307,288,495.6,551.1,4552,left
64,1,binary,24,2,trial,10074560.0,10076076.0,1516.0,24,R,10075381,10075757,378,1421.4,498.2,3892,right
64,1,binary,24,2,trial,10074560.0,10076076.0,1516.0,24,R,10075783,10076245,464,1560.1,490.3,3962,right
64,1,binary,24,2,postResponse,10074560.0,10076076.0,1516.0,24,R,10076287,10076409,124,1245.2,446.4,4283,right
64,1,binary,25,1,trial,10076960.0,10079276.0,2316.0,25,R,10076613,10077105,494,993.1,452.6,4847,NA
64,1,binary,25,1,trial,10076960.0,10079276.0,2316.0,25,R,10077195,10077247,54,599.5,535.9,5030,left
64,1,binary,25,1,trial,10076960.0,10079276.0,2316.0,25,R,10077325,10077493,170,1434.5,569.6,4460,right
64,1,binary,25,1,trial,10076960.0,10079276.0,2316.0,25,R,10077527,10077799,274,1575.5,521.6,4059,right
64,1,binary,25,1,trial,10076960.0,10079276.0,2316.0,25,R,10077825,10077925,102,1646.3,458.5,3955,right
64,1,binary,25,1,trial,10076960.0,10079276.0,2316.0,25,R,10078013,10078397,386,487.7,533.8,4162,left
64,1,binary,25,1,trial,10076960.0,10079276.0,2316.0,25,R,10078415,10078877,464,488.3,524.9,4082,left
64,1,binary,25,1,trial,10076960.0,10079276.0,2316.0,25,R,10078937,10079125,190,474.9,972.2,4060,NA
64,1,binary,25,1,trial,10076960.0,10079276.0,2316.0,25,R,10079169,10079541,374,561.0,497.9,4130,left
64,1,binary,26,2,fixationCross,10103393.0,10104760.0,1367.0,26,R,10102510,10102666,158,96.4,-29.7,4033,NA
64,1,binary,26,2,fixationCross,10103393.0,10104760.0,1367.0,26,R,10102818,10103092,276,1018.3,367.8,3827,NA
64,1,binary,26,2,trial,10103393.0,10104760.0,1367.0,26,R,10103136,10103586,452,967.7,565.8,4415,NA
64,1,binary,26,2,trial,10103393.0,10104760.0,1367.0,26,R,10103652,10103796,146,1482.5,510.1,4395,right
64,1,binary,26,2,trial,10103393.0,10104760.0,1367.0,26,R,10103884,10104238,356,533.7,510.8,4297,left
64,1,binary,26,2,postResponse,10103393.0,10104760.0,1367.0,26,R,10104336,10105094,760,1488.1,500.4,4196,right
64,1,binary,27,2,fixationCross,10105793.0,10107660.0,1867.0,27,R,10105302,10105492,192,1205.3,602.7,4736,right
64,1,binary,27,2,trial,10105793.0,10107660.0,1867.0,27,R,10105524,10105936,414,945.1,550.1,5059,NA
64,1,binary,27,2,trial,10105793.0,10107660.0,1867.0,27,R,10106000,10106168,170,520.7,510.0,4772,left
64,1,binary,27,2,trial,10105793.0,10107660.0,1867.0,27,R,10106194,10106444,252,446.3,441.2,4328,left
64,1,binary,27,2,trial,10105793.0,10107660.0,1867.0,27,R,10106464,10106544,82,401.8,468.9,4048,left
64,1,binary,27,2,trial,10105793.0,10107660.0,1867.0,27,R,10106628,10106874,248,1486.5,490.8,3714,right
64,1,binary,27,2,trial,10105793.0,10107660.0,1867.0,27,R,10107038,10107536,500,1467.3,577.8,4145,right
64,1,binary,27,2,trial,10105793.0,10107660.0,1867.0,27,R,10107570,10107850,282,1462.3,468.8,4596,right
64,1,binary,28,2,fixationCross,10109243.0,10111260.0,2017.0,28,R,10108068,10108280,214,729.5,543.6,4829,left
64,1,binary,28,2,fixationCross,10109243.0,10111260.0,2017.0,28,R,10108346,10108552,208,1166.3,478.3,4945,NA
64,1,binary,28,2,fixationCross,10109243.0,10111260.0,2017.0,28,R,10108606,10109064,460,854.8,491.2,4870,NA
64,1,binary,28,2,trial,10109243.0,10111260.0,2017.0,28,R,10109098,10109398,302,978.3,549.2,4962,NA
64,1,binary,28,2,trial,10109243.0,10111260.0,2017.0,28,R,10109464,10109544,82,526.0,564.8,5178,left
64,1,binary,28,2,trial,10109243.0,10111260.0,2017.0,28,R,10109626,10109968,344,1443.5,574.9,4536,right
64,1,binary,28,2,trial,10109243.0,10111260.0,2017.0,28,R,10110044,10110514,472,504.9,578.9,4224,left
64,1,binary,28,2,trial,10109243.0,10111260.0,2017.0,28,R,10110598,10111454,858,1500.7,561.4,4084,right
64,1,binary,29,2,trial,10112160.0,10114560.0,2400.0,29,R,10111672,10112300,630,985.4,544.2,4511,NA
64,1,binary,29,2,trial,10112160.0,10114560.0,2400.0,29,R,10112370,10112500,132,482.7,545.0,4454,left
64,1,binary,29,2,trial,10112160.0,10114560.0,2400.0,29,R,10112532,10112650,120,469.5,454.3,4198,left
64,1,binary,29,2,trial,10112160.0,10114560.0,2400.0,29,R,10112672,10112800,130,460.1,426.4,3955,left
64,1,binary,29,2,trial,10112160.0,10114560.0,2400.0,29,R,10112866,10113370,506,1357.7,495.9,3569,right
64,1,binary,29,2,trial,10112160.0,10114560.0,2400.0,29,R,10113448,10113698,252,515.7,497.1,4146,left
64,1,binary,29,2,trial,10112160.0,10114560.0,2400.0,29,R,10113788,10114036,250,1476.2,767.0,4114,NA
64,1,binary,29,2,trial,10112160.0,10114560.0,2400.0,29,R,10114072,10114116,46,1459.5,880.8,4207,NA
64,1,binary,29,2,trial,10112160.0,10114560.0,2400.0,29,R,10114184,10114778,596,1433.9,475.9,4524,right
64,1,binary,30,2,fixationCross,10115427.0,10117144.0,1717.0,30,R,10114968,10115316,350,1046.2,576.1,4917,NA
64,1,binary,30,2,trial,10115427.0,10117144.0,1717.0,30,R,10115350,10115570,222,937.7,550.2,5165,NA
64,1,binary,30,2,trial,10115427.0,10117144.0,1717.0,30,R,10115632,10115798,168,551.9,539.5,4939,left
64,1,binary,30,2,trial,10115427.0,10117144.0,1717.0,30,R,10115824,10115922,100,425.6,570.8,4713,left
64,1,binary,30,2,trial,10115427.0,10117144.0,1717.0,30,R,10116004,10116364,362,1412.4,503.5,4334,right
64,1,binary,30,2,trial,10115427.0,10117144.0,1717.0,30,R,10116396,10116878,484,1478.8,524.2,4672,right
64,1,binary,30,2,trial,10115427.0,10117144.0,1717.0,30,R,10116902,10117418,518,1417.7,511.6,4893,right
64,1,binary,30,2,postResponse,10115427.0,10117144.0,1717.0,30,R,10117438,10117480,44,1352.2,629.7,4959,right
64,1,binary,31,2,fixationCross,10118044.0,10120027.0,1983.0,31,R,10117556,10117652,98,1258.8,662.4,5005,right
64,1,binary,31,2,trial,10118044.0,10120027.0,1983.0,31,R,10117704,10118196,494,944.6,546.7,5177,NA
64,1,binary,31,2,trial,10118044.0,10120027.0,1983.0,31,R,10118260,10118490,232,541.8,548.2,5008,left
64,1,binary,31,2,trial,10118044.0,10120027.0,1983.0,31,R,10118552,10118738,188,1232.3,538.5,4365,right
64,1,binary,31,2,trial,10118044.0,10120027.0,1983.0,31,R,10118766,10119030,266,1455.0,529.0,4109,right
64,1,binary,31,2,trial,10118044.0,10120027.0,1983.0,31,R,10119060,10119178,120,1526.4,564.1,4194,right
64,1,binary,31,2,trial,10118044.0,10120027.0,1983.0,31,R,10119214,10119580,368,1402.5,634.2,4349,right
64,1,binary,31,2,trial,10118044.0,10120027.0,1983.0,31,R,10119606,10119946,342,1562.4,568.1,4370,right
64,1,binary,31,2,trial,10118044.0,10120027.0,1983.0,31,R,10119974,10120134,162,1413.8,472.4,4244,right
64,1,binary,31,2,postResponse,10118044.0,10120027.0,1983.0,31,R,10120198,10120362,166,896.9,469.1,4273,NA
64,1,binary,32,2,fixationCross,10122110.0,10123827.0,1717.0,32,R,10120436,10120580,146,887.4,473.6,4454,NA
64,1,binary,32,2,fixationCross,10122110.0,10123827.0,1717.0,32,R,10120606,10121226,622,706.7,527.8,4791,left
64,1,binary,32,2,fixationCross,10122110.0,10123827.0,1717.0,32,R,10121414,10121720,308,837.1,472.1,4783,NA
64,1,binary,32,2,fixationCross,10122110.0,10123827.0,1717.0,32,R,10121774,10121972,200,1058.4,561.6,5041,NA
64,1,binary,32,2,trial,10122110.0,10123827.0,1717.0,32,R,10122004,10122280,278,955.4,568.9,4932,NA
64,1,binary,32,2,trial,10122110.0,10123827.0,1717.0,32,R,10122346,10122820,476,497.0,532.3,4652,left
64,1,binary,32,2,trial,10122110.0,10123827.0,1717.0,32,R,10122846,10122924,80,410.7,590.2,4274,left
64,1,binary,32,2,trial,10122110.0,10123827.0,1717.0,32,R,10122996,10123352,358,1360.2,488.6,3941,right
64,1,binary,32,2,postResponse,10122110.0,10123827.0,1717.0,32,R,10123390,10124160,772,1427.9,570.6,4141,right
64,1,binary,33,2,fixationCross,10124744.0,10126794.0,2050.0,33,R,10124262,10124356,96,1416.2,573.0,4343,right
64,1,binary,33,2,fixationCross,10124744.0,10126794.0,2050.0,33,R,10124420,10124622,204,922.6,611.2,4708,NA
64,1,binary,33,2,trial,10124744.0,10126794.0,2050.0,33,R,10124650,10124902,254,968.8,517.4,4849,NA
64,1,binary,33,2,trial,10124744.0,10126794.0,2050.0,33,R,10124964,10125210,248,1402.5,552.3,4678,right
64,1,binary,33,2,trial,10124744.0,10126794.0,2050.0,33,R,10125286,10125510,226,556.6,628.0,4503,left
64,1,binary,33,2,trial,10124744.0,10126794.0,2050.0,33,R,10125536,10125846,312,484.6,574.2,4181,left
64,1,binary,33,2,trial,10124744.0,10126794.0,2050.0,33,R,10125878,10125946,70,586.3,589.7,3994,left
64,1,binary,33,2,trial,10124744.0,10126794.0,2050.0,33,R,10126006,10126142,138,1417.4,451.1,3797,right
64,1,binary,33,2,trial,10124744.0,10126794.0,2050.0,33,R,10126176,10126380,206,1516.4,422.3,3741,right
64,1,binary,33,2,trial,10124744.0,10126794.0,2050.0,33,R,10126400,10127068,670,1508.3,392.6,3917,right
64,1,binary,34,2,fixationCross,10127660.0,10130927.0,3267.0,34,R,10127200,10127394,196,960.4,607.3,4350,NA
64,1,binary,34,2,trial,10127660.0,10130927.0,3267.0,34,R,10127428,10127832,406,964.2,458.1,4562,NA
64,1,binary,34,2,trial,10127660.0,10130927.0,3267.0,34,R,10127898,10128054,158,522.8,519.0,4870,left
64,1,binary,34,2,trial,10127660.0,10130927.0,3267.0,34,R,10128090,10128302,214,414.2,456.0,4601,left
64,1,binary,34,2,trial,10127660.0,10130927.0,3267.0,34,R,10128328,10128436,110,384.7,506.6,4298,left
64,1,binary,34,2,trial,10127660.0,10130927.0,3267.0,34,R,10128618,10129104,488,1506.6,510.9,3952,right
64,1,binary,34,2,trial,10127660.0,10130927.0,3267.0,34,R,10129130,10129424,296,1378.0,539.6,4323,right
64,1,binary,34,2,trial,10127660.0,10130927.0,3267.0,34,R,10129494,10129766,274,461.1,558.6,4514,left
64,1,binary,34,2,trial,10127660.0,10130927.0,3267.0,34,R,10129794,10129956,164,397.2,442.1,4522,left
64,1,binary,34,2,trial,10127660.0,10130927.0,3267.0,34,R,10129986,10130174,190,421.4,418.4,4410,left
64,1,binary,34,2,trial,10127660.0,10130927.0,3267.0,34,R,10130260,10130488,230,1356.5,754.5,4229,NA
64,1,binary,34,2,trial,10127660.0,10130927.0,3267.0,34,R,10130546,10131222,678,1490.0,508.5,4496,right
64,1,binary,35,2,fixationCross,10132094.0,10133677.0,1583.0,35,R,10131338,10131558,222,755.5,542.0,4696,NA
64,1,binary,35,2,fixationCross,10132094.0,10133677.0,1583.0,35,R,10131594,10131842,250,1061.9,449.7,4587,NA
64,1,binary,35,2,fixationCross,10132094.0,10133677.0,1583.0,35,R,10131878,10132034,158,945.9,484.8,4636,NA
64,1,binary,35,2,trial,10132094.0,10133677.0,1583.0,35,R,10132222,10132338,118,921.5,527.1,4898,NA
64,1,binary,35,2,trial,10132094.0,10133677.0,1583.0,35,R,10132390,10132522,134,519.1,526.1,5109,left
64,1,binary,35,2,trial,10132094.0,10133677.0,1583.0,35,R,10132564,10132710,148,363.9,584.1,5033,left
64,1,binary,35,2,trial,10132094.0,10133677.0,1583.0,35,R,10132802,10133056,256,1475.6,533.3,4101,right
64,1,binary,35,2,postResponse,10132094.0,10133677.0,1583.0,35,R,10133078,10134010,934,1436.1,570.0,3908,right
64,1,binary,36,1,fixationCross,10135876.0,10138127.0,2251.0,36,R,10134106,10134352,248,706.7,493.1,4586,left
64,1,binary,36,1,fixationCross,10135876.0,10138127.0,2251.0,36,R,10134404,10134640,238,1088.4,534.6,4605,NA
64,1,binary,36,1,fixationCross,10135876.0,10138127.0,2251.0,36,R,10134682,10135124,444,857.6,456.8,4816,NA
64,1,binary,36,1,fixationCross,10135876.0,10138127.0,2251.0,36,R,10135178,10135648,472,571.0,492.7,4985,left
64,1,binary,36,1,fixationCross,10135876.0,10138127.0,2251.0,36,R,10135686,10135872,188,898.2,477.8,4658,NA
64,1,binary,36,1,trial,10135876.0,10138127.0,2251.0,36,R,10135908,10136040,134,949.3,544.6,4575,NA
64,1,binary,36,1,trial,10135876.0,10138127.0,2251.0,36,R,10136088,10136154,68,632.8,549.8,4637,left
64,1,binary,36,1,trial,10135876.0,10138127.0,2251.0,36,R,10136232,10136374,144,1463.0,511.6,4428,right
64,1,binary,36,1,trial,10135876.0,10138127.0,2251.0,36,R,10136400,10136534,136,1429.2,477.7,4230,right
64,1,binary,36,1,trial,10135876.0,10138127.0,2251.0,36,R,10136570,10136856,288,1512.2,541.9,4101,right
64,1,binary,36,1,trial,10135876.0,10138127.0,2251.0,36,R,10136880,10136970,92,1588.5,556.9,4080,right
64,1,binary,36,1,trial,10135876.0,10138127.0,2251.0,36,R,10137042,10137432,392,601.5,544.3,4257,left
64,1,binary,36,1,trial,10135876.0,10138127.0,2251.0,36,R,10137510,10137714,206,1404.3,468.9,3906,right
64,1,binary,36,1,trial,10135876.0,10138127.0,2251.0,36,R,10137778,10138354,578,520.6,555.5,4238,left
64,1,binary,37,2,fixationCross,10139311.0,10140644.0,1333.0,37,R,10138564,10138764,202,607.8,529.5,4238,left
64,1,binary,37,2,fixationCross,10139311.0,10140644.0,1333.0,37,R,10138828,10139002,176,1050.8,707.0,4494,NA
64,1,binary,37,2,trial,10139311.0,10140644.0,1333.0,37,R,10139046,10139504,460,968.3,498.3,4648,NA
64,1,binary,37,2,trial,10139311.0,10140644.0,1333.0,37,R,10139570,10139636,68,540.5,526.9,4630,left
64,1,binary,37,2,trial,10139311.0,10140644.0,1333.0,37,R,10139714,10139958,246,1361.6,568.2,4230,right
64,1,binary,37,2,trial,10139311.0,10140644.0,1333.0,37,R,10139998,10140342,346,1560.7,455.6,4021,right
64,1,binary,37,2,trial,10139311.0,10140644.0,1333.0,37,R,10140368,10140536,170,1493.7,497.6,4150,right
64,1,binary,37,2,trial,10139311.0,10140644.0,1333.0,37,R,10140562,10140940,380,1355.4,557.4,4459,right
64,1,binary,38,1,fixationCross,10141527.0,10142977.0,1450.0,38,R,10141052,10141182,132,988.4,910.4,4780,likertHorizontal
64,1,binary,38,1,trial,10141527.0,10142977.0,1450.0,38,R,10141246,10141702,458,988.4,474.5,4851,NA
64,1,binary,38,1,trial,10141527.0,10142977.0,1450.0,38,R,10141762,10142010,250,1374.5,514.6,4758,right
64,1,binary,38,1,trial,10141527.0,10142977.0,1450.0,38,R,10142086,10142340,256,655.2,618.9,4458,left
64,1,binary,38,1,trial,10141527.0,10142977.0,1450.0,38,R,10142386,10142690,306,407.9,565.3,4131,left
64,1,binary,38,1,trial,10141527.0,10142977.0,1450.0,38,R,10142710,10143188,480,383.4,574.4,3911,left
64,1,binary,39,2,fixationCross,10144027.0,10145194.0,1167.0,39,R,10143404,10143718,316,1287.7,639.2,3979,right
64,1,binary,39,2,trial,10144027.0,10145194.0,1167.0,39,R,10143768,10144166,400,940.0,531.9,4551,NA
64,1,binary,39,2,trial,10144027.0,10145194.0,1167.0,39,R,10144230,10144414,186,510.1,545.3,4499,left
64,1,binary,39,2,trial,10144027.0,10145194.0,1167.0,39,R,10144498,10144626,130,1498.2,494.7,4081,right
64,1,binary,39,2,trial,10144027.0,10145194.0,1167.0,39,R,10144652,10145034,384,1503.7,429.8,3955,right
64,1,binary,39,2,trial,10144027.0,10145194.0,1167.0,39,R,10145086,10145414,330,1515.7,422.4,4386,right
64,1,binary,40,1,fixationCross,10146110.0,10148027.0,1917.0,40,R,10145626,10145736,112,1301.3,506.4,4729,right
64,1,binary,40,1,trial,10146110.0,10148027.0,1917.0,40,R,10145788,10146284,498,965.5,502.6,4926,NA
64,1,binary,40,1,trial,10146110.0,10148027.0,1917.0,40,R,10146340,10146466,128,752.5,497.6,4582,NA
64,1,binary,40,1,trial,10146110.0,10148027.0,1917.0,40,R,10146514,10146896,384,455.6,653.2,4241,left
64,1,binary,40,1,trial,10146110.0,10148027.0,1917.0,40,R,10146916,10147124,210,474.7,673.1,4151,left
64,1,binary,40,1,trial,10146110.0,10148027.0,1917.0,40,R,10147210,10147430,222,1480.3,512.2,4085,right
64,1,binary,40,1,trial,10146110.0,10148027.0,1917.0,40,R,10147452,10147538,88,1470.3,480.0,4090,right
64,1,binary,40,1,trial,10146110.0,10148027.0,1917.0,40,R,10147614,10147932,320,451.9,647.7,4411,left
64,1,binary,40,1,trial,10146110.0,10148027.0,1917.0,40,R,10147954,10148230,278,421.3,679.6,4445,left
64,1,binary,41,2,fixationCross,10149060.0,10150527.0,1467.0,41,R,10148434,10148612,180,957.3,682.3,4360,NA
64,1,binary,41,2,fixationCross,10149060.0,10150527.0,1467.0,41,R,10148788,10149002,216,1043.3,493.1,4693,NA
64,1,binary,41,2,trial,10149060.0,10150527.0,1467.0,41,R,10149028,10149288,262,953.3,542.5,4928,NA
64,1,binary,41,2,trial,10149060.0,10150527.0,1467.0,41,R,10149354,10149488,136,547.9,535.2,4712,left
64,1,binary,41,2,trial,10149060.0,10150527.0,1467.0,41,R,10149568,10150428,862,1421.9,541.9,4162,right
64,1,binary,41,2,trial,10149060.0,10150527.0,1467.0,41,R,10150454,10150722,270,1478.5,511.1,4437,right
64,1,binary,42,1,trial,10151394.0,10153060.0,1666.0,42,R,10150934,10151404,472,1021.2,504.1,4851,NA
64,1,binary,42,1,trial,10151394.0,10153060.0,1666.0,42,R,10151436,10151560,126,931.6,513.0,4838,NA
64,1,binary,42,1,trial,10151394.0,10153060.0,1666.0,42,R,10151610,10151698,90,620.0,536.2,4657,left
64,1,binary,42,1,trial,10151394.0,10153060.0,1666.0,42,R,10151774,10151936,164,1454.9,523.7,4220,right
64,1,binary,42,1,trial,10151394.0,10153060.0,1666.0,42,R,10152016,10152238,224,524.7,514.5,4210,left
64,1,binary,42,1,trial,10151394.0,10153060.0,1666.0,42,R,10152272,10152634,364,528.9,462.9,4191,left
64,1,binary,42,1,trial,10151394.0,10153060.0,1666.0,42,R,10152666,10152872,208,342.3,450.2,4064,left
64,1,binary,42,1,postResponse,10151394.0,10153060.0,1666.0,42,R,10152908,10153394,488,510.4,459.3,4060,left
64,1,binary,43,2,fixationCross,10154177.0,10155677.0,1500.0,43,R,10153528,10153858,332,1267.1,452.5,4223,right
64,1,binary,43,2,trial,10154177.0,10155677.0,1500.0,43,R,10153910,10154350,442,946.3,536.5,4658,NA
64,1,binary,43,2,trial,10154177.0,10155677.0,1500.0,43,R,10154412,10154596,186,522.8,563.2,4891,left
64,1,binary,43,2,trial,10154177.0,10155677.0,1500.0,43,R,10154630,10154896,268,485.0,621.5,4477,left
64,1,binary,43,2,postResponse,10154177.0,10155677.0,1500.0,43,R,10154976,10156010,1036,1381.4,602.0,4229,right
64,1,binary,44,2,fixationCross,10156744.0,10159511.0,2767.0,44,R,10156110,10156430,322,1358.6,616.9,4824,right
64,1,binary,44,2,trial,10156744.0,10159511.0,2767.0,44,R,10156482,10156962,482,1001.6,548.7,4985,NA
64,1,binary,44,2,trial,10156744.0,10159511.0,2767.0,44,R,10157028,10157250,224,583.5,542.0,4982,left
64,1,binary,44,2,trial,10156744.0,10159511.0,2767.0,44,R,10157516,10157658,144,1507.4,542.2,4282,right
64,1,binary,44,2,trial,10156744.0,10159511.0,2767.0,44,R,10157690,10157908,220,1466.5,496.1,4416,right
64,1,binary,44,2,trial,10156744.0,10159511.0,2767.0,44,R,10157932,10158180,250,1502.5,471.7,4290,right
64,1,binary,44,2,trial,10156744.0,10159511.0,2767.0,44,R,10158236,10158444,210,666.8,545.3,4115,left
64,1,binary,44,2,trial,10156744.0,10159511.0,2767.0,44,R,10158522,10158972,452,1520.2,519.8,3910,right
64,1,binary,44,2,trial,10156744.0,10159511.0,2767.0,44,R,10158998,10159268,272,1510.1,451.5,4278,right
64,1,binary,44,2,postResponse,10156744.0,10159511.0,2767.0,44,R,10159294,10159842,550,1419.9,453.5,4468,right
64,1,binary,45,2,fixationCross,10160560.0,10162911.0,2351.0,45,R,10159942,10160022,82,1403.9,452.9,4751,right
64,1,binary,45,2,fixationCross,10160560.0,10162911.0,2351.0,45,R,10160098,10160258,162,617.0,515.4,5076,left
64,1,binary,45,2,fixationCross,10160560.0,10162911.0,2351.0,45,R,10160312,10160540,230,931.7,515.2,4962,NA
64,1,binary,45,2,trial,10160560.0,10162911.0,2351.0,45,R,10160598,10160692,96,1231.7,479.0,4692,right
64,1,binary,45,2,trial,10160560.0,10162911.0,2351.0,45,R,10160764,10160900,138,560.8,535.5,4860,left
64,1,binary,45,2,trial,10160560.0,10162911.0,2351.0,45,R,10160938,10161084,148,589.7,467.9,4870,left
64,1,binary,45,2,trial,10160560.0,10162911.0,2351.0,45,R,10161120,10161308,190,528.3,571.8,4500,left
64,1,binary,45,2,trial,10160560.0,10162911.0,2351.0,45,R,10161342,10161448,108,623.4,569.4,4273,left
64,1,binary,45,2,trial,10160560.0,10162911.0,2351.0,45,R,10161618,10161868,252,1459.6,507.6,3860,right
64,1,binary,45,2,trial,10160560.0,10162911.0,2351.0,45,R,10161906,10162338,434,1413.7,615.0,4164,right
64,1,binary,45,2,trial,10160560.0,10162911.0,2351.0,45,R,10162364,10162838,476,1534.2,551.5,4269,right
64,1,binary,45,2,trial,10160560.0,10162911.0,2351.0,45,R,10162856,10163138,284,1495.1,516.4,4335,right
64,1,binary,45,2,postResponse,10160560.0,10162911.0,2351.0,45,R,10163186,10163244,60,1343.2,941.2,4369,NA
64,1,binary,46,2,fixationCross,10163911.0,10165878.0,1967.0,46,R,10163392,10163600,210,1086.5,566.5,4622,NA
64,1,binary,46,2,trial,10163911.0,10165878.0,1967.0,46,R,10163626,10164060,436,978.3,469.5,4915,NA
64,1,binary,46,2,trial,10163911.0,10165878.0,1967.0,46,R,10164122,10164278,158,626.7,554.7,5093,left
64,1,binary,46,2,trial,10163911.0,10165878.0,1967.0,46,R,10164306,10164440,136,660.9,590.8,4905,left
64,1,binary,46,2,trial,10163911.0,10165878.0,1967.0,46,R,10164520,10164658,140,1485.4,551.5,4435,right
64,1,binary,46,2,trial,10163911.0,10165878.0,1967.0,46,R,10164672,10164810,140,1472.2,521.4,4349,right
64,1,binary,46,2,trial,10163911.0,10165878.0,1967.0,46,R,10164848,10164994,148,1564.2,426.5,4203,right
64,1,binary,46,2,trial,10163911.0,10165878.0,1967.0,46,R,10165038,10165212,176,1627.3,565.5,4116,right
64,1,binary,46,2,trial,10163911.0,10165878.0,1967.0,46,R,10165232,10165392,162,1645.6,593.0,4054,right
64,1,binary,46,2,trial,10163911.0,10165878.0,1967.0,46,R,10165426,10165792,368,1446.9,549.2,4183,right
64,1,binary,46,2,trial,10163911.0,10165878.0,1967.0,46,R,10165814,10166188,376,1459.6,506.2,4307,right
64,1,binary,47,1,fixationCross,10166994.0,10168960.0,1966.0,47,R,10166392,10166526,136,754.9,556.7,4800,NA
64,1,binary,47,1,fixationCross,10166994.0,10168960.0,1966.0,47,R,10166580,10166738,160,1140.9,508.8,4917,NA
64,1,binary,47,1,trial,10166994.0,10168960.0,1966.0,47,R,10166774,10167214,442,965.3,535.2,4962,NA
64,1,binary,47,1,trial,10166994.0,10168960.0,1966.0,47,R,10167264,10167504,242,605.0,535.0,4606,left
64,1,binary,47,1,trial,10166994.0,10168960.0,1966.0,47,R,10167584,10167800,218,1323.7,569.7,4145,right
64,1,binary,47,1,trial,10166994.0,10168960.0,1966.0,47,R,10167824,10168034,212,1468.6,533.5,3969,right
64,1,binary,47,1,trial,10166994.0,10168960.0,1966.0,47,R,10168120,10168602,484,512.2,575.6,4014,left
64,1,binary,47,1,trial,10166994.0,10168960.0,1966.0,47,R,10168640,10168804,166,643.9,491.6,3873,left
64,1,binary,47,1,postResponse,10166994.0,10168960.0,1966.0,47,R,10168830,10169294,466,571.5,470.1,3997,left
64,1,binary,48,1,fixationCross,10169927.0,10171794.0,1867.0,48,R,10169392,10169628,238,1018.8,629.1,4514,NA
64,1,binary,48,1,trial,10169927.0,10171794.0,1867.0,48,R,10169668,10170080,414,969.1,479.7,4753,NA
64,1,binary,48,1,trial,10169927.0,10171794.0,1867.0,48,R,10170132,10170232,102,597.1,505.0,4791,left
64,1,binary,48,1,trial,10169927.0,10171794.0,1867.0,48,R,10170310,10170510,202,1393.8,525.8,4373,right
64,1,binary,48,1,trial,10169927.0,10171794.0,1867.0,48,R,10170536,10170782,248,1574.1,489.1,4099,right
64,1,binary,48,1,trial,10169927.0,10171794.0,1867.0,48,R,10170810,10171092,284,1377.7,474.1,4255,right
64,1,binary,48,1,trial,10169927.0,10171794.0,1867.0,48,R,10171172,10171362,192,493.6,602.5,4698,left
64,1,binary,48,1,trial,10169927.0,10171794.0,1867.0,48,R,10171402,10171592,192,317.3,657.9,4555,left
64,1,binary,48,1,trial,10169927.0,10171794.0,1867.0,48,R,10171616,10172026,412,256.5,673.4,4123,left
64,1,binary,48,1,postResponse,10169927.0,10171794.0,1867.0,48,R,10172084,10172128,46,1072.7,580.2,3771,NA
64,1,binary,49,1,fixationCross,10173377.0,10175377.0,2000.0,49,R,10172204,10172384,182,1069.6,583.9,3756,NA
64,1,binary,49,1,fixationCross,10173377.0,10175377.0,2000.0,49,R,10172420,10172936,518,1116.5,459.3,4156,NA
64,1,binary,49,1,fixationCross,10173377.0,10175377.0,2000.0,49,R,10173098,10173340,244,971.3,496.2,4499,NA
64,1,binary,49,1,trial,10173377.0,10175377.0,2000.0,49,R,10173360,10173612,254,948.6,542.5,4725,NA
64,1,binary,49,1,trial,10173377.0,10175377.0,2000.0,49,R,10173678,10173758,82,1465.8,492.6,4603,right
64,1,binary,49,1,trial,10173377.0,10175377.0,2000.0,49,R,10173838,10174154,318,553.2,591.0,4346,left
64,1,binary,49,1,trial,10173377.0,10175377.0,2000.0,49,R,10174232,10174398,168,1429.9,520.5,3897,right
64,1,binary,49,1,trial,10173377.0,10175377.0,2000.0,49,R,10174432,10174594,164,1498.1,470.5,3824,right
64,1,binary,49,1,trial,10173377.0,10175377.0,2000.0,49,R,10174674,10175014,342,496.3,678.0,4096,left
64,1,binary,49,1,trial,10173377.0,10175377.0,2000.0,49,R,10175060,10175594,536,564.9,465.6,3937,left
64,1,binary,49,1,postResponse,10173377.0,10175377.0,2000.0,49,R,10175662,10175712,52,506.5,908.5,3849,NA
64,1,binary,50,2,fixationCross,10176327.0,10178528.0,2201.0,50,R,10175858,10175860,4,1035.7,914.4,3897,likertHorizontal
64,1,binary,50,2,fixationCross,10176327.0,10178528.0,2201.0,50,R,10175878,10175994,118,1039.7,913.4,4019,likertHorizontal
64,1,binary,50,2,fixationCross,10176327.0,10178528.0,2201.0,50,R,10176064,10176218,156,1046.0,564.7,4299,NA
64,1,binary,50,2,trial,10176327.0,10178528.0,2201.0,50,R,10176244,10176490,248,926.1,507.7,4585,NA
64,1,binary,50,2,trial,10176327.0,10178528.0,2201.0,50,R,10176552,10176746,196,529.1,577.7,4859,left
64,1,binary,50,2,trial,10176327.0,10178528.0,2201.0,50,R,10176778,10177008,232,474.2,581.8,4501,left
64,1,binary,50,2,trial,10176327.0,10178528.0,2201.0,50,R,10177072,10177376,306,1414.0,516.8,3910,right
64,1,binary,50,2,trial,10176327.0,10178528.0,2201.0,50,R,10177400,10177640,242,1343.3,581.9,3976,right
64,1,binary,50,2,trial,10176327.0,10178528.0,2201.0,50,R,10177668,10177822,156,1488.1,533.8,4173,right
64,1,binary,50,2,trial,10176327.0,10178528.0,2201.0,50,R,10177928,10178128,202,1462.1,543.2,4344,right
64,1,binary,50,2,trial,10176327.0,10178528.0,2201.0,50,R,10178156,10178382,228,1405.1,644.8,4564,right
64,1,binary,50,2,postResponse,10176327.0,10178528.0,2201.0,50,R,10178410,10178860,452,1377.5,547.8,4494,right
64,2,continuous,1,10,fixationCross,10244211.0,10249479.0,5268.0,51,R,10243487,10243549,64,1212.5,699.8,4223,right
64,2,continuous,1,10,fixationCross,10244211.0,10249479.0,5268.0,51,R,10243597,10243883,288,914.1,875.0,4429,likertHorizontal
64,2,continuous,1,10,trial,10244211.0,10249479.0,5268.0,51,R,10243945,10244359,416,957.0,560.6,4833,NA
64,2,continuous,1,10,trial,10244211.0,10249479.0,5268.0,51,R,10244423,10244541,120,1395.5,489.3,4760,right
64,2,continuous,1,10,trial,10244211.0,10249479.0,5268.0,51,R,10244617,10244745,130,566.7,565.4,4585,left
64,2,continuous,1,10,trial,10244211.0,10249479.0,5268.0,51,R,10244817,10244923,108,1289.5,978.9,4321,NA
64,2,continuous,1,10,trial,10244211.0,10249479.0,5268.0,51,R,10244999,10245243,246,556.1,603.3,4354,left
64,2,continuous,1,10,trial,10244211.0,10249479.0,5268.0,51,R,10245323,10245771,450,1444.8,547.4,4105,right
64,2,continuous,1,10,trial,10244211.0,10249479.0,5268.0,51,R,10245795,10245889,96,1336.1,567.3,4322,right
64,2,continuous,1,10,trial,10244211.0,10249479.0,5268.0,51,R,10245939,10246059,122,1314.5,1022.6,4555,NA
64,2,continuous,1,10,trial,10244211.0,10249479.0,5268.0,51,R,10246099,10246275,178,1482.0,1021.0,4596,NA
64,2,continuous,1,10,trial,10244211.0,10249479.0,5268.0,51,R,10246357,10246547,192,512.8,1009.2,4858,NA
64,2,continuous,1,10,trial,10244211.0,10249479.0,5268.0,51,R,10246617,10246817,202,452.1,550.6,4590,left
64,2,continuous,1,10,trial,10244211.0,10249479.0,5268.0,51,R,10246853,10247029,178,558.6,562.6,4335,left
64,2,continuous,1,10,trial,10244211.0,10249479.0,5268.0,51,R,10247059,10247495,438,514.3,544.3,4344,left
64,2,continuous,1,10,trial,10244211.0,10249479.0,5268.0,51,R,10247693,10247891,200,509.5,575.0,4654,left
64,2,continuous,1,10,trial,10244211.0,10249479.0,5268.0,51,R,10247919,10248325,408,524.2,547.6,4741,left
64,2,continuous,1,10,trial,10244211.0,10249479.0,5268.0,51,R,10248347,10248647,302,456.9,564.7,4458,left
64,2,continuous,1,10,trial,10244211.0,10249479.0,5268.0,51,R,10248683,10249055,374,550.5,550.5,4359,left
64,2,continuous,1,10,trial,10244211.0,10249479.0,5268.0,51,R,10249075,10249241,168,471.9,557.3,4420,left
64,2,continuous,1,10,trial,10244211.0,10249479.0,5268.0,51,R,10249327,10249713,388,1411.4,573.0,4222,right
64,2,continuous,1,10,postResponse,10244211.0,10249479.0,5268.0,51,R,10249777,10249813,38,691.4,853.8,4408,NA
64,2,continuous,2,96,fixationCross,10250512.0,10252512.0,2000.0,52,R,10249887,10250007,122,684.0,855.3,4540,NA
64,2,continuous,2,96,fixationCross,10250512.0,10252512.0,2000.0,52,R,10250071,10250193,124,1084.4,945.2,4667,likertHorizontal
64,2,continuous,2,96,fixationCross,10250512.0,10252512.0,2000.0,52,R,10250259,10250453,196,925.9,566.1,4872,NA
64,2,continuous,2,96,trial,10250512.0,10252512.0,2000.0,52,R,10250473,10250749,278,947.4,562.0,5083,NA
64,2,continuous,2,96,trial,10250512.0,10252512.0,2000.0,52,R,10250813,10251201,390,560.9,517.7,4709,left
64,2,continuous,2,96,trial,10250512.0,10252512.0,2000.0,52,R,10251227,10251343,118,487.5,593.1,4290,left
64,2,continuous,2,96,trial,10250512.0,10252512.0,2000.0,52,R,10251419,10251607,190,1458.2,562.3,4085,right
64,2,continuous,2,96,trial,10250512.0,10252512.0,2000.0,52,R,10251635,10252019,386,1626.1,508.6,4147,right
64,2,continuous,2,96,trial,10250512.0,10252512.0,2000.0,52,R,10252069,10252217,150,1233.8,555.7,4401,right
64,2,continuous,2,96,trial,10250512.0,10252512.0,2000.0,52,R,10252293,10252765,474,561.6,567.6,4445,left
64,2,continuous,3,92,fixationCross,10253728.0,10256628.0,2900.0,53,R,10252973,10253117,146,780.7,541.0,4503,NA
64,2,continuous,3,92,fixationCross,10253728.0,10256628.0,2900.0,53,R,10253181,10253445,266,1304.6,559.2,4760,right
64,2,continuous,3,92,trial,10253728.0,10256628.0,2900.0,53,R,10253499,10253921,424,1027.7,476.8,4861,NA
64,2,continuous,3,92,trial,10253728.0,10256628.0,2900.0,53,R,10253989,10254277,290,531.5,500.7,4693,left
64,2,continuous,3,92,trial,10253728.0,10256628.0,2900.0,53,R,10254309,10254683,376,464.4,534.9,4138,left
64,2,continuous,3,92,trial,10253728.0,10256628.0,2900.0,53,R,10254749,10255461,714,1393.2,553.5,3873,right
64,2,continuous,3,92,trial,10253728.0,10256628.0,2900.0,53,R,10255545,10255839,296,507.0,509.3,4096,left
64,2,continuous,3,92,trial,10253728.0,10256628.0,2900.0,53,R,10255911,10256207,298,1378.0,633.6,3812,right
64,2,continuous,3,92,trial,10253728.0,10256628.0,2900.0,53,R,10256233,10256525,294,1497.8,587.9,3884,right
64,2,continuous,3,92,trial,10253728.0,10256628.0,2900.0,53,R,10256549,10256849,302,1402.8,574.4,3957,right
64,2,continuous,4,90,fixationCross,10257795.0,10260461.0,2666.0,54,R,10257067,10257177,112,657.4,533.4,4120,left
64,2,continuous,4,90,fixationCross,10257795.0,10260461.0,2666.0,54,R,10257235,10257483,250,1135.1,485.5,4360,NA
64,2,continuous,4,90,trial,10257795.0,10260461.0,2666.0,54,R,10257521,10257949,430,962.4,531.7,4650,NA
64,2,continuous,4,90,trial,10257795.0,10260461.0,2666.0,54,R,10258001,10258197,198,554.7,514.9,4523,left
64,2,continuous,4,90,trial,10257795.0,10260461.0,2666.0,54,R,10258235,10258611,378,458.4,588.6,4188,left
64,2,continuous,4,90,trial,10257795.0,10260461.0,2666.0,54,R,10258693,10259001,310,1385.0,542.2,3954,right
64,2,continuous,4,90,trial,10257795.0,10260461.0,2666.0,54,R,10259025,10259689,666,1387.6,583.5,3927,right
64,2,continuous,4,90,trial,10257795.0,10260461.0,2666.0,54,R,10259729,10260041,314,1571.3,579.9,3990,right
64,2,continuous,4,90,trial,10257795.0,10260461.0,2666.0,54,R,10260067,10260483,418,1382.8,586.6,4258,right
64,2,continuous,4,90,trial,10257795.0,10260461.0,2666.0,54,R,10260521,10260713,194,1371.6,791.9,4398,NA
64,2,continuous,5,5,fixationCross,10261695.0,10264462.0,2767.0,55,R,10260897,10261153,258,842.2,534.2,4581,NA
64,2,continuous,5,5,fixationCross,10261695.0,10264462.0,2767.0,55,R,10261181,10261431,252,1059.7,459.8,4625,NA
64,2,continuous,5,5,fixationCross,10261695.0,10264462.0,2767.0,55,R,10261457,10261615,160,903.0,482.9,4667,NA
64,2,continuous,5,5,trial,10261695.0,10264462.0,2767.0,55,R,10261783,10261873,92,884.4,499.6,4794,NA
64,2,continuous,5,5,trial,10261695.0,10264462.0,2767.0,55,R,10261923,10262255,334,524.6,557.1,4921,left
64,2,continuous,5,5,trial,10261695.0,10264462.0,2767.0,55,R,10262287,10262495,210,597.5,544.3,4273,left
64,2,continuous,5,5,trial,10261695.0,10264462.0,2767.0,55,R,10262573,10262905,334,1417.5,521.4,3657,right
64,2,continuous,5,5,trial,10261695.0,10264462.0,2767.0,55,R,10262923,10263327,406,1359.1,533.5,3822,right
64,2,continuous,5,5,trial,10261695.0,10264462.0,2767.0,55,R,10263403,10263613,212,450.3,615.5,4086,left
64,2,continuous,5,5,trial,10261695.0,10264462.0,2767.0,55,R,10263639,10263943,306,543.6,583.5,3928,left
64,2,continuous,5,5,postResponse,10261695.0,10264462.0,2767.0,55,R,10263971,10264799,830,613.8,512.6,3963,left
64,2,continuous,6,87,fixationCross,10265345.0,10268378.0,3033.0,56,R,10264873,10265049,178,1290.9,579.8,4069,right
64,2,continuous,6,87,trial,10265345.0,10268378.0,3033.0,56,R,10265107,10265405,300,910.1,491.6,4397,NA
64,2,continuous,6,87,trial,10265345.0,10268378.0,3033.0,56,R,10265463,10265625,164,1176.9,516.1,4660,NA
64,2,continuous,6,87,trial,10265345.0,10268378.0,3033.0,56,R,10265699,10265941,244,539.6,660.3,4614,left
64,2,continuous,6,87,trial,10265345.0,10268378.0,3033.0,56,R,10266021,10266329,310,1384.9,458.5,4032,right
64,2,continuous,6,87,trial,10265345.0,10268378.0,3033.0,56,R,10266367,10266649,284,1354.9,562.2,3937,right
64,2,continuous,6,87,trial,10265345.0,10268378.0,3033.0,56,R,10266831,10267027,198,540.0,665.3,4275,left
64,2,continuous,6,87,trial,10265345.0,10268378.0,3033.0,56,R,10267111,10267321,212,1421.0,507.7,4228,right
64,2,continuous,6,87,trial,10265345.0,10268378.0,3033.0,56,R,10267351,10267519,170,1471.4,458.6,4157,right
64,2,continuous,6,87,trial,10265345.0,10268378.0,3033.0,56,R,10267545,10267845,302,1384.2,444.7,4155,right
64,2,continuous,6,87,trial,10265345.0,10268378.0,3033.0,56,R,10267929,10268687,760,487.6,655.7,4096,left
64,2,continuous,7,12,fixationCross,10269278.0,10271312.0,2034.0,57,R,10268785,10268959,176,1326.9,543.7,3936,right
64,2,continuous,7,12,trial,10269278.0,10271312.0,2034.0,57,R,10269011,10269305,296,983.8,484.8,4387,NA
64,2,continuous,7,12,trial,10269278.0,10271312.0,2034.0,57,R,10269331,10269463,134,805.9,412.8,4660,NA
64,2,continuous,7,12,trial,10269278.0,10271312.0,2034.0,57,R,10269513,10269661,150,537.6,552.4,4796,left
64,2,continuous,7,12,trial,10269278.0,10271312.0,2034.0,57,R,10269701,10270061,362,429.9,633.8,4397,left
64,2,continuous,7,12,trial,10269278.0,10271312.0,2034.0,57,R,10270089,10270253,166,436.5,582.2,4107,left
64,2,continuous,7,12,trial,10269278.0,10271312.0,2034.0,57,R,10270311,10270389,80,831.6,531.1,4007,NA
64,2,continuous,7,12,trial,10269278.0,10271312.0,2034.0,57,R,10270459,10270759,302,1505.3,557.3,3796,right
64,2,continuous,7,12,trial,10269278.0,10271312.0,2034.0,57,R,10270833,10271517,686,532.5,596.5,4059,left
64,2,continuous,8,2,fixationCross,10272211.0,10275678.0,3467.0,58,R,10271719,10271893,176,1326.1,557.2,3801,right
64,2,continuous,8,2,trial,10272211.0,10275678.0,3467.0,58,R,10271949,10272279,332,898.4,505.4,4269,NA
64,2,continuous,8,2,trial,10272211.0,10275678.0,3467.0,58,R,10272335,10272461,128,1136.8,494.8,4369,NA
64,2,continuous,8,2,trial,10272211.0,10275678.0,3467.0,58,R,10272503,10272755,254,1362.3,514.8,4102,right
64,2,continuous,8,2,trial,10272211.0,10275678.0,3467.0,58,R,10272829,10273181,354,594.5,570.8,4117,left
64,2,continuous,8,2,trial,10272211.0,10275678.0,3467.0,58,R,10273253,10273465,214,1431.7,533.7,3929,right
64,2,continuous,8,2,trial,10272211.0,10275678.0,3467.0,58,R,10273489,10273845,358,1297.6,513.9,4010,right
64,2,continuous,8,2,trial,10272211.0,10275678.0,3467.0,58,R,10273875,10274043,170,1478.7,516.5,4138,right
64,2,continuous,8,2,trial,10272211.0,10275678.0,3467.0,58,R,10274129,10274415,288,507.5,594.4,4375,left
64,2,continuous,8,2,trial,10272211.0,10275678.0,3467.0,58,R,10274451,10274849,400,590.3,607.1,4032,left
64,2,continuous,8,2,trial,10272211.0,10275678.0,3467.0,58,R,10274875,10275209,336,422.6,578.2,4217,left
64,2,continuous,8,2,trial,10272211.0,10275678.0,3467.0,58,R,10275259,10275431,174,480.7,968.6,4224,NA
64,2,continuous,8,2,trial,10272211.0,10275678.0,3467.0,58,R,10275459,10275677,220,467.2,1003.9,4124,NA
64,2,continuous,8,2,trial,10272211.0,10275678.0,3467.0,58,R,10275697,10275939,244,449.5,983.1,4039,NA
64,2,continuous,9,15,fixationCross,10276779.0,10279245.0,2466.0,59,R,10276111,10276467,358,1106.8,514.7,4095,NA
64,2,continuous,9,15,trial,10276779.0,10279245.0,2466.0,59,R,10276503,10276955,454,953.1,532.3,4432,NA
64,2,continuous,9,15,trial,10276779.0,10279245.0,2466.0,59,R,10277019,10277233,216,490.8,531.6,4321,left
64,2,continuous,9,15,trial,10276779.0,10279245.0,2466.0,59,R,10277319,10277577,260,1458.8,519.7,3827,right
64,2,continuous,9,15,trial,10276779.0,10279245.0,2466.0,59,R,10277669,10277917,250,444.4,589.6,3916,left
64,2,continuous,9,15,trial,10276779.0,10279245.0,2466.0,59,R,10277949,10278241,294,392.8,511.2,3773,left
64,2,continuous,9,15,trial,10276779.0,10279245.0,2466.0,59,R,10278271,10279029,760,396.0,689.2,3797,left
64,2,continuous,9,15,trial,10276779.0,10279245.0,2466.0,59,R,10279055,10279437,384,617.2,625.1,4029,left
64,2,continuous,10,80,fixationCross,10280395.0,10283012.0,2617.0,60,R,10279677,10279917,242,835.0,559.5,4253,NA
64,2,continuous,10,80,fixationCross,10280395.0,10283012.0,2617.0,60,R,10279971,10280149,180,1184.0,498.4,4501,right
64,2,continuous,10,80,trial,10280395.0,10283012.0,2617.0,60,R,10280177,10280425,250,1004.9,507.3,4324,NA
64,2,continuous,10,80,trial,10280395.0,10283012.0,2617.0,60,R,10280461,10280583,124,865.4,524.7,4239,NA
64,2,continuous,10,80,trial,10280395.0,10283012.0,2617.0,60,R,10280633,10280725,94,545.9,582.7,4277,left
64,2,continuous,10,80,trial,10280395.0,10283012.0,2617.0,60,R,10280807,10281101,296,1419.0,512.2,3966,right
64,2,continuous,10,80,trial,10280395.0,10283012.0,2617.0,60,R,10281161,10281517,358,586.6,607.5,4000,left
64,2,continuous,10,80,trial,10280395.0,10283012.0,2617.0,60,R,10281541,10281659,120,651.1,587.4,3958,left
64,2,continuous,10,80,trial,10280395.0,10283012.0,2617.0,60,R,10281725,10282415,692,1405.2,510.4,3860,right
64,2,continuous,10,80,trial,10280395.0,10283012.0,2617.0,60,R,10282481,10282823,344,664.9,581.1,4445,left
64,2,continuous,10,80,trial,10280395.0,10283012.0,2617.0,60,R,10282903,10283281,380,1336.5,922.0,4147,NA
64,2,continuous,11,38,fixationCross,10284079.0,10286912.0,2833.0,61,R,10283421,10283771,352,804.0,455.6,4467,NA
64,2,continuous,11,38,trial,10284079.0,10286912.0,2833.0,61,R,10283811,10284239,430,981.0,484.0,4355,NA
64,2,continuous,11,38,trial,10284079.0,10286912.0,2833.0,61,R,10284303,10284567,266,1463.8,519.1,4192,right
64,2,continuous,11,38,trial,10284079.0,10286912.0,2833.0,61,R,10284641,10285217,578,633.0,521.6,4026,left
64,2,continuous,11,38,trial,10284079.0,10286912.0,2833.0,61,R,10285299,10285547,250,1515.5,504.8,3829,right
64,2,continuous,11,38,trial,10284079.0,10286912.0,2833.0,61,R,10285573,10285887,316,1434.2,469.0,3952,right
64,2,continuous,11,38,trial,10284079.0,10286912.0,2833.0,61,R,10285949,10286203,256,806.9,805.4,4293,likertHorizontal
64,2,continuous,11,38,trial,10284079.0,10286912.0,2833.0,61,R,10286399,10286489,92,648.7,555.1,4411,left
64,2,continuous,11,38,trial,10284079.0,10286912.0,2833.0,61,R,10286549,10286831,284,937.4,936.6,4571,likertHorizontal
64,2,continuous,11,38,trial,10284079.0,10286912.0,2833.0,61,R,10286889,10287205,318,825.7,539.6,4592,NA
64,2,continuous,12,70,fixationCross,10287995.0,10290762.0,2767.0,62,R,10287345,10287655,312,1461.4,657.4,4378,right
64,2,continuous,12,70,fixationCross,10287995.0,10290762.0,2767.0,62,R,10287721,10287935,216,897.2,521.4,4752,NA
64,2,continuous,12,70,trial,10287995.0,10290762.0,2767.0,62,R,10287971,10288179,210,1009.0,495.7,4644,NA
64,2,continuous,12,70,trial,10287995.0,10290762.0,2767.0,62,R,10288239,10288475,238,1429.2,570.6,4444,right
64,2,continuous,12,70,trial,10287995.0,10290762.0,2767.0,62,R,10288515,10288535,22,1468.3,451.4,4256,right
64,2,continuous,12,70,trial,10287995.0,10290762.0,2767.0,62,R,10288611,10288807,198,623.5,468.8,4258,left
64,2,continuous,12,70,trial,10287995.0,10290762.0,2767.0,62,R,10288843,10289265,424,523.6,512.8,4116,left
64,2,continuous,12,70,trial,10287995.0,10290762.0,2767.0,62,R,10289337,10289543,208,1435.0,550.0,3815,right
64,2,continuous,12,70,trial,10287995.0,10290762.0,2767.0,62,R,10289577,10289875,300,1497.4,466.4,3746,right
64,2,continuous,12,70,trial,10287995.0,10290762.0,2767.0,62,R,10289901,10290127,228,1381.3,531.9,3888,right
64,2,continuous,12,70,trial,10287995.0,10290762.0,2767.0,62,R,10290193,10290301,110,682.2,495.4,4075,left
64,2,continuous,12,70,trial,10287995.0,10290762.0,2767.0,62,R,10290367,10290625,260,1406.9,530.6,3954,right
64,2,continuous,12,70,trial,10287995.0,10290762.0,2767.0,62,R,10290661,10291007,348,1490.6,467.6,4060,right
64,2,continuous,13,23,fixationCross,10291679.0,10293695.0,2016.0,63,R,10291203,10291565,364,1035.3,576.2,4694,NA
64,2,continuous,13,23,trial,10291679.0,10293695.0,2016.0,63,R,10291597,10291869,274,931.4,536.4,4914,NA
64,2,continuous,13,23,trial,10291679.0,10293695.0,2016.0,63,R,10291927,10292111,186,670.1,509.6,4482,left
64,2,continuous,13,23,trial,10291679.0,10293695.0,2016.0,63,R,10292147,10292429,284,571.3,528.6,3979,left
64,2,continuous,13,23,trial,10291679.0,10293695.0,2016.0,63,R,10292449,10292671,224,615.8,515.9,3750,left
64,2,continuous,13,23,trial,10291679.0,10293695.0,2016.0,63,R,10292699,10293003,306,444.0,553.1,3837,left
64,2,continuous,13,23,trial,10291679.0,10293695.0,2016.0,63,R,10293023,10293237,216,405.9,575.1,4150,left
64,2,continuous,13,23,trial,10291679.0,10293695.0,2016.0,63,R,10293281,10293439,160,700.4,508.5,4219,left
64,2,continuous,13,23,trial,10291679.0,10293695.0,2016.0,63,R,10293485,10293645,162,505.1,542.2,4175,left
64,2,continuous,13,23,trial,10291679.0,10293695.0,2016.0,63,R,10293725,10293987,264,1360.8,561.4,4125,right
64,2,continuous,14,3,fixationCross,10294845.0,10297429.0,2584.0,64,R,10294183,10294327,146,1282.5,498.9,4229,right
64,2,continuous,14,3,fixationCross,10294845.0,10297429.0,2584.0,64,R,10294391,10294587,198,738.2,580.7,4594,NA
64,2,continuous,14,3,trial,10294845.0,10297429.0,2584.0,64,R,10294645,10294993,350,1056.4,529.7,4554,NA
64,2,continuous,14,3,trial,10294845.0,10297429.0,2584.0,64,R,10295061,10295371,312,581.4,529.1,4400,left
64,2,continuous,14,3,trial,10294845.0,10297429.0,2584.0,64,R,10295395,10295593,200,431.4,488.3,4086,left
64,2,continuous,14,3,trial,10294845.0,10297429.0,2584.0,64,R,10295679,10296077,400,1474.0,504.6,3695,right
64,2,continuous,14,3,trial,10294845.0,10297429.0,2584.0,64,R,10296143,10296383,242,459.4,510.1,3992,left
64,2,continuous,14,3,trial,10294845.0,10297429.0,2584.0,64,R,10296425,10296895,472,289.4,572.6,3987,left
64,2,continuous,14,3,trial,10294845.0,10297429.0,2584.0,64,R,10296937,10297421,486,521.2,670.1,3995,left
64,2,continuous,14,3,trial,10294845.0,10297429.0,2584.0,64,R,10297447,10297725,280,436.6,559.2,4229,left
64,2,continuous,15,15,fixationCross,10299162.0,10302346.0,3184.0,65,R,10297837,10298071,236,820.1,560.6,4113,NA
64,2,continuous,15,15,fixationCross,10299162.0,10302346.0,3184.0,65,R,10298115,10298923,810,1080.6,474.6,4283,NA
64,2,continuous,15,15,fixationCross,10299162.0,10302346.0,3184.0,65,R,10298949,10299125,178,955.9,535.8,4482,NA
64,2,continuous,15,15,trial,10299162.0,10302346.0,3184.0,65,R,10299313,10299415,104,1007.2,530.6,4518,NA
64,2,continuous,15,15,trial,10299162.0,10302346.0,3184.0,65,R,10299477,10299911,436,1448.3,533.0,4521,right
64,2,continuous,15,15,trial,10299162.0,10302346.0,3184.0,65,R,10299993,10300393,402,565.4,513.1,3914,left
64,2,continuous,15,15,trial,10299162.0,10302346.0,3184.0,65,R,10300465,10300693,230,1432.7,565.4,3613,right
64,2,continuous,15,15,trial,10299162.0,10302346.0,3184.0,65,R,10300725,10300919,196,1502.4,556.5,3773,right
64,2,continuous,15,15,trial,10299162.0,10302346.0,3184.0,65,R,10300941,10301359,420,1459.6,511.6,4017,right
64,2,continuous,15,15,trial,10299162.0,10302346.0,3184.0,65,R,10301439,10301727,290,469.0,599.8,4275,left
64,2,continuous,15,15,trial,10299162.0,10302346.0,3184.0,65,R,10301753,10302123,372,465.9,461.1,4125,left
64,2,continuous,15,15,postResponse,10299162.0,10302346.0,3184.0,65,R,10302151,10302681,532,657.8,420.9,3825,left
64,2,continuous,16,89,fixationCross,10303412.0,10305579.0,2167.0,66,R,10302755,10302811,58,652.6,433.4,4078,left
64,2,continuous,16,89,fixationCross,10303412.0,10305579.0,2167.0,66,R,10302881,10303081,202,1350.0,759.2,4160,NA
64,2,continuous,16,89,trial,10303412.0,10305579.0,2167.0,66,R,10303145,10303477,334,934.2,551.6,4361,NA
64,2,continuous,16,89,trial,10303412.0,10305579.0,2167.0,66,R,10303525,10303629,106,1131.8,496.7,4461,NA
64,2,continuous,16,89,trial,10303412.0,10305579.0,2167.0,66,R,10303703,10303827,126,499.1,569.8,4512,left
64,2,continuous,16,89,trial,10303412.0,10305579.0,2167.0,66,R,10303861,10304121,262,553.3,493.4,4182,left
64,2,continuous,16,89,trial,10303412.0,10305579.0,2167.0,66,R,10304239,10304507,270,1413.5,641.0,3744,right
64,2,continuous,16,89,trial,10303412.0,10305579.0,2167.0,66,R,10304655,10304829,176,1497.3,577.8,3910,right
64,2,continuous,16,89,trial,10303412.0,10305579.0,2167.0,66,R,10304913,10305269,358,535.5,566.4,4217,left
64,2,continuous,16,89,trial,10303412.0,10305579.0,2167.0,66,R,10305353,10305633,282,1451.3,594.9,3820,right
64,2,continuous,16,89,postResponse,10303412.0,10305579.0,2167.0,66,R,10305659,10305913,256,1405.6,669.9,3878,right
64,2,continuous,17,17,fixationCross,10306463.0,10307495.0,1032.0,67,R,10305987,10306117,132,1397.7,672.1,4007,right
64,2,continuous,17,17,trial,10306463.0,10307495.0,1032.0,67,R,10306177,10306597,422,972.9,510.9,4464,NA
64,2,continuous,17,17,trial,10306463.0,10307495.0,1032.0,67,R,10306657,10306841,186,1373.1,506.8,4567,right
64,2,continuous,17,17,trial,10306463.0,10307495.0,1032.0,67,R,10306919,10307377,460,568.0,625.6,4172,left
64,2,continuous,17,17,trial,10306463.0,10307495.0,1032.0,67,R,10307423,10307497,76,904.6,503.6,3885,NA
64,2,continuous,17,17,postResponse,10306463.0,10307495.0,1032.0,67,R,10307547,10307829,284,522.3,542.3,4031,left
64,2,continuous,18,99,fixationCross,10308562.0,10310829.0,2267.0,68,R,10307909,10308247,340,1223.7,536.0,4276,right
64,2,continuous,18,99,trial,10308562.0,10310829.0,2267.0,68,R,10308289,10308565,278,951.7,543.8,4620,NA
64,2,continuous,18,99,trial,10308562.0,10310829.0,2267.0,68,R,10308611,10308769,160,1170.6,523.2,4694,NA
64,2,continuous,18,99,trial,10308562.0,10310829.0,2267.0,68,R,10308841,10309003,164,570.2,558.7,4613,left
64,2,continuous,18,99,trial,10308562.0,10310829.0,2267.0,68,R,10309041,10309251,212,440.0,521.2,4269,left
64,2,continuous,18,99,trial,10308562.0,10310829.0,2267.0,68,R,10309341,10309539,200,1482.7,492.0,3718,right
64,2,continuous,18,99,trial,10308562.0,10310829.0,2267.0,68,R,10309563,10309751,190,1437.2,527.2,3632,right
64,2,continuous,18,99,trial,10308562.0,10310829.0,2267.0,68,R,10309775,10309931,158,1491.1,514.3,3758,right
64,2,continuous,18,99,trial,10308562.0,10310829.0,2267.0,68,R,10309969,10310115,148,1430.7,413.6,3873,right
64,2,continuous,18,99,trial,10308562.0,10310829.0,2267.0,68,R,10310137,10310285,150,1392.7,399.7,3868,right
64,2,continuous,18,99,trial,10308562.0,10310829.0,2267.0,68,R,10310319,10310549,232,1483.3,395.9,3801,right
64,2,continuous,18,99,trial,10308562.0,10310829.0,2267.0,68,R,10310591,10311065,476,1489.4,512.5,3913,right
64,2,continuous,19,86,trial,10311746.0,10313363.0,1617.0,69,R,10311263,10311907,646,957.6,516.5,4211,NA
64,2,continuous,19,86,trial,10311746.0,10313363.0,1617.0,69,R,10311969,10312101,134,539.1,536.9,4098,left
64,2,continuous,19,86,trial,10311746.0,10313363.0,1617.0,69,R,10312129,10312349,222,520.3,407.1,3791,left
64,2,continuous,19,86,trial,10311746.0,10313363.0,1617.0,69,R,10312421,10313221,802,1468.1,491.9,3588,right
64,2,continuous,19,86,trial,10311746.0,10313363.0,1617.0,69,R,10313247,10313543,298,1223.4,470.6,4139,right
64,2,continuous,20,16,fixationCross,10314496.0,10316729.0,2233.0,70,R,10313771,10313881,112,667.3,559.4,4417,left
64,2,continuous,20,16,fixationCross,10314496.0,10316729.0,2233.0,70,R,10313941,10314197,258,1173.5,558.1,4543,NA
64,2,continuous,20,16,trial,10314496.0,10316729.0,2233.0,70,R,10314225,10314653,430,960.5,469.7,4347,NA
64,2,continuous,20,16,trial,10314496.0,10316729.0,2233.0,70,R,10314717,10315029,314,502.4,545.8,4202,left
64,2,continuous,20,16,trial,10314496.0,10316729.0,2233.0,70,R,10315115,10315469,356,1436.2,459.6,3685,right
64,2,continuous,20,16,trial,10314496.0,10316729.0,2233.0,70,R,10315485,10315719,236,1413.2,422.5,3721,right
64,2,continuous,20,16,trial,10314496.0,10316729.0,2233.0,70,R,10315797,10316159,364,494.7,573.2,4051,left
64,2,continuous,20,16,postResponse,10314496.0,10316729.0,2233.0,70,R,10316185,10317063,880,394.5,517.9,4006,left
64,2,continuous,21,86,fixationCross,10317813.0,10320846.0,3033.0,71,R,10317137,10317249,114,403.3,527.2,4268,left
64,2,continuous,21,86,fixationCross,10317813.0,10320846.0,3033.0,71,R,10317331,10317501,172,1283.9,677.9,4378,right
64,2,continuous,21,86,trial,10317813.0,10320846.0,3033.0,71,R,10317551,10317953,404,947.6,539.9,4628,NA
64,2,continuous,21,86,trial,10317813.0,10320846.0,3033.0,71,R,10318011,10318233,224,466.5,506.0,4843,left
64,2,continuous,21,86,trial,10317813.0,10320846.0,3033.0,71,R,10318317,10318467,152,1453.5,554.1,4311,right
64,2,continuous,21,86,trial,10317813.0,10320846.0,3033.0,71,R,10318501,10318567,68,1530.3,494.0,4074,right
64,2,continuous,21,86,trial,10317813.0,10320846.0,3033.0,71,R,10318603,10318793,192,1543.5,406.8,3976,right
64,2,continuous,21,86,trial,10317813.0,10320846.0,3033.0,71,R,10318823,10319077,256,1280.8,397.5,4035,right
64,2,continuous,21,86,trial,10317813.0,10320846.0,3033.0,71,R,10319111,10319325,216,1508.8,546.3,4156,right
64,2,continuous,21,86,trial,10317813.0,10320846.0,3033.0,71,R,10319347,10319535,190,1517.5,508.1,4295,right
64,2,continuous,21,86,trial,10317813.0,10320846.0,3033.0,71,R,10319561,10319703,144,1511.6,416.7,4287,right
64,2,continuous,21,86,trial,10317813.0,10320846.0,3033.0,71,R,10319733,10320067,336,1297.9,430.3,4346,right
64,2,continuous,21,86,trial,10317813.0,10320846.0,3033.0,71,R,10320151,10320397,248,463.2,512.0,4600,left
64,2,continuous,21,86,trial,10317813.0,10320846.0,3033.0,71,R,10320493,10320823,332,1570.7,566.8,4103,right
64,2,continuous,21,86,trial,10317813.0,10320846.0,3033.0,71,R,10320849,10321133,286,1469.8,523.7,4107,right
64,2,continuous,22,62,fixationCross,10322012.0,10324296.0,2284.0,72,R,10321257,10321451,196,511.9,562.9,4249,left
64,2,continuous,22,62,fixationCross,10322012.0,10324296.0,2284.0,72,R,10321525,10321703,180,1174.7,932.4,4414,likertHorizontal
64,2,continuous,22,62,trial,10322012.0,10324296.0,2284.0,72,R,10321759,10322189,432,983.7,526.8,4539,NA
64,2,continuous,22,62,trial,10322012.0,10324296.0,2284.0,72,R,10322255,10322403,150,515.5,562.9,4774,left
64,2,continuous,22,62,trial,10322012.0,10324296.0,2284.0,72,R,10322435,10322627,194,566.1,593.2,4415,left
64,2,continuous,22,62,trial,10322012.0,10324296.0,2284.0,72,R,10322665,10322851,188,471.3,489.4,4126,left
64,2,continuous,22,62,trial,10322012.0,10324296.0,2284.0,72,R,10322891,10323163,274,560.9,578.0,4063,left
64,2,continuous,22,62,trial,10322012.0,10324296.0,2284.0,72,R,10323237,10323373,138,1492.1,450.9,4018,right
64,2,continuous,22,62,trial,10322012.0,10324296.0,2284.0,72,R,10323401,10324109,710,1336.0,475.0,4042,right
64,2,continuous,22,62,trial,10322012.0,10324296.0,2284.0,72,R,10324283,10324571,290,1386.6,485.5,3990,right
64,2,continuous,23,45,fixationCross,10325312.0,10328879.0,3567.0,73,R,10324709,10325015,308,942.0,754.3,4530,likertHorizontal
64,2,continuous,23,45,trial,10325312.0,10328879.0,3567.0,73,R,10325061,10325469,410,969.1,519.4,4601,NA
64,2,continuous,23,45,trial,10325312.0,10328879.0,3567.0,73,R,10325535,10325617,84,497.0,530.9,4572,left
64,2,continuous,23,45,trial,10325312.0,10328879.0,3567.0,73,R,10325697,10325949,254,1391.6,480.7,4142,right
64,2,continuous,23,45,trial,10325312.0,10328879.0,3567.0,73,R,10325975,10326451,478,1493.6,435.4,3958,right
64,2,continuous,23,45,trial,10325312.0,10328879.0,3567.0,73,R,10326485,10326881,398,1435.7,601.4,4119,right
64,2,continuous,23,45,trial,10325312.0,10328879.0,3567.0,73,R,10326909,10327115,208,1286.3,509.8,4210,right
64,2,continuous,23,45,trial,10325312.0,10328879.0,3567.0,73,R,10327145,10327309,166,1274.3,392.9,4096,right
64,2,continuous,23,45,trial,10325312.0,10328879.0,3567.0,73,R,10327359,10327557,200,1486.3,415.2,4055,right
64,2,continuous,23,45,trial,10325312.0,10328879.0,3567.0,73,R,10327649,10327929,282,437.0,554.2,4483,left
64,2,continuous,23,45,trial,10325312.0,10328879.0,3567.0,73,R,10327963,10328359,398,502.5,516.2,4088,left
64,2,continuous,23,45,trial,10325312.0,10328879.0,3567.0,73,R,10328383,10328671,290,429.2,512.7,3867,left
64,2,continuous,23,45,trial,10325312.0,10328879.0,3567.0,73,R,10328701,10329089,390,509.6,542.0,3930,left
64,2,continuous,24,37,fixationCross,10329779.0,10331929.0,2150.0,74,R,10329313,10329735,424,1057.8,549.6,4221,NA
64,2,continuous,24,37,trial,10329779.0,10331929.0,2150.0,74,R,10329761,10329929,170,973.9,551.0,4504,NA
64,2,continuous,24,37,trial,10329779.0,10331929.0,2150.0,74,R,10329993,10330205,214,1433.7,493.2,4112,right
64,2,continuous,24,37,trial,10329779.0,10331929.0,2150.0,74,R,10330281,10330437,158,670.5,538.5,3970,left
64,2,continuous,24,37,trial,10329779.0,10331929.0,2150.0,74,R,10330515,10330767,254,1449.0,494.0,3801,right
64,2,continuous,24,37,trial,10329779.0,10331929.0,2150.0,74,R,10330849,10331097,250,513.6,576.0,4069,left
64,2,continuous,24,37,trial,10329779.0,10331929.0,2150.0,74,R,10331137,10331375,240,674.7,554.8,3960,left
64,2,continuous,24,37,trial,10329779.0,10331929.0,2150.0,74,R,10331407,10331565,160,970.6,516.4,3826,NA
64,2,continuous,24,37,trial,10329779.0,10331929.0,2150.0,74,R,10331627,10331819,194,1408.8,470.1,3885,right
64,2,continuous,24,37,trial,10329779.0,10331929.0,2150.0,74,R,10331903,10332243,342,812.3,1013.8,4330,likertHorizontal
64,2,continuous,25,42,fixationCross,10332896.0,10335112.0,2216.0,75,R,10332363,10332591,230,1145.5,526.1,4171,NA
64,2,continuous,25,42,fixationCross,10332896.0,10335112.0,2216.0,75,R,10332617,10332889,274,971.1,479.4,4541,NA
64,2,continuous,25,42,trial,10332896.0,10335112.0,2216.0,75,R,10332921,10333045,126,1184.7,510.8,4703,right
64,2,continuous,25,42,trial,10332896.0,10335112.0,2216.0,75,R,10333119,10333317,200,548.3,557.6,4795,left
64,2,continuous,25,42,trial,10332896.0,10335112.0,2216.0,75,R,10333353,10333553,202,462.6,485.1,4509,left
64,2,continuous,25,42,trial,10332896.0,10335112.0,2216.0,75,R,10333575,10333879,306,467.9,438.4,4119,left
64,2,continuous,25,42,trial,10332896.0,10335112.0,2216.0,75,R,10333963,10334151,190,1438.9,548.0,3845,right
64,2,continuous,25,42,trial,10332896.0,10335112.0,2216.0,75,R,10334175,10334491,318,1495.2,554.4,3954,right
64,2,continuous,25,42,trial,10332896.0,10335112.0,2216.0,75,R,10334577,10334835,260,498.1,534.3,4353,left
64,2,continuous,25,42,trial,10332896.0,10335112.0,2216.0,75,R,10334869,10335295,428,479.3,443.6,4033,left
64,2,continuous,26,30,fixationCross,10357263.0,10358830.0,1567.0,76,R,10356685,10356859,176,207.0,60.4,4282,NA
64,2,continuous,26,30,fixationCross,10357263.0,10358830.0,1567.0,76,R,10356931,10357059,130,865.5,502.7,4494,NA
64,2,continuous,26,30,trial,10357263.0,10358830.0,1567.0,76,R,10357097,10357337,242,952.4,561.0,4693,NA
64,2,continuous,26,30,trial,10357263.0,10358830.0,1567.0,76,R,10357357,10357479,124,943.0,547.9,4743,NA
64,2,continuous,26,30,trial,10357263.0,10358830.0,1567.0,76,R,10357541,10357703,164,540.7,567.4,4838,left
64,2,continuous,26,30,trial,10357263.0,10358830.0,1567.0,76,R,10357737,10357899,164,646.4,596.5,4492,left
64,2,continuous,26,30,trial,10357263.0,10358830.0,1567.0,76,R,10357961,10358183,224,1337.7,532.6,4217,right
64,2,continuous,26,30,trial,10357263.0,10358830.0,1567.0,76,R,10358251,10358535,286,650.9,606.9,4491,left
64,2,continuous,26,30,trial,10357263.0,10358830.0,1567.0,76,R,10358575,10358807,234,444.6,627.2,4649,left
64,2,continuous,26,30,trial,10357263.0,10358830.0,1567.0,76,R,10358891,10359069,180,1295.0,503.4,4307,right
64,2,continuous,27,24,fixationCross,10359896.0,10361396.0,1500.0,77,R,10359283,10359601,320,686.2,442.9,4634,left
64,2,continuous,27,24,trial,10359896.0,10361396.0,1500.0,77,R,10359657,10359917,262,971.6,558.9,5014,NA
64,2,continuous,27,24,trial,10359896.0,10361396.0,1500.0,77,R,10359939,10360057,120,935.8,562.2,4881,NA
64,2,continuous,27,24,trial,10359896.0,10361396.0,1500.0,77,R,10360123,10360297,176,462.0,605.4,4806,left
64,2,continuous,27,24,trial,10359896.0,10361396.0,1500.0,77,R,10360341,10360543,204,436.5,448.3,4431,left
64,2,continuous,27,24,trial,10359896.0,10361396.0,1500.0,77,R,10360597,10360763,168,472.3,615.1,4158,left
64,2,continuous,27,24,trial,10359896.0,10361396.0,1500.0,77,R,10360787,10361431,646,453.0,539.9,3993,left
64,2,continuous,27,24,trial,10359896.0,10361396.0,1500.0,77,R,10361511,10361633,124,1351.9,507.3,3890,right
64,2,continuous,28,7,fixationCross,10362529.0,10364363.0,1834.0,78,R,10361829,10362051,224,1162.7,451.3,4170,NA
64,2,continuous,28,7,fixationCross,10362529.0,10364363.0,1834.0,78,R,10362097,10362225,130,1373.3,525.1,4446,right
64,2,continuous,28,7,trial,10362529.0,10364363.0,1834.0,78,R,10362287,10362701,416,949.4,539.4,4739,NA
64,2,continuous,28,7,trial,10362529.0,10364363.0,1834.0,78,R,10362763,10363151,390,1353.5,495.7,4309,right
64,2,continuous,28,7,trial,10362529.0,10364363.0,1834.0,78,R,10363231,10363825,596,517.4,551.7,3965,left
64,2,continuous,28,7,trial,10362529.0,10364363.0,1834.0,78,R,10363847,10364591,746,475.8,521.7,4020,left
64,2,continuous,29,3,fixationCross,10365330.0,10367596.0,2266.0,79,R,10364813,10365035,224,1192.1,651.7,4245,right
64,2,continuous,29,3,fixationCross,10365330.0,10367596.0,2266.0,79,R,10365091,10365237,148,881.9,507.8,4595,NA
64,2,continuous,29,3,trial,10365330.0,10367596.0,2266.0,79,R,10365283,10365483,202,977.4,543.1,4568,NA
64,2,continuous,29,3,trial,10365330.0,10367596.0,2266.0,79,R,10365547,10365823,278,1419.8,562.0,4091,right
64,2,continuous,29,3,trial,10365330.0,10367596.0,2266.0,79,R,10365895,10366207,314,585.1,528.8,4014,left
64,2,continuous,29,3,trial,10365330.0,10367596.0,2266.0,79,R,10366289,10366551,264,1488.9,531.1,3762,right
64,2,continuous,29,3,trial,10365330.0,10367596.0,2266.0,79,R,10366629,10367117,490,566.7,607.9,4348,left
64,2,continuous,29,3,trial,10365330.0,10367596.0,2266.0,79,R,10367143,10367799,658,505.9,575.2,4161,left
64,2,continuous,30,1,fixationCross,10368647.0,10370013.0,1366.0,80,R,10368009,10368135,128,1439.2,839.3,4056,NA
64,2,continuous,30,1,fixationCross,10368647.0,10370013.0,1366.0,80,R,10368195,10368333,140,927.5,780.4,4376,likertHorizontal
64,2,continuous,30,1,fixationCross,10368647.0,10370013.0,1366.0,80,R,10368361,10368487,128,986.2,582.8,4536,NA
64,2,continuous,30,1,trial,10368647.0,10370013.0,1366.0,80,R,10368519,10368821,304,963.2,550.2,4649,NA
64,2,continuous,30,1,trial,10368647.0,10370013.0,1366.0,80,R,10368889,10369133,246,549.8,634.6,4362,left
64,2,continuous,30,1,trial,10368647.0,10370013.0,1366.0,80,R,10369165,10369491,328,458.2,659.7,3913,left
64,2,continuous,30,1,trial,10368647.0,10370013.0,1366.0,80,R,10369503,10369771,270,481.9,645.6,3671,left
64,2,continuous,30,1,trial,10368647.0,10370013.0,1366.0,80,R,10369847,10370247,402,1495.2,477.9,3444,right
64,2,continuous,31,82,fixationCross,10371396.0,10373080.0,1684.0,81,R,10370467,10370467,2,556.9,794.4,3947,NA
64,2,continuous,31,82,fixationCross,10371396.0,10373080.0,1684.0,81,R,10370489,10370713,226,567.0,751.6,4252,NA
64,2,continuous,31,82,fixationCross,10371396.0,10373080.0,1684.0,81,R,10370781,10371067,288,1158.9,535.2,4458,NA
64,2,continuous,31,82,trial,10371396.0,10373080.0,1684.0,81,R,10371093,10371425,334,1046.9,489.8,4405,NA
64,2,continuous,31,82,trial,10371396.0,10373080.0,1684.0,81,R,10371459,10371581,124,967.3,539.1,4494,NA
64,2,continuous,31,82,trial,10371396.0,10373080.0,1684.0,81,R,10371647,10371785,140,540.2,541.9,4535,left
64,2,continuous,31,82,trial,10371396.0,10373080.0,1684.0,81,R,10371823,10372047,226,468.1,451.2,4118,left
64,2,continuous,31,82,trial,10371396.0,10373080.0,1684.0,81,R,10372131,10372561,432,1490.0,568.0,3533,right
64,2,continuous,31,82,trial,10371396.0,10373080.0,1684.0,81,R,10372585,10372753,170,1546.6,525.2,3584,right
64,2,continuous,31,82,trial,10371396.0,10373080.0,1684.0,81,R,10372813,10373055,244,1404.3,990.2,3742,NA
64,2,continuous,31,82,trial,10371396.0,10373080.0,1684.0,81,R,10373099,10373301,204,1468.9,525.5,3896,right
64,2,continuous,32,11,fixationCross,10374413.0,10376429.0,2016.0,82,R,10373489,10374109,622,1166.3,484.5,4409,NA
64,2,continuous,32,11,fixationCross,10374413.0,10376429.0,2016.0,82,R,10374135,10374377,244,997.8,526.0,4341,NA
64,2,continuous,32,11,trial,10374413.0,10376429.0,2016.0,82,R,10374407,10374601,196,946.6,536.8,4110,NA
64,2,continuous,32,11,trial,10374413.0,10376429.0,2016.0,82,R,10374653,10374859,208,610.0,564.5,4094,left
64,2,continuous,32,11,trial,10374413.0,10376429.0,2016.0,82,R,10374881,10375001,122,595.3,479.9,3918,left
64,2,continuous,32,11,trial,10374413.0,10376429.0,2016.0,82,R,10375073,10375415,344,1388.6,512.1,3586,right
64,2,continuous,32,11,trial,10374413.0,10376429.0,2016.0,82,R,10375505,10375611,108,533.1,558.5,3852,left
64,2,continuous,32,11,trial,10374413.0,10376429.0,2016.0,82,R,10375645,10375919,276,626.8,528.4,3915,left
64,2,continuous,32,11,trial,10374413.0,10376429.0,2016.0,82,R,10375943,10376237,296,590.9,475.1,3803,left
64,2,continuous,32,11,trial,10374413.0,10376429.0,2016.0,82,R,10376303,10376671,370,1369.4,511.3,3710,right
64,2,continuous,33,25,fixationCross,10377613.0,10379547.0,1934.0,83,R,10376863,10377041,180,753.6,766.3,4311,likertHorizontal
64,2,continuous,33,25,fixationCross,10377613.0,10379547.0,1934.0,83,R,10377089,10377297,210,1119.9,605.0,4491,NA
64,2,continuous,33,25,trial,10377613.0,10379547.0,1934.0,83,R,10377321,10377751,432,1013.5,499.6,4662,NA
64,2,continuous,33,25,trial,10377613.0,10379547.0,1934.0,83,R,10377817,10377923,108,547.9,517.5,4624,left
64,2,continuous,33,25,trial,10377613.0,10379547.0,1934.0,83,R,10377961,10378115,156,553.9,447.3,4373,left
64,2,continuous,33,25,trial,10377613.0,10379547.0,1934.0,83,R,10378141,10378277,138,431.9,429.7,4047,left
64,2,continuous,33,25,trial,10377613.0,10379547.0,1934.0,83,R,10378355,10378651,298,1335.0,488.3,3665,right
64,2,continuous,33,25,trial,10377613.0,10379547.0,1934.0,83,R,10378717,10378895,180,521.7,505.0,3930,left
64,2,continuous,33,25,trial,10377613.0,10379547.0,1934.0,83,R,10378927,10379251,326,575.6,446.5,3926,left
64,2,continuous,33,25,postResponse,10377613.0,10379547.0,1934.0,83,R,10379277,10379881,606,444.1,432.2,3829,left
64,2,continuous,34,1,fixationCross,10381330.0,10382830.0,1500.0,84,R,10379979,10380235,258,1179.1,647.2,3984,NA
64,2,continuous,34,1,fixationCross,10381330.0,10382830.0,1500.0,84,R,10380279,10380935,658,1029.6,449.3,4443,NA
64,2,continuous,34,1,fixationCross,10381330.0,10382830.0,1500.0,84,R,10381119,10381283,166,928.0,486.5,4572,NA
64,2,continuous,34,1,trial,10381330.0,10382830.0,1500.0,84,R,10381315,10381481,168,952.7,567.4,4692,NA
64,2,continuous,34,1,trial,10381330.0,10382830.0,1500.0,84,R,10381545,10381657,114,565.6,532.7,4839,left
64,2,continuous,34,1,trial,10381330.0,10382830.0,1500.0,84,R,10381733,10381817,86,1350.9,477.8,4253,right
64,2,continuous,34,1,trial,10381330.0,10382830.0,1500.0,84,R,10381853,10382041,190,1526.5,453.0,3838,right
64,2,continuous,34,1,trial,10381330.0,10382830.0,1500.0,84,R,10382109,10382261,154,494.2,454.0,3831,left
64,2,continuous,34,1,trial,10381330.0,10382830.0,1500.0,84,R,10382293,10382511,220,541.6,434.9,3935,left
64,2,continuous,34,1,trial,10381330.0,10382830.0,1500.0,84,R,10382553,10382737,186,481.5,582.3,3985,left
64,2,continuous,34,1,trial,10381330.0,10382830.0,1500.0,84,R,10382779,10383065,288,387.0,448.3,4065,left
64,2,continuous,35,19,fixationCross,10384913.0,10387097.0,2184.0,85,R,10383239,10383439,202,703.4,461.0,4193,left
64,2,continuous,35,19,fixationCross,10384913.0,10387097.0,2184.0,85,R,10383507,10383711,206,1367.4,517.9,4342,right
64,2,continuous,35,19,fixationCross,10384913.0,10387097.0,2184.0,85,R,10383753,10384491,740,1112.9,488.5,4458,NA
64,2,continuous,35,19,fixationCross,10384913.0,10387097.0,2184.0,85,R,10384559,10384661,104,1090.5,898.7,4420,likertHorizontal
64,2,continuous,35,19,trial,10384913.0,10387097.0,2184.0,85,R,10384717,10385105,390,953.1,543.0,4598,NA
64,2,continuous,35,19,trial,10384913.0,10387097.0,2184.0,85,R,10385171,10385411,242,463.4,565.3,4637,left
64,2,continuous,35,19,trial,10384913.0,10387097.0,2184.0,85,R,10385495,10385641,148,1418.2,588.7,3969,right
64,2,continuous,35,19,trial,10384913.0,10387097.0,2184.0,85,R,10385667,10385765,100,1376.7,551.2,3752,right
64,2,continuous,35,19,trial,10384913.0,10387097.0,2184.0,85,R,10385847,10387025,1180,482.5,558.9,3914,left
64,2,continuous,35,19,trial,10384913.0,10387097.0,2184.0,85,R,10387097,10387305,210,665.6,990.7,4047,NA
64,2,continuous,36,92,fixationCross,10388129.0,10390496.0,2367.0,86,R,10387523,10387827,306,1081.0,682.1,4290,NA
64,2,continuous,36,92,trial,10388129.0,10390496.0,2367.0,86,R,10387863,10388337,476,953.6,567.0,4631,NA
64,2,continuous,36,92,trial,10388129.0,10390496.0,2367.0,86,R,10388391,10388647,258,580.4,529.5,4335,left
64,2,continuous,36,92,trial,10388129.0,10390496.0,2367.0,86,R,10388677,10388771,96,695.8,496.4,4100,left
64,2,continuous,36,92,trial,10388129.0,10390496.0,2367.0,86,R,10388849,10389153,306,1481.2,541.7,3792,right
64,2,continuous,36,92,trial,10388129.0,10390496.0,2367.0,86,R,10389179,10389433,256,1535.6,496.0,3887,right
64,2,continuous,36,92,trial,10388129.0,10390496.0,2367.0,86,R,10389515,10389695,182,592.1,520.7,4265,left
64,2,continuous,36,92,trial,10388129.0,10390496.0,2367.0,86,R,10389731,10389931,202,677.6,505.5,4180,left
64,2,continuous,36,92,trial,10388129.0,10390496.0,2367.0,86,R,10390007,10390717,712,1437.9,542.9,4095,right
64,2,continuous,37,9,fixationCross,10391463.0,10392613.0,1150.0,87,R,10390923,10391155,234,725.1,573.6,4531,left
64,2,continuous,37,9,trial,10391463.0,10392613.0,1150.0,87,R,10391183,10391619,438,966.3,499.9,4565,NA
64,2,continuous,37,9,trial,10391463.0,10392613.0,1150.0,87,R,10391685,10391875,192,475.6,543.2,4386,left
64,2,continuous,37,9,trial,10391463.0,10392613.0,1150.0,87,R,10391911,10392219,310,604.2,582.1,4002,left
64,2,continuous,37,9,trial,10391463.0,10392613.0,1150.0,87,R,10392261,10392637,378,482.0,456.2,3860,left
64,2,continuous,37,9,postResponse,10391463.0,10392613.0,1150.0,87,R,10392725,10392947,224,1485.5,484.6,3784,right
64,2,continuous,38,19,fixationCross,10393630.0,10396030.0,2400.0,88,R,10393021,10393299,280,1476.5,490.8,3976,right
64,2,continuous,38,19,trial,10393630.0,10396030.0,2400.0,88,R,10393365,10393759,396,1004.5,532.4,4420,NA
64,2,continuous,38,19,trial,10393630.0,10396030.0,2400.0,88,R,10393817,10393939,124,1346.1,536.5,4382,right
64,2,continuous,38,19,trial,10393630.0,10396030.0,2400.0,88,R,10394013,10394207,196,601.2,567.5,4347,left
64,2,continuous,38,19,trial,10393630.0,10396030.0,2400.0,88,R,10394253,10394369,118,364.2,458.7,4182,left
64,2,continuous,38,19,trial,10393630.0,10396030.0,2400.0,88,R,10394401,10394477,78,327.4,407.0,4001,left
64,2,continuous,38,19,trial,10393630.0,10396030.0,2400.0,88,R,10394565,10394955,392,1429.8,521.2,3561,right
64,2,continuous,38,19,trial,10393630.0,10396030.0,2400.0,88,R,10394983,10395265,284,1593.8,528.6,3853,right
64,2,continuous,38,19,trial,10393630.0,10396030.0,2400.0,88,R,10395297,10395421,126,1301.5,545.0,4157,right
64,2,continuous,38,19,trial,10393630.0,10396030.0,2400.0,88,R,10395493,10395787,296,640.5,617.0,4260,left
64,2,continuous,38,19,trial,10393630.0,10396030.0,2400.0,88,R,10395833,10396167,336,362.1,449.9,4083,left
64,2,continuous,39,13,fixationCross,10397679.0,10399047.0,1368.0,89,R,10396465,10396603,140,875.2,639.6,3822,NA
64,2,continuous,39,13,fixationCross,10397679.0,10399047.0,1368.0,89,R,10396639,10397001,364,1190.3,494.2,4176,right
64,2,continuous,39,13,fixationCross,10397679.0,10399047.0,1368.0,89,R,10397033,10397377,346,1070.6,452.1,4366,NA
64,2,continuous,39,13,fixationCross,10397679.0,10399047.0,1368.0,89,R,10397409,10397621,214,1012.7,507.9,4331,NA
64,2,continuous,39,13,trial,10397679.0,10399047.0,1368.0,89,R,10397651,10397881,232,968.7,523.0,4523,NA
64,2,continuous,39,13,trial,10397679.0,10399047.0,1368.0,89,R,10397943,10398141,200,1403.3,523.1,4491,right
64,2,continuous,39,13,trial,10397679.0,10399047.0,1368.0,89,R,10398201,10398723,524,545.3,546.6,4276,left
64,2,continuous,39,13,trial,10397679.0,10399047.0,1368.0,89,R,10398759,10399335,578,483.0,652.0,4072,left
64,2,continuous,40,81,fixationCross,10400346.0,10402630.0,2284.0,90,R,10399485,10399693,210,1494.5,604.2,3909,right
64,2,continuous,40,81,fixationCross,10400346.0,10402630.0,2284.0,90,R,10399733,10400025,294,1191.4,450.2,4279,right
64,2,continuous,40,81,trial,10400346.0,10402630.0,2284.0,90,R,10400055,10400521,468,989.9,473.8,4577,NA
64,2,continuous,40,81,trial,10400346.0,10402630.0,2284.0,90,R,10400589,10400715,128,508.1,497.9,4597,left
64,2,continuous,40,81,trial,10400346.0,10402630.0,2284.0,90,R,10400741,10400839,100,538.7,422.8,4327,left
64,2,continuous,40,81,trial,10400346.0,10402630.0,2284.0,90,R,10400915,10401123,210,1325.1,489.6,3912,right
64,2,continuous,40,81,trial,10400346.0,10402630.0,2284.0,90,R,10401145,10401583,440,1381.8,484.7,3825,right
64,2,continuous,40,81,trial,10400346.0,10402630.0,2284.0,90,R,10401623,10402203,582,1401.9,619.9,4094,right
64,2,continuous,40,81,trial,10400346.0,10402630.0,2284.0,90,R,10402229,10402431,204,1378.8,512.9,4233,right
64,2,continuous,40,81,trial,10400346.0,10402630.0,2284.0,90,R,10402453,10402619,168,1348.1,479.0,4273,right
64,2,continuous,40,81,trial,10400346.0,10402630.0,2284.0,90,R,10402697,10402875,180,607.6,467.5,4466,left
64,2,continuous,41,10,fixationCross,10403664.0,10405080.0,1416.0,91,R,10403063,10403301,240,1526.3,579.5,4218,right
64,2,continuous,41,10,trial,10403664.0,10405080.0,1416.0,91,R,10403361,10403675,316,1044.1,490.5,4667,NA
64,2,continuous,41,10,trial,10403664.0,10405080.0,1416.0,91,R,10403701,10403817,118,829.1,484.1,4753,NA
64,2,continuous,41,10,trial,10403664.0,10405080.0,1416.0,91,R,10403879,10404039,162,483.2,511.1,4732,left
64,2,continuous,41,10,trial,10403664.0,10405080.0,1416.0,91,R,10404069,10404391,324,429.5,479.1,4197,left
64,2,continuous,41,10,trial,10403664.0,10405080.0,1416.0,91,R,10404473,10404649,178,1421.1,548.2,3606,right
64,2,continuous,41,10,trial,10403664.0,10405080.0,1416.0,91,R,10404719,10405261,544,489.4,505.2,3728,left
64,2,continuous,42,79,fixationCross,10406464.0,10408147.0,1683.0,92,R,10405529,10405775,248,1097.5,572.4,3741,NA
64,2,continuous,42,79,fixationCross,10406464.0,10408147.0,1683.0,92,R,10405817,10406135,320,1184.8,452.1,4196,right
64,2,continuous,42,79,fixationCross,10406464.0,10408147.0,1683.0,92,R,10406161,10406343,184,992.1,530.6,4256,NA
64,2,continuous,42,79,trial,10406464.0,10408147.0,1683.0,92,R,10406369,10406691,324,953.2,545.7,4260,NA
64,2,continuous,42,79,trial,10406464.0,10408147.0,1683.0,92,R,10406757,10406995,240,483.2,513.8,4180,left
64,2,continuous,42,79,trial,10406464.0,10408147.0,1683.0,92,R,10407081,10407333,254,1456.6,547.1,3682,right
64,2,continuous,42,79,trial,10406464.0,10408147.0,1683.0,92,R,10407359,10407735,378,1531.1,599.2,3575,right
64,2,continuous,42,79,trial,10406464.0,10408147.0,1683.0,92,R,10407781,10407981,202,1411.3,413.3,3567,right
64,2,continuous,42,79,trial,10406464.0,10408147.0,1683.0,92,R,10408033,10408391,360,1604.1,633.7,3548,right
64,2,continuous,43,24,fixationCross,10409430.0,10411863.0,2433.0,93,R,10408619,10409131,514,784.4,574.2,4445,NA
64,2,continuous,43,24,trial,10409430.0,10411863.0,2433.0,93,R,10409173,10409493,322,959.5,448.5,4063,NA
64,2,continuous,43,24,trial,10409430.0,10411863.0,2433.0,93,R,10409553,10409677,126,716.4,513.9,3934,left
64,2,continuous,43,24,trial,10409430.0,10411863.0,2433.0,93,R,10409735,10409875,142,451.6,542.4,4076,left
64,2,continuous,43,24,trial,10409430.0,10411863.0,2433.0,93,R,10409957,10410129,174,1386.8,523.9,3896,right
64,2,continuous,43,24,trial,10409430.0,10411863.0,2433.0,93,R,10410163,10410435,274,1465.7,579.0,3929,right
64,2,continuous,43,24,trial,10409430.0,10411863.0,2433.0,93,R,10410473,10410615,144,1516.3,651.9,4053,right
64,2,continuous,43,24,trial,10409430.0,10411863.0,2433.0,93,R,10410663,10410919,258,1258.5,521.3,4036,right
64,2,continuous,43,24,trial,10409430.0,10411863.0,2433.0,93,R,10410989,10411257,270,524.8,579.2,4035,left
64,2,continuous,43,24,postResponse,10409430.0,10411863.0,2433.0,93,R,10411281,10412195,916,439.3,513.0,4122,left
64,2,continuous,44,11,fixationCross,10412963.0,10415280.0,2317.0,94,R,10412365,10412649,286,917.8,1050.1,4364,likertHorizontal
64,2,continuous,44,11,fixationCross,10412963.0,10415280.0,2317.0,94,R,10412711,10412881,172,963.5,607.0,4440,NA
64,2,continuous,44,11,trial,10412963.0,10415280.0,2317.0,94,R,10412907,10413123,218,987.5,537.9,4545,NA
64,2,continuous,44,11,trial,10412963.0,10415280.0,2317.0,94,R,10413185,10413253,70,1455.0,518.8,4418,right
64,2,continuous,44,11,trial,10412963.0,10415280.0,2317.0,94,R,10413335,10413417,84,536.9,572.0,4417,left
64,2,continuous,44,11,trial,10412963.0,10415280.0,2317.0,94,R,10413501,10413743,244,1384.7,499.4,4028,right
64,2,continuous,44,11,trial,10412963.0,10415280.0,2317.0,94,R,10413783,10413965,184,1418.4,626.0,4003,right
