participantNo,block,task,blockTrial,response,trialStage,trialStartTime,trialFinishTime,rt,trial,eye,fixStart,fixEnd,fixLength,fixPosX,fixPosY,dilation,aoi
18,1,binary,1,2,fixationCross,5934042.0,5939076.0,5034.0,1,R,5933293,5933511,220,916.4,453.1,3945,NA
18,1,binary,1,2,fixationCross,5934042.0,5939076.0,5034.0,1,R,5933553,5933765,214,996.8,699.2,3889,NA
18,1,binary,1,2,fixationCross,5934042.0,5939076.0,5034.0,1,R,5933795,5933999,206,955.4,519.9,3878,NA
18,1,binary,1,2,trial,5934042.0,5939076.0,5034.0,1,R,5934145,5934317,174,907.5,485.4,4028,NA
18,1,binary,1,2,trial,5934042.0,5939076.0,5034.0,1,R,5934365,5934551,188,525.1,446.3,4096,left
18,1,binary,1,2,trial,5934042.0,5939076.0,5034.0,1,R,5934611,5934675,66,531.7,903.2,3920,NA
18,1,binary,1,2,trial,5934042.0,5939076.0,5034.0,1,R,5934697,5934859,164,466.8,986.3,3715,NA
18,1,binary,1,2,trial,5934042.0,5939076.0,5034.0,1,R,5934873,5934917,46,533.9,997.7,3589,NA
18,1,binary,1,2,trial,5934042.0,5939076.0,5034.0,1,R,5934987,5935075,90,1436.1,979.7,3487,NA
18,1,binary,1,2,trial,5934042.0,5939076.0,5034.0,1,R,5935123,5935547,426,1458.3,483.2,3513,right
18,1,binary,1,2,trial,5934042.0,5939076.0,5034.0,1,R,5935613,5935843,232,600.8,425.1,3342,left
18,1,binary,1,2,trial,5934042.0,5939076.0,5034.0,1,R,5935857,5935975,120,554.4,430.3,3283,left
18,1,binary,1,2,trial,5934042.0,5939076.0,5034.0,1,R,5936039,5936183,146,488.3,1027.5,3338,NA
18,1,binary,1,2,trial,5934042.0,5939076.0,5034.0,1,R,5936193,5936293,102,503.9,1013.2,3397,NA
18,1,binary,1,2,trial,5934042.0,5939076.0,5034.0,1,R,5936367,5936639,274,1425.1,965.6,3451,NA
18,1,binary,1,2,trial,5934042.0,5939076.0,5034.0,1,R,5936683,5936857,176,1418.2,671.6,3532,right
18,1,binary,1,2,trial,5934042.0,5939076.0,5034.0,1,R,5936883,5937559,678,1432.1,514.8,3609,right
18,1,binary,1,2,trial,5934042.0,5939076.0,5034.0,1,R,5937633,5937761,130,607.9,431.3,3520,left
18,1,binary,1,2,trial,5934042.0,5939076.0,5034.0,1,R,5937775,5938295,522,545.1,438.2,3508,left
18,1,binary,1,2,trial,5934042.0,5939076.0,5034.0,1,R,5938375,5939349,976,1493.4,473.9,3244,right
18,1,binary,1,2,postResponse,5934042.0,5939076.0,5034.0,1,R,5939383,5939441,60,1230.4,442.1,3253,right
18,1,binary,2,1,fixationCross,5940242.0,5942226.0,1984.0,2,R,5939543,5939565,24,1206.9,444.1,3339,right
18,1,binary,2,1,fixationCross,5940242.0,5942226.0,1984.0,2,R,5939739,5939941,204,876.5,419.9,3631,NA
18,1,binary,2,1,trial,5940242.0,5942226.0,1984.0,2,R,5939963,5940407,446,962.2,518.5,3885,NA
18,1,binary,2,1,trial,5940242.0,5942226.0,1984.0,2,R,5940461,5940821,362,503.6,511.4,3670,left
18,1,binary,2,1,trial,5940242.0,5942226.0,1984.0,2,R,5940899,5941173,276,1505.0,505.1,3292,right
18,1,binary,2,1,trial,5940242.0,5942226.0,1984.0,2,R,5941187,5941503,318,1460.8,541.1,3264,right
18,1,binary,2,1,trial,5940242.0,5942226.0,1984.0,2,R,5941573,5941701,130,550.4,537.6,3443,left
18,1,binary,2,1,trial,5940242.0,5942226.0,1984.0,2,R,5941717,5941963,248,506.2,510.6,3438,left
18,1,binary,2,1,trial,5940242.0,5942226.0,1984.0,2,R,5942027,5942183,158,472.3,974.0,3328,NA
18,1,binary,2,1,trial,5940242.0,5942226.0,1984.0,2,R,5942197,5942393,198,502.1,998.1,3288,NA
18,1,binary,2,1,postResponse,5940242.0,5942226.0,1984.0,2,R,5942455,5942573,120,899.2,601.5,3366,NA
18,1,binary,3,2,fixationCross,5943176.0,5950359.0,7183.0,3,R,5942673,5942967,296,988.8,460.6,3613,NA
18,1,binary,3,2,trial,5943176.0,5950359.0,7183.0,3,R,5942981,5943197,218,938.5,456.7,3881,NA
18,1,binary,3,2,trial,5943176.0,5950359.0,7183.0,3,R,5943387,5943409,24,1009.1,407.8,4154,NA
18,1,binary,3,2,trial,5943176.0,5950359.0,7183.0,3,R,5943463,5943671,210,597.6,455.1,4091,left
18,1,binary,3,2,trial,5943176.0,5950359.0,7183.0,3,R,5943717,5943919,204,323.9,467.5,4069,left
18,1,binary,3,2,trial,5943176.0,5950359.0,7183.0,3,R,5944003,5944157,156,1424.8,532.1,3706,right
18,1,binary,3,2,trial,5943176.0,5950359.0,7183.0,3,R,5944173,5944605,434,1469.7,581.9,3459,right
18,1,binary,3,2,trial,5943176.0,5950359.0,7183.0,3,R,5944795,5945025,232,322.5,488.9,3626,left
18,1,binary,3,2,trial,5943176.0,5950359.0,7183.0,3,R,5945035,5945207,174,348.0,493.4,3787,left
18,1,binary,3,2,trial,5943176.0,5950359.0,7183.0,3,R,5945253,5946203,952,597.8,447.0,3608,left
18,1,binary,3,2,trial,5943176.0,5950359.0,7183.0,3,R,5946237,5946955,720,352.9,482.4,3683,left
18,1,binary,3,2,trial,5943176.0,5950359.0,7183.0,3,R,5946987,5947327,342,619.2,436.4,3420,left
18,1,binary,3,2,trial,5943176.0,5950359.0,7183.0,3,R,5947399,5947543,146,1457.5,534.5,3395,right
18,1,binary,3,2,trial,5943176.0,5950359.0,7183.0,3,R,5947559,5949795,2238,1476.2,582.7,3441,right
18,1,binary,3,2,trial,5943176.0,5950359.0,7183.0,3,R,5949871,5950293,424,628.6,458.9,3749,left
18,1,binary,3,2,postResponse,5943176.0,5950359.0,7183.0,3,R,5950371,5950699,330,1484.0,563.3,3690,right
18,1,binary,4,2,fixationCross,5952343.0,5956375.0,4032.0,4,R,5950941,5951177,238,686.6,436.3,3885,left
18,1,binary,4,2,fixationCross,5952343.0,5956375.0,4032.0,4,R,5951201,5951515,316,836.7,471.7,3946,NA
18,1,binary,4,2,fixationCross,5952343.0,5956375.0,4032.0,4,R,5951553,5951771,220,692.0,447.3,3793,left
18,1,binary,4,2,fixationCross,5952343.0,5956375.0,4032.0,4,R,5951793,5952043,252,834.1,465.0,3775,NA
18,1,binary,4,2,trial,5952343.0,5956375.0,4032.0,4,R,5952061,5952505,446,917.9,491.5,3850,NA
18,1,binary,4,2,trial,5952343.0,5956375.0,4032.0,4,R,5952555,5952701,148,531.3,518.2,4013,left
18,1,binary,4,2,trial,5952343.0,5956375.0,4032.0,4,R,5952717,5952917,202,492.3,550.4,3847,left
18,1,binary,4,2,trial,5952343.0,5956375.0,4032.0,4,R,5952933,5953067,136,555.5,532.7,3527,left
18,1,binary,4,2,trial,5952343.0,5956375.0,4032.0,4,R,5953137,5953343,208,1422.5,573.5,3225,right
18,1,binary,4,2,trial,5952343.0,5956375.0,4032.0,4,R,5953361,5953517,158,1522.8,607.6,3098,right
18,1,binary,4,2,trial,5952343.0,5956375.0,4032.0,4,R,5953667,5953901,236,531.1,543.0,3095,left
18,1,binary,4,2,trial,5952343.0,5956375.0,4032.0,4,R,5953979,5954347,370,1521.2,602.6,3119,right
18,1,binary,4,2,trial,5952343.0,5956375.0,4032.0,4,R,5954369,5955491,1124,1411.1,569.8,3195,right
18,1,binary,4,2,trial,5952343.0,5956375.0,4032.0,4,R,5955501,5955881,382,1435.9,568.1,3563,right
18,1,binary,4,2,postResponse,5952343.0,5956375.0,4032.0,4,R,5955961,5956733,774,529.6,542.8,3487,left
18,1,binary,5,2,fixationCross,5957559.0,5959460.0,1901.0,5,R,5956997,5957253,258,602.7,481.1,3551,left
18,1,binary,5,2,trial,5957559.0,5959460.0,1901.0,5,R,5957301,5957755,456,974.2,506.8,3769,NA
18,1,binary,5,2,trial,5957559.0,5959460.0,1901.0,5,R,5957807,5957981,176,516.4,472.9,3744,left
18,1,binary,5,2,trial,5957559.0,5959460.0,1901.0,5,R,5957997,5958315,320,501.9,435.7,3493,left
18,1,binary,5,2,trial,5957559.0,5959460.0,1901.0,5,R,5958339,5958493,156,614.3,504.2,3266,left
18,1,binary,5,2,trial,5957559.0,5959460.0,1901.0,5,R,5958505,5958667,164,637.0,530.3,3241,left
18,1,binary,5,2,trial,5957559.0,5959460.0,1901.0,5,R,5958739,5958963,226,1444.7,504.8,3268,right
18,1,binary,5,2,trial,5957559.0,5959460.0,1901.0,5,R,5958979,5959087,110,1418.8,553.5,3237,right
18,1,binary,5,2,postResponse,5957559.0,5959460.0,1901.0,5,R,5959101,5959797,698,1383.2,593.7,3200,right
18,1,binary,6,2,fixationCross,5960509.0,5962709.0,2200.0,6,R,5959897,5960199,304,1264.5,508.3,3272,right
18,1,binary,6,2,fixationCross,5960509.0,5962709.0,2200.0,6,R,5960235,5960439,206,979.8,509.0,3565,NA
18,1,binary,6,2,trial,5960509.0,5962709.0,2200.0,6,R,5960599,5960767,170,910.8,477.5,3832,NA
18,1,binary,6,2,trial,5960509.0,5962709.0,2200.0,6,R,5960823,5960963,142,1442.1,482.6,3837,right
18,1,binary,6,2,trial,5960509.0,5962709.0,2200.0,6,R,5960977,5961261,286,1483.4,441.0,3703,right
18,1,binary,6,2,trial,5960509.0,5962709.0,2200.0,6,R,5961329,5961499,172,551.7,454.1,3481,left
18,1,binary,6,2,trial,5960509.0,5962709.0,2200.0,6,R,5961517,5961809,294,473.1,431.6,3355,left
18,1,binary,6,2,trial,5960509.0,5962709.0,2200.0,6,R,5961831,5962065,236,484.7,497.4,3264,left
18,1,binary,6,2,trial,5960509.0,5962709.0,2200.0,6,R,5962147,5962943,798,1519.1,418.9,3193,right
18,1,binary,6,2,postResponse,5960509.0,5962709.0,2200.0,6,R,5963005,5963043,40,1080.0,463.0,3304,NA
18,1,binary,7,2,fixationCross,5963593.0,5966093.0,2500.0,7,R,5963117,5963275,160,1063.2,465.2,3376,NA
18,1,binary,7,2,fixationCross,5963593.0,5966093.0,2500.0,7,R,5963297,5963563,268,956.0,461.6,3527,NA
18,1,binary,7,2,trial,5963593.0,5966093.0,2500.0,7,R,5963769,5963905,138,943.0,444.6,3828,NA
18,1,binary,7,2,trial,5963593.0,5966093.0,2500.0,7,R,5963963,5964097,136,1351.1,426.7,3880,right
18,1,binary,7,2,trial,5963593.0,5966093.0,2500.0,7,R,5964107,5964321,216,1323.2,412.4,3802,right
18,1,binary,7,2,trial,5963593.0,5966093.0,2500.0,7,R,5964345,5964463,120,1403.8,460.5,3556,right
18,1,binary,7,2,trial,5963593.0,5966093.0,2500.0,7,R,5964527,5964711,186,565.5,493.6,3342,left
18,1,binary,7,2,trial,5963593.0,5966093.0,2500.0,7,R,5964721,5965131,412,580.7,523.6,3224,left
18,1,binary,7,2,trial,5963593.0,5966093.0,2500.0,7,R,5965203,5965439,238,1447.3,489.4,3271,right
18,1,binary,7,2,trial,5963593.0,5966093.0,2500.0,7,R,5965481,5965911,432,1486.6,846.2,3376,NA
18,1,binary,7,2,trial,5963593.0,5966093.0,2500.0,7,R,5965947,5966055,110,1455.4,594.9,3528,right
18,1,binary,7,2,trial,5963593.0,5966093.0,2500.0,7,R,5966083,5966299,218,1384.2,409.6,3572,right
18,1,binary,8,1,fixationCross,5967192.0,5969576.0,2384.0,8,R,5966595,5966869,276,1090.1,401.2,3566,NA
18,1,binary,8,1,trial,5967192.0,5969576.0,2384.0,8,R,5966897,5967399,504,969.1,504.4,3877,NA
18,1,binary,8,1,trial,5967192.0,5969576.0,2384.0,8,R,5967451,5967771,322,542.5,476.9,3702,left
18,1,binary,8,1,trial,5967192.0,5969576.0,2384.0,8,R,5967847,5968475,630,1472.0,523.5,3342,right
18,1,binary,8,1,trial,5967192.0,5969576.0,2384.0,8,R,5968545,5969137,594,574.3,529.8,3138,left
18,1,binary,8,1,trial,5967192.0,5969576.0,2384.0,8,R,5969213,5969325,114,1482.9,543.8,3133,right
18,1,binary,8,1,trial,5967192.0,5969576.0,2384.0,8,R,5969417,5969513,98,435.0,805.6,3099,NA
18,1,binary,8,1,trial,5967192.0,5969576.0,2384.0,8,R,5969551,5969769,220,492.7,477.6,3132,left
18,1,binary,9,1,fixationCross,5970626.0,5973159.0,2533.0,9,R,5970095,5970309,216,606.1,451.6,3099,left
18,1,binary,9,1,trial,5970626.0,5973159.0,2533.0,9,R,5970357,5970809,454,991.2,514.1,3296,NA
18,1,binary,9,1,trial,5970626.0,5973159.0,2533.0,9,R,5970867,5971123,258,1485.7,462.8,3368,right
18,1,binary,9,1,trial,5970626.0,5973159.0,2533.0,9,R,5971213,5971441,230,513.0,458.6,3394,left
18,1,binary,9,1,trial,5970626.0,5973159.0,2533.0,9,R,5971461,5971713,254,549.4,516.3,3359,left
18,1,binary,9,1,trial,5970626.0,5973159.0,2533.0,9,R,5971725,5971855,132,518.8,550.3,3419,left
18,1,binary,9,1,trial,5970626.0,5973159.0,2533.0,9,R,5971963,5972123,162,536.9,556.0,3455,left
18,1,binary,9,1,trial,5970626.0,5973159.0,2533.0,9,R,5972145,5972277,134,597.8,582.5,3451,left
18,1,binary,9,1,trial,5970626.0,5973159.0,2533.0,9,R,5972349,5972655,308,1453.9,470.9,3558,right
18,1,binary,9,1,trial,5970626.0,5973159.0,2533.0,9,R,5972665,5972833,170,1476.2,446.5,3506,right
18,1,binary,9,1,trial,5970626.0,5973159.0,2533.0,9,R,5972911,5973045,136,655.7,512.9,3425,left
18,1,binary,9,1,postResponse,5970626.0,5973159.0,2533.0,9,R,5973067,5973493,428,602.8,589.7,3411,left
18,1,binary,10,2,fixationCross,5974393.0,5976126.0,1733.0,10,R,5973595,5973781,188,597.3,579.6,3429,left
18,1,binary,10,2,fixationCross,5974393.0,5976126.0,1733.0,10,R,5973803,5974067,266,737.3,479.7,3426,NA
18,1,binary,10,2,trial,5974393.0,5976126.0,1733.0,10,R,5974107,5974459,354,1011.3,458.4,3419,NA
18,1,binary,10,2,trial,5974393.0,5976126.0,1733.0,10,R,5974481,5974633,154,1082.9,439.4,3448,NA
18,1,binary,10,2,trial,5974393.0,5976126.0,1733.0,10,R,5974683,5975001,320,1475.0,487.4,3402,right
18,1,binary,10,2,trial,5974393.0,5976126.0,1733.0,10,R,5975075,5975275,202,485.9,482.5,3231,left
18,1,binary,10,2,trial,5974393.0,5976126.0,1733.0,10,R,5975293,5975425,134,430.8,420.8,3120,left
18,1,binary,10,2,trial,5974393.0,5976126.0,1733.0,10,R,5975439,5975803,366,419.1,384.9,3080,left
18,1,binary,10,2,trial,5974393.0,5976126.0,1733.0,10,R,5975885,5976025,142,1490.3,852.3,3047,NA
18,1,binary,10,2,trial,5974393.0,5976126.0,1733.0,10,R,5976067,5976433,368,1515.5,536.2,3133,right
18,1,binary,11,1,fixationCross,5976993.0,5979760.0,2767.0,11,R,5976535,5976649,116,1218.9,483.5,3164,right
18,1,binary,11,1,trial,5976993.0,5979760.0,2767.0,11,R,5976705,5977023,320,916.8,483.2,3220,NA
18,1,binary,11,1,trial,5976993.0,5979760.0,2767.0,11,R,5977271,5977485,216,454.5,502.6,3280,left
18,1,binary,11,1,trial,5976993.0,5979760.0,2767.0,11,R,5977505,5977851,348,550.9,475.8,3246,left
18,1,binary,11,1,trial,5976993.0,5979760.0,2767.0,11,R,5977871,5978361,492,447.3,502.0,3069,left
18,1,binary,11,1,trial,5976993.0,5979760.0,2767.0,11,R,5978385,5978549,166,550.4,464.1,3000,left
18,1,binary,11,1,trial,5976993.0,5979760.0,2767.0,11,R,5978651,5979405,756,1472.5,463.6,3095,right
18,1,binary,11,1,trial,5976993.0,5979760.0,2767.0,11,R,5979487,5979643,158,481.9,511.5,3230,left
18,1,binary,11,1,trial,5976993.0,5979760.0,2767.0,11,R,5979665,5980001,338,571.0,463.8,3156,left
18,1,binary,12,2,fixationCross,5981792.0,5983043.0,1251.0,12,R,5980175,5980463,290,787.0,449.5,3207,NA
18,1,binary,12,2,fixationCross,5981792.0,5983043.0,1251.0,12,R,5980483,5980803,322,704.8,429.6,3498,left
18,1,binary,12,2,fixationCross,5981792.0,5983043.0,1251.0,12,R,5980825,5981447,624,569.7,456.3,3614,left
18,1,binary,12,2,fixationCross,5981792.0,5983043.0,1251.0,12,R,5981499,5981691,194,909.2,479.2,3684,NA
18,1,binary,12,2,fixationCross,5981792.0,5983043.0,1251.0,12,R,5981703,5981745,44,940.3,492.1,3715,NA
18,1,binary,12,2,trial,5981792.0,5983043.0,1251.0,12,R,5981945,5982059,116,830.6,465.4,3900,NA
18,1,binary,12,2,trial,5981792.0,5983043.0,1251.0,12,R,5982095,5982207,114,577.1,488.0,4008,left
18,1,binary,12,2,trial,5981792.0,5983043.0,1251.0,12,R,5982227,5982461,236,458.7,473.7,4082,left
18,1,binary,12,2,trial,5981792.0,5983043.0,1251.0,12,R,5982475,5982569,96,485.7,508.8,3816,left
18,1,binary,12,2,trial,5981792.0,5983043.0,1251.0,12,R,5982643,5983059,418,1466.4,542.4,3383,right
18,1,binary,12,2,trial,5981792.0,5983043.0,1251.0,12,R,5983079,5983271,194,1354.1,509.4,3420,right
18,1,binary,13,2,fixationCross,5984743.0,5986376.0,1633.0,13,R,5983477,5983753,278,968.3,426.6,3774,NA
18,1,binary,13,2,fixationCross,5984743.0,5986376.0,1633.0,13,R,5983945,5984309,366,861.7,468.7,4114,NA
18,1,binary,13,2,fixationCross,5984743.0,5986376.0,1633.0,13,R,5984531,5984737,208,892.6,498.8,3925,NA
18,1,binary,13,2,trial,5984743.0,5986376.0,1633.0,13,R,5984933,5985059,128,934.7,450.2,3890,NA
18,1,binary,13,2,trial,5984743.0,5986376.0,1633.0,13,R,5985107,5985389,284,548.8,481.3,3802,left
18,1,binary,13,2,trial,5984743.0,5986376.0,1633.0,13,R,5985403,5985555,154,499.9,469.0,3540,left
18,1,binary,13,2,trial,5984743.0,5986376.0,1633.0,13,R,5985627,5985811,186,1446.7,525.5,3202,right
18,1,binary,13,2,trial,5984743.0,5986376.0,1633.0,13,R,5985837,5986071,236,1540.3,685.2,3168,right
18,1,binary,13,2,trial,5984743.0,5986376.0,1633.0,13,R,5986105,5986207,104,1504.6,864.9,3296,NA
18,1,binary,13,2,trial,5984743.0,5986376.0,1633.0,13,R,5986249,5986631,384,1474.0,533.7,3482,right
18,1,binary,14,1,fixationCross,5988793.0,5990643.0,1850.0,14,R,5986893,5987089,198,727.1,364.2,3674,left
18,1,binary,14,1,fixationCross,5988793.0,5990643.0,1850.0,14,R,5987129,5987589,462,937.8,424.3,3847,NA
18,1,binary,14,1,fixationCross,5988793.0,5990643.0,1850.0,14,R,5987603,5988601,1000,883.6,456.3,3680,NA
18,1,binary,14,1,fixationCross,5988793.0,5990643.0,1850.0,14,R,5988643,5988755,114,1039.6,479.0,3691,NA
18,1,binary,14,1,trial,5988793.0,5990643.0,1850.0,14,R,5988983,5989189,208,1039.2,452.7,3633,NA
18,1,binary,14,1,trial,5988793.0,5990643.0,1850.0,14,R,5989237,5989489,254,1347.9,519.3,3633,right
18,1,binary,14,1,trial,5988793.0,5990643.0,1850.0,14,R,5989505,5989669,166,1418.0,505.6,3489,right
18,1,binary,14,1,trial,5988793.0,5990643.0,1850.0,14,R,5989735,5990001,268,563.6,482.2,3332,left
18,1,binary,14,1,trial,5988793.0,5990643.0,1850.0,14,R,5990023,5990341,320,531.6,560.7,3179,left
18,1,binary,14,1,trial,5988793.0,5990643.0,1850.0,14,R,5990369,5990673,306,653.3,437.4,3054,left
18,1,binary,14,1,trial,5988793.0,5990643.0,1850.0,14,R,5990743,5990877,136,1469.3,488.0,3036,right
18,1,binary,15,1,trial,5991576.0,5994426.0,2850.0,15,R,5991253,5991761,510,991.7,447.0,3440,NA
18,1,binary,15,1,trial,5991576.0,5994426.0,2850.0,15,R,5991813,5992293,482,1423.4,475.4,3531,right
18,1,binary,15,1,trial,5991576.0,5994426.0,2850.0,15,R,5992371,5992613,244,502.4,483.4,3458,left
18,1,binary,15,1,trial,5991576.0,5994426.0,2850.0,15,R,5992633,5993445,814,581.4,461.2,3452,left
18,1,binary,15,1,trial,5991576.0,5994426.0,2850.0,15,R,5993461,5993639,180,509.8,492.8,3510,left
18,1,binary,15,1,trial,5991576.0,5994426.0,2850.0,15,R,5993657,5994135,480,577.4,451.8,3596,left
18,1,binary,15,1,trial,5991576.0,5994426.0,2850.0,15,R,5994209,5994399,192,1481.7,490.3,3527,right
18,1,binary,15,1,trial,5991576.0,5994426.0,2850.0,15,R,5994417,5994621,206,1409.1,491.8,3520,right
18,1,binary,16,1,fixationCross,5998510.0,5999893.0,1383.0,16,R,5994893,5995341,450,936.9,357.4,3738,NA
18,1,binary,16,1,fixationCross,5998510.0,5999893.0,1383.0,16,R,5995563,5995997,436,902.2,386.7,3756,NA
18,1,binary,16,1,fixationCross,5998510.0,5999893.0,1383.0,16,R,5996011,5996551,542,942.0,413.5,3811,NA
18,1,binary,16,1,fixationCross,5998510.0,5999893.0,1383.0,16,R,5996571,5996845,276,854.6,403.3,3873,NA
18,1,binary,16,1,fixationCross,5998510.0,5999893.0,1383.0,16,R,5997025,5998189,1166,881.5,412.0,4131,NA
18,1,binary,16,1,trial,5998510.0,5999893.0,1383.0,16,R,5998405,5998715,312,921.5,424.7,4174,NA
18,1,binary,16,1,trial,5998510.0,5999893.0,1383.0,16,R,5998769,5999101,334,1405.4,459.0,3997,right
18,1,binary,16,1,trial,5998510.0,5999893.0,1383.0,16,R,5999167,5999431,266,557.3,446.5,3508,left
18,1,binary,16,1,trial,5998510.0,5999893.0,1383.0,16,R,5999449,5999833,386,499.3,463.2,3335,left
18,1,binary,16,1,trial,5998510.0,5999893.0,1383.0,16,R,5999859,6000105,248,491.3,613.6,3310,left
18,1,binary,17,2,fixationCross,6002026.0,6003926.0,1900.0,17,R,6000537,6000735,200,713.4,417.3,3401,left
18,1,binary,17,2,fixationCross,6002026.0,6003926.0,1900.0,17,R,6001211,6001473,264,1130.0,390.4,3515,NA
18,1,binary,17,2,fixationCross,6002026.0,6003926.0,1900.0,17,R,6001491,6001767,278,1034.4,439.1,3571,NA
18,1,binary,17,2,trial,6002026.0,6003926.0,1900.0,17,R,6001783,6002221,440,957.5,460.7,3447,NA
18,1,binary,17,2,trial,6002026.0,6003926.0,1900.0,17,R,6002279,6002439,162,1468.3,478.6,3484,right
18,1,binary,17,2,trial,6002026.0,6003926.0,1900.0,17,R,6002455,6002845,392,1535.7,504.7,3416,right
18,1,binary,17,2,trial,6002026.0,6003926.0,1900.0,17,R,6002927,6003059,134,470.3,409.4,3430,left
18,1,binary,17,2,trial,6002026.0,6003926.0,1900.0,17,R,6003073,6004185,1114,489.6,382.4,3324,left
18,1,binary,18,1,fixationCross,6007243.0,6008644.0,1401.0,18,R,6004485,6004751,268,592.6,344.2,3581,NA
18,1,binary,18,1,fixationCross,6007243.0,6008644.0,1401.0,18,R,6004773,6005563,792,722.5,384.8,3671,left
18,1,binary,18,1,fixationCross,6007243.0,6008644.0,1401.0,18,R,6005581,6005777,198,643.4,368.4,3576,left
18,1,binary,18,1,fixationCross,6007243.0,6008644.0,1401.0,18,R,6006031,6006845,816,742.7,372.8,3649,NA
18,1,binary,18,1,fixationCross,6007243.0,6008644.0,1401.0,18,R,6006857,6006933,78,800.8,409.5,3413,NA
18,1,binary,18,1,fixationCross,6007243.0,6008644.0,1401.0,18,R,6006953,6007185,234,934.7,457.4,3332,NA
18,1,binary,18,1,trial,6007243.0,6008644.0,1401.0,18,R,6007207,6007485,280,1145.5,470.7,3275,NA
18,1,binary,18,1,trial,6007243.0,6008644.0,1401.0,18,R,6007529,6007725,198,1466.9,512.4,3222,right
18,1,binary,18,1,trial,6007243.0,6008644.0,1401.0,18,R,6007799,6008153,356,505.7,495.7,3052,left
18,1,binary,18,1,trial,6007243.0,6008644.0,1401.0,18,R,6008163,6008837,676,529.3,518.7,2905,left
18,1,binary,19,1,fixationCross,6012809.0,6015410.0,2601.0,19,R,6009163,6009405,244,952.1,346.2,3032,NA
18,1,binary,19,1,fixationCross,6012809.0,6015410.0,2601.0,19,R,6009431,6009959,530,1038.2,413.0,3353,NA
18,1,binary,19,1,fixationCross,6012809.0,6015410.0,2601.0,19,R,6009985,6010487,504,905.0,407.2,3471,NA
18,1,binary,19,1,fixationCross,6012809.0,6015410.0,2601.0,19,R,6010499,6010765,268,847.6,407.0,3631,NA
18,1,binary,19,1,fixationCross,6012809.0,6015410.0,2601.0,19,R,6010785,6011089,306,1000.8,426.1,3778,NA
18,1,binary,19,1,fixationCross,6012809.0,6015410.0,2601.0,19,R,6011271,6012493,1224,966.2,410.4,3932,NA
18,1,binary,19,1,trial,6012809.0,6015410.0,2601.0,19,R,6012693,6012977,286,936.3,463.1,3939,NA
18,1,binary,19,1,trial,6012809.0,6015410.0,2601.0,19,R,6013029,6013157,130,1366.1,442.6,3987,right
18,1,binary,19,1,trial,6012809.0,6015410.0,2601.0,19,R,6013175,6013493,320,1448.1,472.7,3657,right
18,1,binary,19,1,trial,6012809.0,6015410.0,2601.0,19,R,6013571,6013755,186,480.0,515.1,3346,left
18,1,binary,19,1,trial,6012809.0,6015410.0,2601.0,19,R,6013765,6014069,306,448.1,523.5,3224,left
18,1,binary,19,1,trial,6012809.0,6015410.0,2601.0,19,R,6014147,6014327,182,1455.1,498.2,3072,right
18,1,binary,19,1,trial,6012809.0,6015410.0,2601.0,19,R,6014345,6014653,310,1489.6,466.8,3084,right
18,1,binary,19,1,trial,6012809.0,6015410.0,2601.0,19,R,6014729,6015665,938,456.1,526.8,3111,left
18,1,binary,20,2,fixationCross,6017643.0,6019443.0,1800.0,20,R,6015967,6016299,334,780.9,374.1,3328,NA
18,1,binary,20,2,fixationCross,6017643.0,6019443.0,1800.0,20,R,6016345,6016875,532,959.1,412.2,3509,NA
18,1,binary,20,2,fixationCross,6017643.0,6019443.0,1800.0,20,R,6017253,6017503,252,977.2,432.7,3294,NA
18,1,binary,20,2,trial,6017643.0,6019443.0,1800.0,20,R,6017813,6017979,168,1020.0,398.0,3339,NA
18,1,binary,20,2,trial,6017643.0,6019443.0,1800.0,20,R,6018019,6018211,194,1347.8,479.9,3319,right
18,1,binary,20,2,trial,6017643.0,6019443.0,1800.0,20,R,6018273,6018599,328,490.3,494.7,3122,left
18,1,binary,20,2,trial,6017643.0,6019443.0,1800.0,20,R,6018615,6018843,230,592.3,504.9,2901,left
18,1,binary,20,2,trial,6017643.0,6019443.0,1800.0,20,R,6018913,6019677,766,1482.4,516.9,2930,right
18,1,binary,21,2,fixationCross,6020559.0,6022060.0,1501.0,21,R,6020105,6020235,132,950.5,319.0,3251,NA
18,1,binary,21,2,trial,6020559.0,6022060.0,1501.0,21,R,6020269,6020575,308,986.3,471.8,3485,NA
18,1,binary,21,2,trial,6020559.0,6022060.0,1501.0,21,R,6020835,6020967,134,871.8,470.9,3327,NA
18,1,binary,21,2,trial,6020559.0,6022060.0,1501.0,21,R,6021019,6021281,264,1361.5,472.1,3324,right
18,1,binary,21,2,trial,6020559.0,6022060.0,1501.0,21,R,6021303,6021447,146,1405.7,556.7,3255,right
18,1,binary,21,2,trial,6020559.0,6022060.0,1501.0,21,R,6021513,6021815,304,546.9,506.1,3134,left
18,1,binary,21,2,trial,6020559.0,6022060.0,1501.0,21,R,6021893,6022285,394,1510.9,672.3,3071,right
18,1,binary,22,2,fixationCross,6023877.0,6025210.0,1333.0,22,R,6022617,6023053,438,1052.6,417.3,3572,NA
18,1,binary,22,2,fixationCross,6023877.0,6025210.0,1333.0,22,R,6023605,6023847,244,961.9,439.8,3603,NA
18,1,binary,22,2,trial,6023877.0,6025210.0,1333.0,22,R,6023863,6024075,214,964.7,511.6,3720,NA
18,1,binary,22,2,trial,6023877.0,6025210.0,1333.0,22,R,6024127,6024359,234,1400.8,536.1,3466,right
18,1,binary,22,2,trial,6023877.0,6025210.0,1333.0,22,R,6024437,6024587,152,516.4,451.5,3191,left
18,1,binary,22,2,trial,6023877.0,6025210.0,1333.0,22,R,6024603,6024787,186,576.1,448.7,3027,left
18,1,binary,22,2,trial,6023877.0,6025210.0,1333.0,22,R,6024861,6025405,546,1381.8,662.0,3021,right
18,1,binary,23,2,fixationCross,6026427.0,6028460.0,2033.0,23,R,6025851,6026211,362,1008.3,429.3,3673,NA
18,1,binary,23,2,trial,6026427.0,6028460.0,2033.0,23,R,6026235,6026607,374,935.4,533.5,3593,NA
18,1,binary,23,2,trial,6026427.0,6028460.0,2033.0,23,R,6026657,6026935,280,1334.8,478.7,3301,right
18,1,binary,23,2,trial,6026427.0,6028460.0,2033.0,23,R,6027001,6027447,448,516.0,524.0,3122,left
18,1,binary,23,2,trial,6026427.0,6028460.0,2033.0,23,R,6027465,6027627,164,456.9,561.9,3070,left
18,1,binary,23,2,trial,6026427.0,6028460.0,2033.0,23,R,6027643,6027969,328,411.3,604.1,3091,left
18,1,binary,23,2,trial,6026427.0,6028460.0,2033.0,23,R,6027993,6028101,110,366.7,532.2,3126,left
18,1,binary,23,2,trial,6026427.0,6028460.0,2033.0,23,R,6028189,6028405,218,1491.6,455.9,3064,right
18,1,binary,23,2,trial,6026427.0,6028460.0,2033.0,23,R,6028419,6028671,254,1452.2,474.8,3060,right
18,1,binary,24,2,fixationCross,6029977.0,6031660.0,1683.0,24,R,6029155,6029361,208,874.0,386.0,3183,NA
18,1,binary,24,2,fixationCross,6029977.0,6031660.0,1683.0,24,R,6029379,6029469,92,961.5,467.1,3262,NA
18,1,binary,24,2,trial,6029977.0,6031660.0,1683.0,24,R,6029763,6030179,418,1019.0,471.0,3182,NA
18,1,binary,24,2,trial,6029977.0,6031660.0,1683.0,24,R,6030233,6030505,274,1386.8,505.8,3119,right
18,1,binary,24,2,trial,6029977.0,6031660.0,1683.0,24,R,6030573,6031165,594,550.0,514.5,2967,left
18,1,binary,24,2,postResponse,6029977.0,6031660.0,1683.0,24,R,6031247,6031993,748,1388.0,541.1,3061,right
18,1,binary,25,2,fixationCross,6033443.0,6034876.0,1433.0,25,R,6032455,6032607,154,772.0,409.6,3040,NA
18,1,binary,25,2,fixationCross,6033443.0,6034876.0,1433.0,25,R,6032629,6033133,506,845.1,452.0,3131,NA
18,1,binary,25,2,trial,6033443.0,6034876.0,1433.0,25,R,6033147,6033649,504,939.5,473.0,3001,NA
18,1,binary,25,2,trial,6033443.0,6034876.0,1433.0,25,R,6033699,6033937,240,1398.8,536.0,3005,right
18,1,binary,25,2,trial,6033443.0,6034876.0,1433.0,25,R,6034013,6034279,268,505.2,523.2,2823,left
18,1,binary,25,2,trial,6033443.0,6034876.0,1433.0,25,R,6034297,6034449,154,447.1,526.4,2736,left
18,1,binary,25,2,trial,6033443.0,6034876.0,1433.0,25,R,6034539,6034817,280,1417.8,575.2,2725,right
18,1,binary,25,2,trial,6033443.0,6034876.0,1433.0,25,R,6034833,6035107,276,1470.6,572.0,2710,right
18,1,binary,26,2,fixationCross,6064760.0,6066677.0,1917.0,26,R,6063891,6064049,160,226.0,60.3,3576,NA
18,1,binary,26,2,fixationCross,6064760.0,6066677.0,1917.0,26,R,6064099,6064139,42,601.2,132.3,3597,NA
18,1,binary,26,2,fixationCross,6064760.0,6066677.0,1917.0,26,R,6064375,6064505,132,980.3,373.1,3515,NA
18,1,binary,26,2,fixationCross,6064760.0,6066677.0,1917.0,26,R,6064531,6064659,130,953.5,485.9,3564,NA
18,1,binary,26,2,trial,6064760.0,6066677.0,1917.0,26,R,6064673,6064993,322,949.2,527.0,3739,NA
18,1,binary,26,2,trial,6064760.0,6066677.0,1917.0,26,R,6065077,6065189,114,1345.3,532.6,3727,right
18,1,binary,26,2,trial,6064760.0,6066677.0,1917.0,26,R,6065237,6065401,166,1444.8,935.4,3454,NA
18,1,binary,26,2,trial,6064760.0,6066677.0,1917.0,26,R,6065451,6065725,276,1463.0,527.0,3386,right
18,1,binary,26,2,trial,6064760.0,6066677.0,1917.0,26,R,6065799,6066049,252,442.3,497.5,3419,left
18,1,binary,26,2,trial,6064760.0,6066677.0,1917.0,26,R,6066127,6066863,738,1491.1,585.4,3282,right
18,1,binary,27,2,fixationCross,6069444.0,6070661.0,1217.0,27,R,6067093,6067477,386,1218.8,484.9,3579,right
18,1,binary,27,2,fixationCross,6069444.0,6070661.0,1217.0,27,R,6067499,6068111,614,1082.9,454.1,3885,NA
18,1,binary,27,2,fixationCross,6069444.0,6070661.0,1217.0,27,R,6068125,6068679,556,996.4,404.9,4076,NA
18,1,binary,27,2,fixationCross,6069444.0,6070661.0,1217.0,27,R,6068857,6069245,390,1030.2,423.6,4383,NA
18,1,binary,27,2,trial,6069444.0,6070661.0,1217.0,27,R,6069259,6069523,266,978.2,465.0,4406,NA
18,1,binary,27,2,trial,6069444.0,6070661.0,1217.0,27,R,6069627,6069657,32,960.8,439.3,4273,NA
18,1,binary,27,2,trial,6069444.0,6070661.0,1217.0,27,R,6069713,6069939,228,1451.2,510.0,4108,right
18,1,binary,27,2,trial,6069444.0,6070661.0,1217.0,27,R,6069953,6070081,130,1513.8,509.1,4024,right
18,1,binary,27,2,trial,6069444.0,6070661.0,1217.0,27,R,6070161,6070399,240,503.0,468.3,3797,left
18,1,binary,27,2,trial,6069444.0,6070661.0,1217.0,27,R,6070479,6070627,150,1561.9,488.6,3507,right
18,1,binary,27,2,trial,6069444.0,6070661.0,1217.0,27,R,6070641,6070873,234,1607.2,489.4,3392,right
18,1,binary,28,1,fixationCross,6072261.0,6073977.0,1716.0,28,R,6071187,6071299,114,615.9,418.7,3449,left
18,1,binary,28,1,fixationCross,6072261.0,6073977.0,1716.0,28,R,6071605,6072023,420,1022.7,388.7,3763,NA
18,1,binary,28,1,trial,6072261.0,6073977.0,1716.0,28,R,6072043,6072451,410,925.1,452.5,3568,NA
18,1,binary,28,1,trial,6072261.0,6073977.0,1716.0,28,R,6072507,6072689,184,501.3,550.8,3369,left
18,1,binary,28,1,trial,6072261.0,6073977.0,1716.0,28,R,6072711,6072859,150,423.2,586.9,3358,left
18,1,binary,28,1,trial,6072261.0,6073977.0,1716.0,28,R,6072875,6073225,352,483.5,561.8,3231,left
18,1,binary,28,1,trial,6072261.0,6073977.0,1716.0,28,R,6073301,6073527,228,1425.1,540.2,3047,right
18,1,binary,28,1,trial,6072261.0,6073977.0,1716.0,28,R,6073543,6073597,56,1458.8,496.1,3042,right
18,1,binary,28,1,trial,6072261.0,6073977.0,1716.0,28,R,6073677,6074029,354,398.6,576.3,3238,left
18,1,binary,28,1,trial,6072261.0,6073977.0,1716.0,28,R,6074047,6074223,178,526.4,613.1,3297,left
18,1,binary,29,1,fixationCross,6074894.0,6076377.0,1483.0,29,R,6074521,6074799,280,911.7,479.2,3378,NA
18,1,binary,29,1,trial,6074894.0,6076377.0,1483.0,29,R,6074817,6075073,258,956.0,546.1,3578,NA
18,1,binary,29,1,trial,6074894.0,6076377.0,1483.0,29,R,6075143,6075441,300,1486.2,535.7,3397,right
18,1,binary,29,1,trial,6074894.0,6076377.0,1483.0,29,R,6075527,6075803,278,424.9,533.5,3199,left
18,1,binary,29,1,trial,6074894.0,6076377.0,1483.0,29,R,6075821,6076395,576,496.8,517.0,2972,left
18,1,binary,29,1,trial,6074894.0,6076377.0,1483.0,29,R,6076445,6076599,156,504.6,911.1,3011,NA
18,1,binary,30,1,fixationCross,6077294.0,6078627.0,1333.0,30,R,6076925,6077253,330,905.5,455.5,3286,NA
18,1,binary,30,1,trial,6077294.0,6078627.0,1333.0,30,R,6077267,6077497,232,969.3,474.7,3416,NA
18,1,binary,30,1,trial,6077294.0,6078627.0,1333.0,30,R,6077553,6077815,264,449.8,533.8,3296,left
18,1,binary,30,1,trial,6077294.0,6078627.0,1333.0,30,R,6077889,6078593,706,1465.7,522.4,2845,right
18,1,binary,30,1,trial,6077294.0,6078627.0,1333.0,30,R,6078671,6078715,46,597.6,645.1,2946,left
18,1,binary,30,1,trial,6077294.0,6078627.0,1333.0,30,R,6078739,6078885,148,464.5,592.0,3004,left
18,1,binary,31,1,fixationCross,6080543.0,6084127.0,3584.0,31,R,6079191,6079407,218,616.8,429.9,3239,left
18,1,binary,31,1,fixationCross,6080543.0,6084127.0,3584.0,31,R,6079429,6079617,190,740.9,454.7,3409,NA
18,1,binary,31,1,fixationCross,6080543.0,6084127.0,3584.0,31,R,6079881,6080101,222,724.0,447.5,3311,left
18,1,binary,31,1,trial,6080543.0,6084127.0,3584.0,31,R,6080123,6080723,602,877.5,482.0,3191,NA
18,1,binary,31,1,trial,6080543.0,6084127.0,3584.0,31,R,6080757,6080969,214,625.4,492.4,3121,left
18,1,binary,31,1,trial,6080543.0,6084127.0,3584.0,31,R,6080989,6081193,206,531.9,513.9,3070,left
18,1,binary,31,1,trial,6080543.0,6084127.0,3584.0,31,R,6081213,6081531,320,451.2,555.4,3033,left
18,1,binary,31,1,trial,6080543.0,6084127.0,3584.0,31,R,6081607,6081791,186,1403.5,491.4,2932,right
18,1,binary,31,1,trial,6080543.0,6084127.0,3584.0,31,R,6081805,6082075,272,1441.3,459.1,2922,right
18,1,binary,31,1,trial,6080543.0,6084127.0,3584.0,31,R,6082097,6082257,162,1523.0,464.9,2902,right
18,1,binary,31,1,trial,6080543.0,6084127.0,3584.0,31,R,6082339,6082747,410,456.3,579.4,3044,left
18,1,binary,31,1,trial,6080543.0,6084127.0,3584.0,31,R,6082831,6083103,274,1424.2,461.9,2897,right
18,1,binary,31,1,trial,6080543.0,6084127.0,3584.0,31,R,6083121,6083491,372,1517.0,477.4,2893,right
18,1,binary,31,1,trial,6080543.0,6084127.0,3584.0,31,R,6083583,6083787,206,501.3,552.9,3024,left
18,1,binary,31,1,trial,6080543.0,6084127.0,3584.0,31,R,6083803,6084331,530,439.2,583.4,3030,left
18,1,binary,32,1,fixationCross,6087094.0,6089144.0,2050.0,32,R,6084701,6084851,152,530.7,404.8,3073,left
18,1,binary,32,1,fixationCross,6087094.0,6089144.0,2050.0,32,R,6085273,6085603,332,1175.1,365.1,3144,NA
18,1,binary,32,1,fixationCross,6087094.0,6089144.0,2050.0,32,R,6085895,6086389,496,973.4,405.9,3010,NA
18,1,binary,32,1,fixationCross,6087094.0,6089144.0,2050.0,32,R,6086707,6086947,242,827.6,379.5,2907,NA
18,1,binary,32,1,trial,6087094.0,6089144.0,2050.0,32,R,6087295,6087427,134,999.2,386.8,2953,NA
18,1,binary,32,1,trial,6087094.0,6089144.0,2050.0,32,R,6087477,6087757,282,556.8,550.9,3132,left
18,1,binary,32,1,trial,6087094.0,6089144.0,2050.0,32,R,6087775,6087957,184,519.7,511.4,3069,left
18,1,binary,32,1,trial,6087094.0,6089144.0,2050.0,32,R,6088035,6088275,242,1452.0,477.4,2802,right
18,1,binary,32,1,trial,6087094.0,6089144.0,2050.0,32,R,6088297,6088485,190,1588.5,558.2,2763,right
18,1,binary,32,1,trial,6087094.0,6089144.0,2050.0,32,R,6088499,6088573,76,1619.7,602.1,2781,right
18,1,binary,32,1,trial,6087094.0,6089144.0,2050.0,32,R,6088661,6088861,202,446.2,553.8,3009,left
18,1,binary,32,1,trial,6087094.0,6089144.0,2050.0,32,R,6088879,6089369,492,514.5,594.5,2974,left
18,1,binary,33,2,fixationCross,6090894.0,6093544.0,2650.0,33,R,6090401,6090581,182,816.0,438.4,3302,NA
18,1,binary,33,2,fixationCross,6090894.0,6093544.0,2650.0,33,R,6090601,6090869,270,928.4,502.8,3217,NA
18,1,binary,33,2,trial,6090894.0,6093544.0,2650.0,33,R,6091217,6091369,154,927.1,333.5,2946,NA
18,1,binary,33,2,trial,6090894.0,6093544.0,2650.0,33,R,6091405,6091549,146,673.5,512.0,3092,left
18,1,binary,33,2,trial,6090894.0,6093544.0,2650.0,33,R,6091567,6091715,150,589.3,578.5,3117,left
18,1,binary,33,2,trial,6090894.0,6093544.0,2650.0,33,R,6091787,6092123,338,1417.7,544.8,2786,right
18,1,binary,33,2,trial,6090894.0,6093544.0,2650.0,33,R,6092145,6092679,536,1493.4,511.9,2689,right
18,1,binary,33,2,trial,6090894.0,6093544.0,2650.0,33,R,6092693,6092841,150,1423.6,527.8,2686,right
18,1,binary,33,2,trial,6090894.0,6093544.0,2650.0,33,R,6092921,6093523,604,554.0,566.7,2806,left
18,1,binary,33,2,trial,6090894.0,6093544.0,2650.0,33,R,6093599,6093785,188,1383.2,596.7,2623,right
18,1,binary,34,1,fixationCross,6095594.0,6097194.0,1600.0,34,R,6094657,6094761,106,856.5,319.0,3404,NA
18,1,binary,34,1,fixationCross,6095594.0,6097194.0,1600.0,34,R,6094785,6094941,158,920.9,415.0,3434,NA
18,1,binary,34,1,trial,6095594.0,6097194.0,1600.0,34,R,6095243,6095743,502,951.5,444.9,3099,NA
18,1,binary,34,1,trial,6095594.0,6097194.0,1600.0,34,R,6095789,6096381,594,528.4,547.8,3116,left
18,1,binary,34,1,trial,6095594.0,6097194.0,1600.0,34,R,6096457,6096769,314,1401.9,520.8,2940,right
18,1,binary,34,1,trial,6095594.0,6097194.0,1600.0,34,R,6096841,6097403,564,560.6,556.6,3288,left
18,1,binary,35,1,fixationCross,6098644.0,6100777.0,2133.0,35,R,6097947,6098017,72,851.2,575.1,2974,NA
18,1,binary,35,1,fixationCross,6098644.0,6100777.0,2133.0,35,R,6098035,6098053,20,872.6,513.1,3278,NA
18,1,binary,35,1,fixationCross,6098644.0,6100777.0,2133.0,35,R,6098089,6098209,122,926.2,407.1,3649,NA
18,1,binary,35,1,trial,6098644.0,6100777.0,2133.0,35,R,6098549,6098831,284,937.4,428.4,3445,NA
18,1,binary,35,1,trial,6098644.0,6100777.0,2133.0,35,R,6098873,6099211,340,555.9,504.5,3320,left
18,1,binary,35,1,trial,6098644.0,6100777.0,2133.0,35,R,6099287,6099441,156,1504.3,508.5,2867,right
18,1,binary,35,1,trial,6098644.0,6100777.0,2133.0,35,R,6099461,6099653,194,1428.3,476.0,2786,right
18,1,binary,35,1,trial,6098644.0,6100777.0,2133.0,35,R,6099727,6099903,178,605.7,476.7,2878,left
18,1,binary,35,1,trial,6098644.0,6100777.0,2133.0,35,R,6099981,6100145,166,1569.8,548.1,2771,right
18,1,binary,35,1,trial,6098644.0,6100777.0,2133.0,35,R,6100159,6100335,178,1630.1,572.9,2820,right
18,1,binary,35,1,trial,6098644.0,6100777.0,2133.0,35,R,6100369,6100475,108,1363.7,473.6,2899,right
18,1,binary,35,1,trial,6098644.0,6100777.0,2133.0,35,R,6100547,6100969,424,536.6,478.0,3038,left
18,1,binary,36,2,fixationCross,6102244.0,6103695.0,1451.0,36,R,6101745,6101893,150,648.2,426.7,3283,left
18,1,binary,36,2,fixationCross,6102244.0,6103695.0,1451.0,36,R,6101909,6101987,80,815.7,457.6,3320,NA
18,1,binary,36,2,trial,6102244.0,6103695.0,1451.0,36,R,6102001,6102299,300,1025.9,495.1,3224,NA
18,1,binary,36,2,trial,6102244.0,6103695.0,1451.0,36,R,6102323,6102433,112,947.5,498.4,3046,NA
18,1,binary,36,2,trial,6102244.0,6103695.0,1451.0,36,R,6102489,6102647,160,438.1,519.7,3044,left
18,1,binary,36,2,trial,6102244.0,6103695.0,1451.0,36,R,6102665,6103077,414,454.4,480.1,2959,left
18,1,binary,36,2,trial,6102244.0,6103695.0,1451.0,36,R,6103163,6103861,700,1458.7,486.6,3031,right
18,1,binary,37,1,fixationCross,6107078.0,6107995.0,917.0,37,R,6104157,6104555,400,777.3,443.1,3605,NA
18,1,binary,37,1,fixationCross,6107078.0,6107995.0,917.0,37,R,6104575,6105117,544,864.7,468.1,3914,NA
18,1,binary,37,1,fixationCross,6107078.0,6107995.0,917.0,37,R,6105131,6105389,260,816.8,451.3,3747,NA
18,1,binary,37,1,fixationCross,6107078.0,6107995.0,917.0,37,R,6105407,6105807,402,891.7,450.1,3781,NA
18,1,binary,37,1,fixationCross,6107078.0,6107995.0,917.0,37,R,6105829,6106351,524,822.4,446.4,3972,NA
18,1,binary,37,1,fixationCross,6107078.0,6107995.0,917.0,37,R,6106605,6106775,172,866.3,448.1,3958,NA
18,1,binary,37,1,fixationCross,6107078.0,6107995.0,917.0,37,R,6106793,6107067,276,926.5,496.2,4009,NA
18,1,binary,37,1,trial,6107078.0,6107995.0,917.0,37,R,6107311,6107415,106,851.5,432.7,3743,NA
18,1,binary,37,1,trial,6107078.0,6107995.0,917.0,37,R,6107445,6107623,180,622.0,504.7,3722,left
18,1,binary,37,1,trial,6107078.0,6107995.0,917.0,37,R,6107639,6108193,556,542.9,539.5,3361,left
18,1,binary,38,1,fixationCross,6110261.0,6111544.0,1283.0,38,R,6109079,6109213,136,1295.7,338.1,3565,NA
18,1,binary,38,1,fixationCross,6110261.0,6111544.0,1283.0,38,R,6109253,6109539,288,1055.8,410.2,3518,NA
18,1,binary,38,1,fixationCross,6110261.0,6111544.0,1283.0,38,R,6109973,6110063,92,913.0,318.9,3004,NA
18,1,binary,38,1,trial,6110261.0,6111544.0,1283.0,38,R,6110093,6110547,456,962.1,548.9,3083,NA
18,1,binary,38,1,trial,6110261.0,6111544.0,1283.0,38,R,6110603,6110883,282,1420.6,579.4,2948,right
18,1,binary,38,1,trial,6110261.0,6111544.0,1283.0,38,R,6110895,6111011,118,1443.6,551.2,2873,right
18,1,binary,38,1,trial,6110261.0,6111544.0,1283.0,38,R,6111089,6111487,400,448.6,530.2,2874,left
18,1,binary,38,1,trial,6110261.0,6111544.0,1283.0,38,R,6111499,6111761,264,486.5,514.9,2794,left
18,1,binary,39,1,fixationCross,6114978.0,6116794.0,1816.0,39,R,6112051,6113263,1214,886.9,373.3,3168,NA
18,1,binary,39,1,fixationCross,6114978.0,6116794.0,1816.0,39,R,6113281,6114475,1196,911.4,422.4,3613,NA
18,1,binary,39,1,trial,6114978.0,6116794.0,1816.0,39,R,6114739,6115201,464,930.2,452.9,3605,NA
18,1,binary,39,1,trial,6114978.0,6116794.0,1816.0,39,R,6115247,6115411,166,507.6,482.0,3447,left
18,1,binary,39,1,trial,6114978.0,6116794.0,1816.0,39,R,6115493,6116211,720,1414.5,513.7,2843,right
18,1,binary,39,1,trial,6114978.0,6116794.0,1816.0,39,R,6116289,6116985,698,532.1,465.6,2830,left
18,1,binary,40,2,fixationCross,6119911.0,6121411.0,1500.0,40,R,6117513,6117601,90,747.2,513.3,2880,NA
18,1,binary,40,2,fixationCross,6119911.0,6121411.0,1500.0,40,R,6118159,6118357,200,1029.6,364.9,3485,NA
18,1,binary,40,2,fixationCross,6119911.0,6121411.0,1500.0,40,R,6118371,6118597,228,1035.6,450.2,3346,NA
18,1,binary,40,2,fixationCross,6119911.0,6121411.0,1500.0,40,R,6119123,6119755,634,1016.9,362.5,3012,NA
18,1,binary,40,2,trial,6119911.0,6121411.0,1500.0,40,R,6120089,6120161,74,1035.2,254.9,2917,NA
18,1,binary,40,2,trial,6119911.0,6121411.0,1500.0,40,R,6120177,6120199,24,1004.2,325.9,2942,NA
18,1,binary,40,2,trial,6119911.0,6121411.0,1500.0,40,R,6120235,6120369,136,795.1,446.2,3021,NA
18,1,binary,40,2,trial,6119911.0,6121411.0,1500.0,40,R,6120391,6120563,174,624.3,495.6,3084,left
18,1,binary,40,2,trial,6119911.0,6121411.0,1500.0,40,R,6120581,6120725,146,621.2,458.8,2977,left
18,1,binary,40,2,trial,6119911.0,6121411.0,1500.0,40,R,6120815,6121019,206,1269.9,443.4,2770,right
18,1,binary,40,2,trial,6119911.0,6121411.0,1500.0,40,R,6121039,6121295,258,1375.2,465.4,2772,right
18,1,binary,40,2,trial,6119911.0,6121411.0,1500.0,40,R,6121307,6121613,308,1408.0,488.0,2935,right
18,1,binary,41,1,fixationCross,6122578.0,6123811.0,1233.0,41,R,6122033,6122185,154,593.3,279.4,3613,NA
18,1,binary,41,1,fixationCross,6122578.0,6123811.0,1233.0,41,R,6122229,6122265,38,821.0,369.6,3721,NA
18,1,binary,41,1,trial,6122578.0,6123811.0,1233.0,41,R,6122291,6122789,500,959.1,448.7,3716,NA
18,1,binary,41,1,trial,6122578.0,6123811.0,1233.0,41,R,6122843,6123093,252,452.0,493.2,3493,left
18,1,binary,41,1,trial,6122578.0,6123811.0,1233.0,41,R,6123107,6123269,164,471.9,529.1,3433,left
18,1,binary,41,1,trial,6122578.0,6123811.0,1233.0,41,R,6123285,6124019,736,456.4,596.0,3493,left
18,1,binary,42,2,fixationCross,6125178.0,6126395.0,1217.0,42,R,6124339,6124593,256,825.3,382.6,3562,NA
18,1,binary,42,2,fixationCross,6125178.0,6126395.0,1217.0,42,R,6124615,6124881,268,914.5,437.3,3612,NA
18,1,binary,42,2,trial,6125178.0,6126395.0,1217.0,42,R,6124897,6125347,452,970.4,471.8,3338,NA
18,1,binary,42,2,trial,6125178.0,6126395.0,1217.0,42,R,6125395,6125563,170,559.5,542.3,3271,left
18,1,binary,42,2,trial,6125178.0,6126395.0,1217.0,42,R,6125579,6125861,284,459.4,589.3,3192,left
18,1,binary,42,2,trial,6125178.0,6126395.0,1217.0,42,R,6125943,6126583,642,1430.8,522.9,2905,right
18,1,binary,43,1,fixationCross,6127595.0,6128161.0,566.0,43,R,6126987,6127267,282,858.4,382.6,3228,NA
18,1,binary,43,1,trial,6127595.0,6128161.0,566.0,43,R,6127279,6127811,534,983.5,457.8,3337,NA
18,1,binary,43,1,trial,6127595.0,6128161.0,566.0,43,R,6127867,6128075,210,530.2,567.4,3267,left
18,1,binary,43,1,trial,6127595.0,6128161.0,566.0,43,R,6128107,6128361,256,353.1,516.4,3101,left
18,1,binary,44,2,trial,6129295.0,6129578.0,283.0,44,R,6128773,6129477,706,971.8,440.7,2957,NA
18,1,binary,44,2,trial,6129295.0,6129578.0,283.0,44,R,6129531,6129837,308,1396.3,475.2,2878,right
18,1,binary,45,1,fixationCross,6132128.0,6132878.0,750.0,45,R,6130201,6130237,38,857.5,515.0,2647,NA
18,1,binary,45,1,fixationCross,6132128.0,6132878.0,750.0,45,R,6130245,6131109,866,795.4,405.4,3141,NA
18,1,binary,45,1,fixationCross,6132128.0,6132878.0,750.0,45,R,6131123,6131163,42,923.1,429.0,3025,NA
18,1,binary,45,1,fixationCross,6132128.0,6132878.0,750.0,45,R,6131263,6131395,134,1614.6,378.4,2992,right
18,1,binary,45,1,fixationCross,6132128.0,6132878.0,750.0,45,R,6131427,6131569,144,1375.5,390.7,3035,right
18,1,binary,45,1,trial,6132128.0,6132878.0,750.0,45,R,6131633,6132243,612,929.6,449.7,3235,NA
18,1,binary,45,1,trial,6132128.0,6132878.0,750.0,45,R,6132369,6132539,172,518.0,469.9,3426,left
18,1,binary,45,1,trial,6132128.0,6132878.0,750.0,45,R,6132561,6133083,524,442.0,533.4,3424,left
18,1,binary,46,1,fixationCross,6135811.0,6137028.0,1217.0,46,R,6133493,6133611,120,1203.9,370.9,3254,right
18,1,binary,46,1,fixationCross,6135811.0,6137028.0,1217.0,46,R,6133627,6134233,608,1252.6,398.5,3446,right
18,1,binary,46,1,fixationCross,6135811.0,6137028.0,1217.0,46,R,6134499,6134749,252,1142.8,319.5,3377,NA
18,1,binary,46,1,trial,6135811.0,6137028.0,1217.0,46,R,6134759,6135875,1118,1008.3,422.8,3286,NA
18,1,binary,46,1,trial,6135811.0,6137028.0,1217.0,46,R,6136035,6136075,42,1141.8,367.5,3190,NA
18,1,binary,46,1,trial,6135811.0,6137028.0,1217.0,46,R,6136095,6136333,240,1363.6,474.5,3086,right
18,1,binary,46,1,trial,6135811.0,6137028.0,1217.0,46,R,6136399,6136709,312,529.9,468.9,3089,left
18,1,binary,46,1,trial,6135811.0,6137028.0,1217.0,46,R,6136729,6136963,236,407.5,487.2,2975,left
18,1,binary,46,1,trial,6135811.0,6137028.0,1217.0,46,R,6136983,6137245,264,376.1,433.1,2957,left
18,1,binary,47,2,fixationCross,6140195.0,6140978.0,783.0,47,R,6137911,6138011,102,1376.8,260.0,3062,NA
18,1,binary,47,2,fixationCross,6140195.0,6140978.0,783.0,47,R,6138021,6138193,174,1147.2,303.9,3146,NA
18,1,binary,47,2,fixationCross,6140195.0,6140978.0,783.0,47,R,6138731,6138879,150,976.3,294.6,2979,NA
18,1,binary,47,2,fixationCross,6140195.0,6140978.0,783.0,47,R,6138905,6139097,194,991.1,441.3,3064,NA
18,1,binary,47,2,fixationCross,6140195.0,6140978.0,783.0,47,R,6139359,6140021,664,1000.1,408.8,3052,NA
18,1,binary,47,2,trial,6140195.0,6140978.0,783.0,47,R,6140039,6140413,376,958.8,503.4,3013,NA
18,1,binary,47,2,trial,6140195.0,6140978.0,783.0,47,R,6140459,6140701,244,1324.2,522.8,3044,right
18,1,binary,47,2,trial,6140195.0,6140978.0,783.0,47,R,6140723,6140973,252,1415.8,515.1,2997,right
18,1,binary,47,2,trial,6140195.0,6140978.0,783.0,47,R,6140983,6141187,206,1435.3,490.7,2987,right
18,1,binary,48,1,fixationCross,6144544.0,6145278.0,734.0,48,R,6141661,6141843,184,1012.4,333.7,3264,NA
18,1,binary,48,1,fixationCross,6144544.0,6145278.0,734.0,48,R,6141859,6142163,306,1033.7,400.2,3335,NA
18,1,binary,48,1,fixationCross,6144544.0,6145278.0,734.0,48,R,6142179,6142303,126,1088.4,415.0,3236,NA
18,1,binary,48,1,fixationCross,6144544.0,6145278.0,734.0,48,R,6142355,6142543,190,777.5,414.9,3180,NA
18,1,binary,48,1,fixationCross,6144544.0,6145278.0,734.0,48,R,6142581,6143655,1076,619.5,428.8,3254,left
18,1,binary,48,1,fixationCross,6144544.0,6145278.0,734.0,48,R,6143933,6144527,596,823.0,406.0,3125,NA
18,1,binary,48,1,trial,6144544.0,6145278.0,734.0,48,R,6144779,6144833,56,1016.9,430.2,2970,NA
18,1,binary,48,1,trial,6144544.0,6145278.0,734.0,48,R,6144885,6145113,230,517.0,549.4,3069,left
18,1,binary,48,1,trial,6144544.0,6145278.0,734.0,48,R,6145127,6145487,362,475.9,555.7,2968,left
18,1,binary,49,2,fixationCross,6148195.0,6149078.0,883.0,49,R,6146085,6146229,146,1011.7,373.3,2895,NA
18,1,binary,49,2,fixationCross,6148195.0,6149078.0,883.0,49,R,6147481,6147611,132,1033.9,302.0,3251,NA
18,1,binary,49,2,fixationCross,6148195.0,6149078.0,883.0,49,R,6147623,6147685,64,1009.9,345.3,3266,NA
18,1,binary,49,2,trial,6148195.0,6149078.0,883.0,49,R,6147705,6148433,730,1013.5,454.9,3030,NA
18,1,binary,49,2,trial,6148195.0,6149078.0,883.0,49,R,6148483,6148725,244,1422.5,505.3,3073,right
18,1,binary,49,2,trial,6148195.0,6149078.0,883.0,49,R,6148735,6149279,546,1451.4,491.0,3281,right
18,1,binary,50,2,fixationCross,6151344.0,6152162.0,818.0,50,R,6149679,6149789,112,816.0,314.5,3570,NA
18,1,binary,50,2,trial,6151344.0,6152162.0,818.0,50,R,6150287,6151627,1342,989.6,399.6,3221,NA
18,1,binary,50,2,trial,6151344.0,6152162.0,818.0,50,R,6151679,6151825,148,1330.9,535.9,3096,right
18,1,binary,50,2,trial,6151344.0,6152162.0,818.0,50,R,6151849,6152349,502,1454.4,442.4,3008,right
18,2,continuous,1,81,fixationCross,6309064.0,6312247.0,3183.0,51,R,6308421,6308477,58,1264.0,689.6,3885,right
18,2,continuous,1,81,fixationCross,6309064.0,6312247.0,3183.0,51,R,6308517,6308661,146,995.4,539.4,3889,NA
18,2,continuous,1,81,fixationCross,6309064.0,6312247.0,3183.0,51,R,6308699,6308853,156,1005.9,855.4,3873,likertHorizontal
18,2,continuous,1,81,trial,6309064.0,6312247.0,3183.0,51,R,6308891,6309079,190,984.9,579.7,3914,NA
18,2,continuous,1,81,trial,6309064.0,6312247.0,3183.0,51,R,6309225,6309305,82,987.3,564.7,4030,NA
18,2,continuous,1,81,trial,6309064.0,6312247.0,3183.0,51,R,6309363,6309473,112,778.1,981.7,4070,likertHorizontal
18,2,continuous,1,81,trial,6309064.0,6312247.0,3183.0,51,R,6309497,6309663,168,567.1,993.8,4028,NA
18,2,continuous,1,81,trial,6309064.0,6312247.0,3183.0,51,R,6309699,6309861,164,898.3,987.0,3748,likertHorizontal
18,2,continuous,1,81,trial,6309064.0,6312247.0,3183.0,51,R,6309905,6310089,186,536.1,996.1,3334,NA
18,2,continuous,1,81,trial,6309064.0,6312247.0,3183.0,51,R,6310145,6310293,150,517.5,475.3,3385,left
18,2,continuous,1,81,trial,6309064.0,6312247.0,3183.0,51,R,6310307,6310497,192,567.7,506.0,3305,left
18,2,continuous,1,81,trial,6309064.0,6312247.0,3183.0,51,R,6310569,6311069,502,1437.7,520.9,3221,right
18,2,continuous,1,81,trial,6309064.0,6312247.0,3183.0,51,R,6311225,6311561,338,1443.4,515.0,3281,right
18,2,continuous,1,81,trial,6309064.0,6312247.0,3183.0,51,R,6311577,6311855,280,1369.4,516.6,3425,right
18,2,continuous,1,81,trial,6309064.0,6312247.0,3183.0,51,R,6311901,6311955,56,1405.2,907.2,3333,NA
18,2,continuous,1,81,trial,6309064.0,6312247.0,3183.0,51,R,6311993,6312209,218,1429.1,1037.8,3302,NA
18,2,continuous,1,81,trial,6309064.0,6312247.0,3183.0,51,R,6312231,6312455,226,1310.3,1016.8,3350,NA
18,2,continuous,2,72,fixationCross,6313164.0,6314796.0,1632.0,52,R,6312655,6313045,392,934.7,512.4,3528,NA
18,2,continuous,2,72,trial,6313164.0,6314796.0,1632.0,52,R,6313061,6313327,268,971.2,507.2,3646,NA
18,2,continuous,2,72,trial,6313164.0,6314796.0,1632.0,52,R,6313381,6313707,328,1385.2,520.1,3584,right
18,2,continuous,2,72,trial,6313164.0,6314796.0,1632.0,52,R,6313777,6314047,272,590.6,494.7,3384,left
18,2,continuous,2,72,trial,6313164.0,6314796.0,1632.0,52,R,6314123,6314535,414,1447.1,557.8,3182,right
18,2,continuous,2,72,trial,6313164.0,6314796.0,1632.0,52,R,6314555,6314971,418,1398.1,506.1,3222,right
18,2,continuous,3,95,fixationCross,6316064.0,6317197.0,1133.0,53,R,6315237,6315775,540,1056.9,478.0,3342,NA
18,2,continuous,3,95,fixationCross,6316064.0,6317197.0,1133.0,53,R,6315789,6316019,232,1000.0,484.5,3419,NA
18,2,continuous,3,95,trial,6316064.0,6317197.0,1133.0,53,R,6316045,6316097,54,1141.5,482.7,3423,NA
18,2,continuous,3,95,trial,6316064.0,6317197.0,1133.0,53,R,6316119,6316285,168,1256.5,479.6,3414,right
18,2,continuous,3,95,trial,6316064.0,6317197.0,1133.0,53,R,6316323,6316539,218,1543.8,514.6,3350,right
18,2,continuous,3,95,trial,6316064.0,6317197.0,1133.0,53,R,6316611,6316815,206,596.1,535.9,3162,left
18,2,continuous,3,95,trial,6316064.0,6317197.0,1133.0,53,R,6316833,6317093,262,503.4,574.7,3030,left
18,2,continuous,3,95,trial,6316064.0,6317197.0,1133.0,53,R,6317175,6317393,220,1387.3,970.6,3035,NA
18,2,continuous,4,73,fixationCross,6318480.0,6320813.0,2333.0,54,R,6317637,6317965,330,1093.5,529.3,3379,NA
18,2,continuous,4,73,trial,6318480.0,6320813.0,2333.0,54,R,6318189,6318673,486,990.4,491.2,3704,NA
18,2,continuous,4,73,trial,6318480.0,6320813.0,2333.0,54,R,6318731,6319021,292,1403.0,483.2,3801,right
18,2,continuous,4,73,trial,6318480.0,6320813.0,2333.0,54,R,6319085,6319185,102,618.9,474.4,3794,left
18,2,continuous,4,73,trial,6318480.0,6320813.0,2333.0,54,R,6319369,6319493,126,467.0,482.8,3506,left
18,2,continuous,4,73,trial,6318480.0,6320813.0,2333.0,54,R,6319563,6319739,178,1344.8,546.4,3562,right
18,2,continuous,4,73,trial,6318480.0,6320813.0,2333.0,54,R,6319757,6319909,154,1436.2,583.7,3699,right
18,2,continuous,4,73,trial,6318480.0,6320813.0,2333.0,54,R,6319973,6320135,164,620.4,531.2,3749,left
18,2,continuous,4,73,trial,6318480.0,6320813.0,2333.0,54,R,6320157,6320465,310,507.5,534.6,3601,left
18,2,continuous,4,73,trial,6318480.0,6320813.0,2333.0,54,R,6320537,6320807,272,1475.8,582.4,3387,right
18,2,continuous,4,73,trial,6318480.0,6320813.0,2333.0,54,R,6320833,6321005,174,1370.2,458.2,3320,right
18,2,continuous,5,82,fixationCross,6322297.0,6325330.0,3033.0,55,R,6321223,6321341,120,2568.7,775.8,3045,NA
18,2,continuous,5,82,fixationCross,6322297.0,6325330.0,3033.0,55,R,6321523,6321901,380,1017.3,424.9,3575,NA
18,2,continuous,5,82,trial,6322297.0,6325330.0,3033.0,55,R,6322085,6322487,404,987.5,468.5,3526,NA
18,2,continuous,5,82,trial,6322297.0,6325330.0,3033.0,55,R,6322539,6323085,548,1371.8,538.9,3269,right
18,2,continuous,5,82,trial,6322297.0,6325330.0,3033.0,55,R,6323155,6323393,240,607.8,496.0,2964,left
18,2,continuous,5,82,trial,6322297.0,6325330.0,3033.0,55,R,6323407,6324045,640,551.6,504.8,2885,left
18,2,continuous,5,82,trial,6322297.0,6325330.0,3033.0,55,R,6324127,6325519,1394,1436.7,525.4,2885,right
18,2,continuous,6,83,fixationCross,6326247.0,6327381.0,1134.0,56,R,6325791,6326019,230,908.3,464.9,3183,NA
18,2,continuous,6,83,trial,6326247.0,6327381.0,1134.0,56,R,6326039,6326475,438,1029.7,479.2,3280,NA
18,2,continuous,6,83,trial,6326247.0,6327381.0,1134.0,56,R,6326515,6326711,198,1380.7,559.0,3139,right
18,2,continuous,6,83,trial,6326247.0,6327381.0,1134.0,56,R,6326727,6326879,154,1345.4,601.4,3029,right
18,2,continuous,6,83,trial,6326247.0,6327381.0,1134.0,56,R,6326941,6327117,178,588.2,533.2,2916,left
18,2,continuous,6,83,trial,6326247.0,6327381.0,1134.0,56,R,6327131,6327183,54,550.1,505.7,2886,left
18,2,continuous,6,83,trial,6326247.0,6327381.0,1134.0,56,R,6327205,6327407,204,548.5,431.8,2879,left
18,2,continuous,6,83,trial,6326247.0,6327381.0,1134.0,56,R,6327433,6327609,178,339.2,417.5,2922,left
18,2,continuous,7,12,fixationCross,6329314.0,6330664.0,1350.0,57,R,6327841,6328153,314,1157.7,503.4,3011,NA
18,2,continuous,7,12,fixationCross,6329314.0,6330664.0,1350.0,57,R,6328173,6328509,338,1054.6,485.2,3225,NA
18,2,continuous,7,12,fixationCross,6329314.0,6330664.0,1350.0,57,R,6328529,6328813,286,1139.8,474.2,3241,NA
18,2,continuous,7,12,trial,6329314.0,6330664.0,1350.0,57,R,6329029,6329329,302,986.2,481.5,3350,NA
18,2,continuous,7,12,trial,6329314.0,6330664.0,1350.0,57,R,6329529,6329645,118,874.2,492.3,3623,NA
18,2,continuous,7,12,trial,6329314.0,6330664.0,1350.0,57,R,6329693,6329897,206,477.3,527.7,3612,left
18,2,continuous,7,12,trial,6329314.0,6330664.0,1350.0,57,R,6329917,6330045,130,373.3,526.2,3507,left
18,2,continuous,7,12,trial,6329314.0,6330664.0,1350.0,57,R,6330061,6330199,140,316.6,489.5,3323,left
18,2,continuous,7,12,trial,6329314.0,6330664.0,1350.0,57,R,6330209,6330417,210,300.1,470.0,3166,left
18,2,continuous,7,12,trial,6329314.0,6330664.0,1350.0,57,R,6330495,6330849,356,1434.6,553.1,3052,right
18,2,continuous,8,16,fixationCross,6332196.0,6334198.0,2002.0,58,R,6331097,6331435,340,1230.3,438.2,3440,right
18,2,continuous,8,16,fixationCross,6332196.0,6334198.0,2002.0,58,R,6331453,6331611,160,1105.7,452.1,3650,NA
18,2,continuous,8,16,fixationCross,6332196.0,6334198.0,2002.0,58,R,6331787,6332083,298,1023.1,459.2,3629,NA
18,2,continuous,8,16,trial,6332196.0,6334198.0,2002.0,58,R,6332311,6332507,198,1006.8,420.5,3595,NA
18,2,continuous,8,16,trial,6332196.0,6334198.0,2002.0,58,R,6332559,6332821,264,1443.3,572.0,3470,right
18,2,continuous,8,16,trial,6332196.0,6334198.0,2002.0,58,R,6332833,6333043,212,1457.0,593.4,3276,right
18,2,continuous,8,16,trial,6332196.0,6334198.0,2002.0,58,R,6333113,6333421,310,587.8,543.8,3111,left
18,2,continuous,8,16,trial,6332196.0,6334198.0,2002.0,58,R,6333443,6333717,276,473.4,526.5,3040,left
18,2,continuous,8,16,trial,6332196.0,6334198.0,2002.0,58,R,6333795,6334001,208,1373.3,540.7,3038,right
18,2,continuous,8,16,trial,6332196.0,6334198.0,2002.0,58,R,6334079,6334241,164,748.0,908.4,3006,likertHorizontal
18,2,continuous,8,16,trial,6332196.0,6334198.0,2002.0,58,R,6334265,6334401,138,618.1,957.7,3016,NA
18,2,continuous,9,85,fixationCross,6335297.0,6336597.0,1300.0,59,R,6334683,6334997,316,1130.4,595.4,3295,NA
18,2,continuous,9,85,fixationCross,6335297.0,6336597.0,1300.0,59,R,6335021,6335189,170,1003.1,541.1,3433,NA
18,2,continuous,9,85,trial,6335297.0,6336597.0,1300.0,59,R,6335397,6335629,234,773.6,471.2,3230,NA
18,2,continuous,9,85,trial,6335297.0,6336597.0,1300.0,59,R,6335677,6335885,210,448.8,522.4,3174,left
18,2,continuous,9,85,trial,6335297.0,6336597.0,1300.0,59,R,6335963,6336267,306,1466.8,567.3,2912,right
18,2,continuous,9,85,trial,6335297.0,6336597.0,1300.0,59,R,6336287,6336443,158,1559.6,562.2,2740,right
18,2,continuous,9,85,trial,6335297.0,6336597.0,1300.0,59,R,6336469,6336797,330,1421.2,515.1,2672,right
18,2,continuous,10,92,fixationCross,6337797.0,6338598.0,801.0,60,R,6337205,6337499,296,1112.2,515.9,2888,NA
18,2,continuous,10,92,trial,6337797.0,6338598.0,801.0,60,R,6337519,6337877,360,1003.1,514.5,3041,NA
18,2,continuous,10,92,trial,6337797.0,6338598.0,801.0,60,R,6337895,6338041,148,945.8,518.3,2972,NA
18,2,continuous,10,92,trial,6337797.0,6338598.0,801.0,60,R,6338095,6338337,244,1401.3,557.0,2929,right
18,2,continuous,10,92,trial,6337797.0,6338598.0,801.0,60,R,6338353,6338743,392,1362.4,587.2,2908,right
18,2,continuous,11,84,fixationCross,6339731.0,6340997.0,1266.0,61,R,6339047,6339427,382,1082.4,553.3,3323,NA
18,2,continuous,11,84,trial,6339731.0,6340997.0,1266.0,61,R,6339447,6339937,492,1027.2,477.1,3507,NA
18,2,continuous,11,84,trial,6339731.0,6340997.0,1266.0,61,R,6339985,6340119,136,1357.5,516.8,3474,right
18,2,continuous,11,84,trial,6339731.0,6340997.0,1266.0,61,R,6340193,6340431,240,526.4,544.2,3359,left
18,2,continuous,11,84,trial,6339731.0,6340997.0,1266.0,61,R,6340503,6340919,418,1363.2,596.4,3237,right
18,2,continuous,11,84,trial,6339731.0,6340997.0,1266.0,61,R,6340941,6341091,152,1496.3,625.1,3191,right
18,2,continuous,12,3,fixationCross,6344014.0,6345147.0,1133.0,62,R,6341415,6341557,144,1170.2,494.0,3434,NA
18,2,continuous,12,3,fixationCross,6344014.0,6345147.0,1133.0,62,R,6341837,6342031,196,1175.4,482.5,3860,NA
18,2,continuous,12,3,fixationCross,6344014.0,6345147.0,1133.0,62,R,6342051,6342353,304,1068.2,486.9,3983,NA
18,2,continuous,12,3,fixationCross,6344014.0,6345147.0,1133.0,62,R,6342605,6344007,1404,1015.7,441.8,3740,NA
18,2,continuous,12,3,trial,6344014.0,6345147.0,1133.0,62,R,6344021,6344245,226,971.4,505.1,3668,NA
18,2,continuous,12,3,trial,6344014.0,6345147.0,1133.0,62,R,6344303,6344449,148,1389.9,523.0,3764,right
18,2,continuous,12,3,trial,6344014.0,6345147.0,1133.0,62,R,6344517,6345339,824,597.8,522.0,3339,left
18,2,continuous,13,100,fixationCross,6346964.0,6348747.0,1783.0,63,R,6345659,6345813,156,1348.3,406.6,3533,right
18,2,continuous,13,100,fixationCross,6346964.0,6348747.0,1783.0,63,R,6345837,6345989,154,1446.8,428.8,3677,right
18,2,continuous,13,100,fixationCross,6346964.0,6348747.0,1783.0,63,R,6346097,6346255,160,2535.6,606.5,3471,NA
18,2,continuous,13,100,fixationCross,6346964.0,6348747.0,1783.0,63,R,6346421,6346599,180,1168.5,421.3,3514,NA
18,2,continuous,13,100,fixationCross,6346964.0,6348747.0,1783.0,63,R,6346625,6346957,334,1022.7,470.9,3525,NA
18,2,continuous,13,100,trial,6346964.0,6348747.0,1783.0,63,R,6347163,6347319,158,1038.5,439.9,3850,NA
18,2,continuous,13,100,trial,6346964.0,6348747.0,1783.0,63,R,6347369,6347539,172,1435.8,517.1,3949,right
18,2,continuous,13,100,trial,6346964.0,6348747.0,1783.0,63,R,6347555,6347659,106,1491.8,534.7,3943,right
18,2,continuous,13,100,trial,6346964.0,6348747.0,1783.0,63,R,6347729,6347879,152,596.7,490.1,3771,left
18,2,continuous,13,100,trial,6346964.0,6348747.0,1783.0,63,R,6347899,6348323,426,510.1,522.0,3544,left
18,2,continuous,13,100,trial,6346964.0,6348747.0,1783.0,63,R,6348405,6348561,158,1479.4,506.9,3381,right
18,2,continuous,13,100,trial,6346964.0,6348747.0,1783.0,63,R,6348575,6348941,368,1448.0,467.1,3303,right
18,2,continuous,14,8,fixationCross,6349630.0,6350714.0,1084.0,64,R,6349249,6349571,324,960.3,445.0,3446,NA
18,2,continuous,14,8,fixationCross,6349630.0,6350714.0,1084.0,64,R,6349589,6349629,42,1012.6,488.9,3652,NA
18,2,continuous,14,8,trial,6349630.0,6350714.0,1084.0,64,R,6349855,6350029,176,1010.3,456.4,3613,NA
18,2,continuous,14,8,trial,6349630.0,6350714.0,1084.0,64,R,6350075,6350227,154,1384.1,516.4,3591,right
18,2,continuous,14,8,trial,6349630.0,6350714.0,1084.0,64,R,6350309,6350497,190,463.0,505.9,3434,left
18,2,continuous,14,8,trial,6349630.0,6350714.0,1084.0,64,R,6350577,6350889,314,1423.5,508.4,3124,right
18,2,continuous,15,100,fixationCross,6351914.0,6353031.0,1117.0,65,R,6351163,6351321,160,1298.2,454.8,3117,right
18,2,continuous,15,100,fixationCross,6351914.0,6353031.0,1117.0,65,R,6351337,6351587,252,1146.0,444.1,3285,NA
18,2,continuous,15,100,trial,6351914.0,6353031.0,1117.0,65,R,6351609,6352139,532,1047.6,477.2,3294,NA
18,2,continuous,15,100,trial,6351914.0,6353031.0,1117.0,65,R,6352191,6352395,206,609.3,525.3,3191,left
18,2,continuous,15,100,trial,6351914.0,6353031.0,1117.0,65,R,6352467,6353201,736,1374.4,580.7,2942,right
18,2,continuous,16,81,fixationCross,6354114.0,6354981.0,867.0,66,R,6353473,6353809,338,1091.5,482.9,3400,NA
18,2,continuous,16,81,trial,6354114.0,6354981.0,867.0,66,R,6353827,6354301,476,1012.8,488.5,3533,NA
18,2,continuous,16,81,trial,6354114.0,6354981.0,867.0,66,R,6354349,6354983,636,1420.2,491.3,3203,right
18,2,continuous,16,81,trial,6354114.0,6354981.0,867.0,66,R,6355057,6355207,152,567.4,475.5,2956,left
18,2,continuous,17,79,fixationCross,6355930.0,6356797.0,867.0,67,R,6355445,6355607,164,1142.9,462.7,2985,NA
18,2,continuous,17,79,trial,6355930.0,6356797.0,867.0,67,R,6355625,6356119,496,995.4,461.0,3160,NA
18,2,continuous,17,79,trial,6355930.0,6356797.0,867.0,67,R,6356169,6356525,358,587.2,478.4,3272,left
18,2,continuous,17,79,trial,6355930.0,6356797.0,867.0,67,R,6356607,6356969,364,1398.5,503.8,3159,right
18,2,continuous,18,86,fixationCross,6358431.0,6359364.0,933.0,68,R,6357229,6357343,116,1488.2,432.3,3315,right
18,2,continuous,18,86,fixationCross,6358431.0,6359364.0,933.0,68,R,6357595,6357907,314,1018.2,411.9,3717,NA
18,2,continuous,18,86,fixationCross,6358431.0,6359364.0,933.0,68,R,6357923,6358171,250,1073.1,444.0,3820,NA
18,2,continuous,18,86,trial,6358431.0,6359364.0,933.0,68,R,6358195,6358607,414,943.2,456.7,3542,NA
18,2,continuous,18,86,trial,6358431.0,6359364.0,933.0,68,R,6358655,6358845,192,1381.2,477.6,3406,right
18,2,continuous,18,86,trial,6358431.0,6359364.0,933.0,68,R,6358857,6359509,654,1430.1,476.4,3123,right
18,2,continuous,19,81,fixationCross,6360497.0,6361897.0,1400.0,69,R,6359931,6360379,450,859.3,441.9,3151,NA
18,2,continuous,19,81,trial,6360497.0,6361897.0,1400.0,69,R,6360697,6360847,152,995.1,392.7,2979,NA
18,2,continuous,19,81,trial,6360497.0,6361897.0,1400.0,69,R,6360915,6361055,142,559.3,471.1,3014,left
18,2,continuous,19,81,trial,6360497.0,6361897.0,1400.0,69,R,6361071,6361213,144,479.3,461.1,2997,left
18,2,continuous,19,81,trial,6360497.0,6361897.0,1400.0,69,R,6361223,6361347,126,468.0,441.8,2937,left
18,2,continuous,19,81,trial,6360497.0,6361897.0,1400.0,69,R,6361417,6362083,668,1439.1,421.4,2871,right
18,2,continuous,20,81,fixationCross,6363297.0,6366948.0,3651.0,70,R,6362471,6362727,258,1253.9,374.9,3358,right
18,2,continuous,20,81,fixationCross,6363297.0,6366948.0,3651.0,70,R,6362753,6362877,126,1050.4,457.0,3633,NA
18,2,continuous,20,81,trial,6363297.0,6366948.0,3651.0,70,R,6363109,6363459,352,1003.9,460.6,3575,NA
18,2,continuous,20,81,trial,6363297.0,6366948.0,3651.0,70,R,6363507,6363735,230,1413.1,528.9,3742,right
18,2,continuous,20,81,trial,6363297.0,6366948.0,3651.0,70,R,6363749,6363981,234,1462.2,532.8,3593,right
18,2,continuous,20,81,trial,6363297.0,6366948.0,3651.0,70,R,6364047,6364251,206,656.0,503.4,3488,left
18,2,continuous,20,81,trial,6363297.0,6366948.0,3651.0,70,R,6364319,6364751,434,1467.1,536.1,3508,right
18,2,continuous,20,81,trial,6363297.0,6366948.0,3651.0,70,R,6364975,6365649,676,1473.0,517.5,4064,right
18,2,continuous,20,81,trial,6363297.0,6366948.0,3651.0,70,R,6365893,6366219,328,1471.7,479.5,4239,right
18,2,continuous,20,81,trial,6363297.0,6366948.0,3651.0,70,R,6366237,6366487,252,1462.3,533.1,4342,right
18,2,continuous,20,81,trial,6363297.0,6366948.0,3651.0,70,R,6366559,6366803,246,595.1,496.0,4128,left
18,2,continuous,20,81,trial,6363297.0,6366948.0,3651.0,70,R,6366877,6367121,246,1490.2,553.6,3738,right
18,2,continuous,21,11,fixationCross,6368014.0,6369214.0,1200.0,71,R,6367373,6367695,324,1451.4,422.0,3642,right
18,2,continuous,21,11,fixationCross,6368014.0,6369214.0,1200.0,71,R,6367747,6367889,144,950.1,499.4,3920,NA
18,2,continuous,21,11,trial,6368014.0,6369214.0,1200.0,71,R,6367903,6368223,322,958.7,525.1,3859,NA
18,2,continuous,21,11,trial,6368014.0,6369214.0,1200.0,71,R,6368281,6368549,270,1483.0,539.5,3844,right
18,2,continuous,21,11,trial,6368014.0,6369214.0,1200.0,71,R,6368635,6368875,242,533.8,555.7,3757,left
18,2,continuous,21,11,trial,6368014.0,6369214.0,1200.0,71,R,6368889,6369415,528,478.4,564.7,3508,left
18,2,continuous,22,9,fixationCross,6371448.0,6372931.0,1483.0,72,R,6369671,6369899,230,576.1,476.2,3355,left
18,2,continuous,22,9,fixationCross,6371448.0,6372931.0,1483.0,72,R,6369969,6370489,522,1197.1,523.2,3429,right
18,2,continuous,22,9,fixationCross,6371448.0,6372931.0,1483.0,72,R,6370511,6370909,400,1289.1,475.7,3301,right
18,2,continuous,22,9,fixationCross,6371448.0,6372931.0,1483.0,72,R,6370931,6371121,192,1388.0,467.6,3329,right
18,2,continuous,22,9,trial,6371448.0,6372931.0,1483.0,72,R,6371143,6371651,510,1012.8,497.6,3379,NA
18,2,continuous,22,9,trial,6371448.0,6372931.0,1483.0,72,R,6371705,6371883,180,1398.2,536.9,3364,right
18,2,continuous,22,9,trial,6371448.0,6372931.0,1483.0,72,R,6371901,6372495,596,1310.0,551.8,3073,right
18,2,continuous,22,9,trial,6371448.0,6372931.0,1483.0,72,R,6372569,6372805,238,448.9,546.8,2907,left
18,2,continuous,22,9,trial,6371448.0,6372931.0,1483.0,72,R,6372819,6373115,298,499.4,600.7,2929,left
18,2,continuous,23,91,fixationCross,6374148.0,6375314.0,1166.0,73,R,6373433,6373567,136,586.2,514.9,3129,left
18,2,continuous,23,91,fixationCross,6374148.0,6375314.0,1166.0,73,R,6373875,6374071,198,909.6,470.2,3472,NA
18,2,continuous,23,91,trial,6374148.0,6375314.0,1166.0,73,R,6374089,6374383,296,969.8,499.8,3501,NA
18,2,continuous,23,91,trial,6374148.0,6375314.0,1166.0,73,R,6374433,6374659,228,483.7,487.6,3285,left
18,2,continuous,23,91,trial,6374148.0,6375314.0,1166.0,73,R,6374731,6375067,338,1422.5,504.4,3165,right
18,2,continuous,23,91,trial,6374148.0,6375314.0,1166.0,73,R,6375083,6375469,388,1462.3,532.4,3241,right
18,2,continuous,24,9,fixationCross,6376448.0,6377564.0,1116.0,74,R,6375817,6375923,108,722.7,451.7,3492,left
18,2,continuous,24,9,fixationCross,6376448.0,6377564.0,1116.0,74,R,6375941,6376139,200,799.3,480.0,3593,NA
18,2,continuous,24,9,trial,6376448.0,6377564.0,1116.0,74,R,6376163,6376675,514,944.5,490.4,3515,NA
18,2,continuous,24,9,trial,6376448.0,6377564.0,1116.0,74,R,6376731,6376937,208,1457.0,573.1,3229,right
18,2,continuous,24,9,trial,6376448.0,6377564.0,1116.0,74,R,6377003,6377245,244,635.8,488.6,3048,left
18,2,continuous,24,9,trial,6376448.0,6377564.0,1116.0,74,R,6377267,6377523,258,535.4,524.9,2912,left
18,2,continuous,24,9,trial,6376448.0,6377564.0,1116.0,74,R,6377535,6377749,216,519.0,561.2,2855,left
18,2,continuous,25,14,fixationCross,6378681.0,6380897.0,2216.0,75,R,6378191,6378357,168,725.4,419.8,3003,left
18,2,continuous,25,14,fixationCross,6378681.0,6380897.0,2216.0,75,R,6378381,6378591,212,916.0,465.1,3127,NA
18,2,continuous,25,14,trial,6378681.0,6380897.0,2216.0,75,R,6378609,6378827,220,1027.7,496.6,3155,NA
18,2,continuous,25,14,trial,6378681.0,6380897.0,2216.0,75,R,6378879,6379301,424,1446.7,556.1,2990,right
18,2,continuous,25,14,trial,6378681.0,6380897.0,2216.0,75,R,6379373,6379853,482,524.1,541.9,2790,left
18,2,continuous,25,14,trial,6378681.0,6380897.0,2216.0,75,R,6379903,6380221,320,785.7,951.8,2658,likertHorizontal
18,2,continuous,25,14,trial,6378681.0,6380897.0,2216.0,75,R,6380243,6380405,164,921.0,965.8,2747,likertHorizontal
18,2,continuous,25,14,trial,6378681.0,6380897.0,2216.0,75,R,6380443,6380749,308,645.3,975.7,2999,NA
18,2,continuous,25,14,trial,6378681.0,6380897.0,2216.0,75,R,6380769,6380927,160,538.9,996.4,3145,NA
18,2,continuous,25,14,postResponse,6378681.0,6380897.0,2216.0,75,R,6381147,6381227,82,770.8,690.4,3250,NA
18,2,continuous,26,87,fixationCross,6408448.0,6410382.0,1934.0,76,R,6407727,6407763,38,544.3,197.8,3437,NA
18,2,continuous,26,87,fixationCross,6408448.0,6410382.0,1934.0,76,R,6407785,6407897,114,670.7,205.2,3406,NA
18,2,continuous,26,87,fixationCross,6408448.0,6410382.0,1934.0,76,R,6407949,6408131,184,969.1,374.0,3289,NA
18,2,continuous,26,87,fixationCross,6408448.0,6410382.0,1934.0,76,R,6408159,6408313,156,994.3,513.0,3242,NA
18,2,continuous,26,87,trial,6408448.0,6410382.0,1934.0,76,R,6408323,6408665,344,963.6,544.7,3337,NA
18,2,continuous,26,87,trial,6408448.0,6410382.0,1934.0,76,R,6408705,6408875,172,1319.0,568.9,3540,right
18,2,continuous,26,87,trial,6408448.0,6410382.0,1934.0,76,R,6408893,6409155,264,1398.9,552.3,3474,right
18,2,continuous,26,87,trial,6408448.0,6410382.0,1934.0,76,R,6409231,6409439,210,438.3,506.0,3406,left
18,2,continuous,26,87,trial,6408448.0,6410382.0,1934.0,76,R,6409563,6409847,286,495.8,493.9,3351,left
18,2,continuous,26,87,trial,6408448.0,6410382.0,1934.0,76,R,6409927,6410199,274,1547.3,511.9,3489,right
18,2,continuous,26,87,trial,6408448.0,6410382.0,1934.0,76,R,6410219,6410529,312,1453.0,537.9,3548,right
18,2,continuous,27,10,fixationCross,6411698.0,6412431.0,733.0,77,R,6410789,6411399,612,899.9,456.3,4046,NA
18,2,continuous,27,10,trial,6411698.0,6412431.0,733.0,77,R,6411409,6411859,452,942.4,465.5,3902,NA
18,2,continuous,27,10,trial,6411698.0,6412431.0,733.0,77,R,6411907,6412255,350,520.4,478.5,3793,left
18,2,continuous,27,10,trial,6411698.0,6412431.0,733.0,77,R,6412339,6412597,260,1513.3,533.9,3488,right
18,2,continuous,28,78,fixationCross,6413565.0,6414298.0,733.0,78,R,6412951,6413255,306,1093.3,631.4,3425,NA
18,2,continuous,28,78,trial,6413565.0,6414298.0,733.0,78,R,6413275,6413901,628,1128.7,635.1,3440,NA
18,2,continuous,28,78,trial,6413565.0,6414298.0,733.0,78,R,6413927,6414393,468,1365.8,575.3,3288,right
18,2,continuous,29,95,fixationCross,6417181.0,6418231.0,1050.0,79,R,6414919,6416143,1226,1090.5,406.4,3138,NA
18,2,continuous,29,95,fixationCross,6417181.0,6418231.0,1050.0,79,R,6416367,6416625,260,1302.8,481.0,3147,right
18,2,continuous,29,95,trial,6417181.0,6418231.0,1050.0,79,R,6416875,6417429,556,980.0,515.2,3056,NA
18,2,continuous,29,95,trial,6417181.0,6418231.0,1050.0,79,R,6417475,6417827,354,427.2,492.7,2896,left
18,2,continuous,29,95,trial,6417181.0,6418231.0,1050.0,79,R,6417915,6418119,206,1492.0,429.1,2654,right
18,2,continuous,29,95,trial,6417181.0,6418231.0,1050.0,79,R,6418139,6418417,280,1516.3,517.4,2613,right
18,2,continuous,30,97,fixationCross,6421048.0,6422381.0,1333.0,80,R,6419395,6419489,96,946.8,308.9,3246,NA
18,2,continuous,30,97,fixationCross,6421048.0,6422381.0,1333.0,80,R,6419509,6419575,68,1061.3,373.0,3293,NA
18,2,continuous,30,97,fixationCross,6421048.0,6422381.0,1333.0,80,R,6419593,6419781,190,1101.4,439.5,3276,NA
18,2,continuous,30,97,fixationCross,6421048.0,6422381.0,1333.0,80,R,6420103,6420361,260,1092.8,356.9,2934,NA
18,2,continuous,30,97,trial,6421048.0,6422381.0,1333.0,80,R,6420375,6421097,724,1020.7,453.1,3003,NA
18,2,continuous,30,97,trial,6421048.0,6422381.0,1333.0,80,R,6421107,6421251,146,996.9,474.7,3015,NA
18,2,continuous,30,97,trial,6421048.0,6422381.0,1333.0,80,R,6421313,6421445,134,451.0,464.1,3108,left
18,2,continuous,30,97,trial,6421048.0,6422381.0,1333.0,80,R,6421459,6421573,116,456.4,449.6,3146,left
18,2,continuous,30,97,trial,6421048.0,6422381.0,1333.0,80,R,6421591,6421687,98,537.1,450.5,3145,left
18,2,continuous,30,97,trial,6421048.0,6422381.0,1333.0,80,R,6421761,6422015,256,1389.2,470.8,3111,right
18,2,continuous,30,97,trial,6421048.0,6422381.0,1333.0,80,R,6422039,6422285,248,1450.4,597.2,3200,right
18,2,continuous,30,97,trial,6421048.0,6422381.0,1333.0,80,R,6422335,6422469,136,1305.9,900.9,3439,NA
18,2,continuous,30,97,trial,6421048.0,6422381.0,1333.0,80,R,6422487,6422545,60,1366.6,938.4,3535,NA
18,2,continuous,31,94,trial,6423264.0,6424398.0,1134.0,81,R,6422867,6423457,592,980.9,470.1,4006,NA
18,2,continuous,31,94,trial,6423264.0,6424398.0,1134.0,81,R,6423503,6423673,172,635.6,517.7,3887,left
18,2,continuous,31,94,trial,6423264.0,6424398.0,1134.0,81,R,6423691,6423839,150,540.8,518.7,3718,left
18,2,continuous,31,94,trial,6423264.0,6424398.0,1134.0,81,R,6423909,6424117,210,1229.1,538.4,3425,right
18,2,continuous,31,94,trial,6423264.0,6424398.0,1134.0,81,R,6424133,6424451,320,1289.2,510.1,3304,right
18,2,continuous,31,94,trial,6423264.0,6424398.0,1134.0,81,R,6424513,6424569,58,1391.9,940.8,3359,NA
18,2,continuous,32,5,fixationCross,6425582.0,6426731.0,1149.0,82,R,6424893,6425265,374,956.4,771.9,3815,likertHorizontal
18,2,continuous,32,5,trial,6425582.0,6426731.0,1149.0,82,R,6425311,6425591,282,944.8,519.1,3822,NA
18,2,continuous,32,5,trial,6425582.0,6426731.0,1149.0,82,R,6425833,6425953,122,998.7,381.0,3508,NA
18,2,continuous,32,5,trial,6425582.0,6426731.0,1149.0,82,R,6426007,6426329,324,519.7,488.5,3522,left
18,2,continuous,32,5,trial,6425582.0,6426731.0,1149.0,82,R,6426345,6426609,266,474.1,525.6,3344,left
18,2,continuous,32,5,trial,6425582.0,6426731.0,1149.0,82,R,6426637,6426935,300,449.6,663.6,3152,left
18,2,continuous,33,6,fixationCross,6429465.0,6430365.0,900.0,83,R,6427333,6427437,106,759.9,374.6,3154,NA
18,2,continuous,33,6,fixationCross,6429465.0,6430365.0,900.0,83,R,6427965,6428093,130,1262.9,358.1,3367,right
18,2,continuous,33,6,fixationCross,6429465.0,6430365.0,900.0,83,R,6428113,6428245,134,1132.7,398.2,3429,NA
18,2,continuous,33,6,trial,6429465.0,6430365.0,900.0,83,R,6428583,6429507,926,998.0,433.2,3145,NA
18,2,continuous,33,6,trial,6429465.0,6430365.0,900.0,83,R,6429525,6429661,138,1028.0,482.5,3143,NA
18,2,continuous,33,6,trial,6429465.0,6430365.0,900.0,83,R,6429709,6429901,194,1423.4,552.2,3173,right
18,2,continuous,33,6,trial,6429465.0,6430365.0,900.0,83,R,6429971,6430169,200,538.8,523.1,3215,left
18,2,continuous,33,6,trial,6429465.0,6430365.0,900.0,83,R,6430189,6430411,224,478.5,560.7,3134,left
18,2,continuous,33,6,trial,6429465.0,6430365.0,900.0,83,R,6430459,6430597,140,551.4,996.5,3038,NA
18,2,continuous,34,81,fixationCross,6432015.0,6433298.0,1283.0,84,R,6430995,6431509,516,975.7,415.7,3532,NA
18,2,continuous,34,81,trial,6432015.0,6433298.0,1283.0,84,R,6431785,6432255,472,964.6,476.2,3350,NA
18,2,continuous,34,81,trial,6432015.0,6433298.0,1283.0,84,R,6432305,6432549,246,1332.7,548.5,3294,right
18,2,continuous,34,81,trial,6432015.0,6433298.0,1283.0,84,R,6432565,6432955,392,1422.3,551.5,3122,right
18,2,continuous,34,81,trial,6432015.0,6433298.0,1283.0,84,R,6433173,6433351,180,1222.7,907.0,3193,NA
18,2,continuous,34,81,trial,6432015.0,6433298.0,1283.0,84,R,6433365,6433479,116,1267.8,933.9,3331,NA
18,2,continuous,35,19,fixationCross,6434865.0,6435831.0,966.0,85,R,6434003,6434171,170,1110.6,390.3,3747,NA
18,2,continuous,35,19,fixationCross,6434865.0,6435831.0,966.0,85,R,6434189,6434757,570,1018.2,454.3,3655,NA
18,2,continuous,35,19,trial,6434865.0,6435831.0,966.0,85,R,6434995,6435233,240,998.1,436.6,3364,NA
18,2,continuous,35,19,trial,6434865.0,6435831.0,966.0,85,R,6435285,6435425,142,1392.9,506.9,3422,right
18,2,continuous,35,19,trial,6434865.0,6435831.0,966.0,85,R,6435447,6435551,106,1329.7,428.7,3390,right
18,2,continuous,35,19,trial,6434865.0,6435831.0,966.0,85,R,6435617,6436005,390,527.1,514.4,3351,left
18,2,continuous,36,88,fixationCross,6436815.0,6438332.0,1517.0,86,R,6436277,6436489,214,813.7,403.0,3189,NA
18,2,continuous,36,88,trial,6436815.0,6438332.0,1517.0,86,R,6436511,6437057,548,940.6,456.1,3457,NA
18,2,continuous,36,88,trial,6436815.0,6438332.0,1517.0,86,R,6437103,6437279,178,1333.9,508.4,3329,right
18,2,continuous,36,88,trial,6436815.0,6438332.0,1517.0,86,R,6437339,6437481,144,621.8,477.2,3320,left
18,2,continuous,36,88,trial,6436815.0,6438332.0,1517.0,86,R,6437507,6437813,308,461.8,563.9,3192,left
18,2,continuous,36,88,trial,6436815.0,6438332.0,1517.0,86,R,6437891,6438489,600,1350.6,547.1,3033,right
18,2,continuous,37,92,fixationCross,6440632.0,6441665.0,1033.0,87,R,6438941,6439033,94,1018.1,416.1,3312,NA
18,2,continuous,37,92,fixationCross,6440632.0,6441665.0,1033.0,87,R,6439509,6439745,238,1080.6,345.1,3507,NA
18,2,continuous,37,92,fixationCross,6440632.0,6441665.0,1033.0,87,R,6439757,6439869,114,1001.8,404.2,3487,NA
18,2,continuous,37,92,trial,6440632.0,6441665.0,1033.0,87,R,6440191,6440843,654,906.8,449.1,3138,NA
18,2,continuous,37,92,trial,6440632.0,6441665.0,1033.0,87,R,6440893,6441133,242,553.5,556.7,3118,left
18,2,continuous,37,92,trial,6440632.0,6441665.0,1033.0,87,R,6441211,6441837,628,1382.3,585.7,2742,right
18,2,continuous,38,89,fixationCross,6444599.0,6445615.0,1016.0,88,R,6442195,6442379,186,1145.4,367.8,3233,NA
18,2,continuous,38,89,fixationCross,6444599.0,6445615.0,1016.0,88,R,6442389,6442635,248,1036.8,401.7,3459,NA
18,2,continuous,38,89,fixationCross,6444599.0,6445615.0,1016.0,88,R,6443147,6443899,754,926.6,399.2,3273,NA
18,2,continuous,38,89,fixationCross,6444599.0,6445615.0,1016.0,88,R,6444301,6444447,148,985.9,304.5,3038,NA
18,2,continuous,38,89,trial,6444599.0,6445615.0,1016.0,88,R,6444469,6444783,316,1005.2,475.3,3242,NA
18,2,continuous,38,89,trial,6444599.0,6445615.0,1016.0,88,R,6444827,6445105,280,640.1,570.1,3365,left
18,2,continuous,38,89,trial,6444599.0,6445615.0,1016.0,88,R,6445171,6445461,292,1331.1,542.8,3135,right
18,2,continuous,38,89,trial,6444599.0,6445615.0,1016.0,88,R,6445477,6445761,286,1379.5,561.3,3189,right
18,2,continuous,39,13,fixationCross,6447231.0,6448998.0,1767.0,89,R,6446245,6446935,692,1052.9,434.2,3867,NA
18,2,continuous,39,13,trial,6447231.0,6448998.0,1767.0,89,R,6446951,6447427,478,958.6,459.1,3623,NA
18,2,continuous,39,13,trial,6447231.0,6448998.0,1767.0,89,R,6447469,6447773,306,1331.1,478.6,3555,right
18,2,continuous,39,13,trial,6447231.0,6448998.0,1767.0,89,R,6447845,6448031,188,541.4,520.8,3415,left
18,2,continuous,39,13,trial,6447231.0,6448998.0,1767.0,89,R,6448041,6448253,214,510.8,545.9,3261,left
18,2,continuous,39,13,trial,6447231.0,6448998.0,1767.0,89,R,6448331,6448463,134,1420.4,505.0,3055,right
18,2,continuous,39,13,trial,6447231.0,6448998.0,1767.0,89,R,6448551,6449167,618,469.8,608.7,3113,left
18,2,continuous,40,4,fixationCross,6451831.0,6453482.0,1651.0,90,R,6449605,6449717,114,1041.1,352.9,3445,NA
18,2,continuous,40,4,fixationCross,6451831.0,6453482.0,1651.0,90,R,6450139,6451041,904,1056.1,417.9,3427,NA
18,2,continuous,40,4,fixationCross,6451831.0,6453482.0,1651.0,90,R,6451257,6451651,396,1047.2,410.3,3161,NA
18,2,continuous,40,4,trial,6451831.0,6453482.0,1651.0,90,R,6451885,6452097,214,1032.5,426.5,3182,NA
18,2,continuous,40,4,trial,6451831.0,6453482.0,1651.0,90,R,6452143,6452481,340,496.3,554.6,3200,left
18,2,continuous,40,4,trial,6451831.0,6453482.0,1651.0,90,R,6452563,6452721,160,1128.2,532.6,2888,NA
18,2,continuous,40,4,trial,6451831.0,6453482.0,1651.0,90,R,6452749,6452913,166,1306.8,535.2,2817,right
18,2,continuous,40,4,trial,6451831.0,6453482.0,1651.0,90,R,6452975,6453291,318,584.7,548.4,3000,left
18,2,continuous,40,4,trial,6451831.0,6453482.0,1651.0,90,R,6453365,6453639,276,1395.5,535.3,2963,right
18,2,continuous,41,93,fixationCross,6455299.0,6456698.0,1399.0,91,R,6454041,6454189,150,816.8,401.3,3270,NA
18,2,continuous,41,93,fixationCross,6455299.0,6456698.0,1399.0,91,R,6454535,6454933,400,1043.2,442.4,3431,NA
18,2,continuous,41,93,trial,6455299.0,6456698.0,1399.0,91,R,6455167,6455547,382,998.7,499.5,3128,NA
18,2,continuous,41,93,trial,6455299.0,6456698.0,1399.0,91,R,6455603,6455809,208,491.5,572.8,3151,left
18,2,continuous,41,93,trial,6455299.0,6456698.0,1399.0,91,R,6455829,6455949,122,469.9,526.7,3059,left
18,2,continuous,41,93,trial,6455299.0,6456698.0,1399.0,91,R,6456019,6456243,226,1334.1,475.1,2983,right
18,2,continuous,41,93,trial,6455299.0,6456698.0,1399.0,91,R,6456263,6456865,604,1466.8,505.2,3010,right
18,2,continuous,42,10,fixationCross,6458315.0,6459965.0,1650.0,92,R,6457193,6457645,454,1000.3,385.2,3456,NA
18,2,continuous,42,10,fixationCross,6458315.0,6459965.0,1650.0,92,R,6457869,6458069,202,839.9,452.2,3433,NA
18,2,continuous,42,10,trial,6458315.0,6459965.0,1650.0,92,R,6458091,6458511,422,955.7,485.7,3444,NA
18,2,continuous,42,10,trial,6458315.0,6459965.0,1650.0,92,R,6458561,6458953,394,1412.2,497.2,3373,right
18,2,continuous,42,10,trial,6458315.0,6459965.0,1650.0,92,R,6459027,6459389,364,548.2,503.3,3273,left
18,2,continuous,42,10,trial,6458315.0,6459965.0,1650.0,92,R,6459403,6459687,286,520.6,563.7,3176,left
18,2,continuous,42,10,trial,6458315.0,6459965.0,1650.0,92,R,6459737,6459873,138,549.9,1026.9,3131,NA
18,2,continuous,42,10,trial,6458315.0,6459965.0,1650.0,92,R,6459887,6460027,142,537.6,1005.0,3208,NA
18,2,continuous,42,10,trial,6458315.0,6459965.0,1650.0,92,R,6460075,6460173,100,525.8,647.3,3333,left
18,2,continuous,43,100,fixationCross,6462682.0,6463899.0,1217.0,93,R,6460415,6460689,276,1353.0,300.7,3517,NA
18,2,continuous,43,100,fixationCross,6462682.0,6463899.0,1217.0,93,R,6460729,6461127,400,1072.4,366.6,3814,NA
18,2,continuous,43,100,fixationCross,6462682.0,6463899.0,1217.0,93,R,6461147,6462089,944,1007.3,397.7,3834,NA
18,2,continuous,43,100,fixationCross,6462682.0,6463899.0,1217.0,93,R,6462275,6462487,214,1008.8,384.1,4015,NA
18,2,continuous,43,100,trial,6462682.0,6463899.0,1217.0,93,R,6462513,6462731,220,968.1,502.9,4205,NA
18,2,continuous,43,100,trial,6462682.0,6463899.0,1217.0,93,R,6462903,6462961,60,895.2,463.1,4306,NA
18,2,continuous,43,100,trial,6462682.0,6463899.0,1217.0,93,R,6463003,6463219,218,521.7,487.2,4232,left
18,2,continuous,43,100,trial,6462682.0,6463899.0,1217.0,93,R,6463291,6463535,246,1353.2,490.4,3876,right
18,2,continuous,43,100,trial,6462682.0,6463899.0,1217.0,93,R,6463557,6463725,170,1439.3,567.2,3564,right
18,2,continuous,43,100,trial,6462682.0,6463899.0,1217.0,93,R,6463769,6464077,310,1424.3,982.3,3390,NA
18,2,continuous,44,83,fixationCross,6466499.0,6467815.0,1316.0,94,R,6464345,6465057,714,1068.7,405.3,3732,NA
18,2,continuous,44,83,fixationCross,6466499.0,6467815.0,1316.0,94,R,6465075,6465797,724,968.6,405.5,3622,NA
18,2,continuous,44,83,fixationCross,6466499.0,6467815.0,1316.0,94,R,6466083,6466297,216,954.3,405.3,3637,NA
18,2,continuous,44,83,trial,6466499.0,6467815.0,1316.0,94,R,6466313,6466561,250,1003.3,469.0,3690,NA
18,2,continuous,44,83,trial,6466499.0,6467815.0,1316.0,94,R,6466785,6466967,184,547.7,486.6,3454,left
18,2,continuous,44,83,trial,6466499.0,6467815.0,1316.0,94,R,6467043,6467957,916,1419.8,545.4,3059,right
18,2,continuous,45,95,fixationCross,6470116.0,6471432.0,1316.0,95,R,6468317,6469283,968,1050.4,337.3,3262,NA
18,2,continuous,45,95,fixationCross,6470116.0,6471432.0,1316.0,95,R,6469305,6469811,508,1045.8,430.5,3410,NA
18,2,continuous,45,95,trial,6470116.0,6471432.0,1316.0,95,R,6469831,6470197,368,985.8,466.7,3611,NA
18,2,continuous,45,95,trial,6470116.0,6471432.0,1316.0,95,R,6470341,6470609,270,1325.8,495.2,3704,right
18,2,continuous,45,95,trial,6470116.0,6471432.0,1316.0,95,R,6470683,6470947,266,485.9,556.7,3540,left
18,2,continuous,45,95,trial,6470116.0,6471432.0,1316.0,95,R,6471019,6471347,330,1300.4,580.5,3165,right
18,2,continuous,45,95,trial,6470116.0,6471432.0,1316.0,95,R,6471373,6471583,212,1372.4,682.4,3098,right
18,2,continuous,46,8,fixationCross,6477549.0,6478749.0,1200.0,96,R,6471983,6472961,980,1155.4,382.1,3430,NA
18,2,continuous,46,8,fixationCross,6477549.0,6478749.0,1200.0,96,R,6472977,6473103,128,1095.3,427.8,3298,NA
18,2,continuous,46,8,fixationCross,6477549.0,6478749.0,1200.0,96,R,6473371,6473613,244,1020.6,389.0,3457,NA
18,2,continuous,46,8,fixationCross,6477549.0,6478749.0,1200.0,96,R,6473633,6473711,80,1063.1,448.4,3600,NA
18,2,continuous,46,8,fixationCross,6477549.0,6478749.0,1200.0,96,R,6474019,6474099,82,1076.0,379.5,3562,NA
18,2,continuous,46,8,fixationCross,6477549.0,6478749.0,1200.0,96,R,6474111,6474317,208,989.4,419.3,3502,NA
18,2,continuous,46,8,fixationCross,6477549.0,6478749.0,1200.0,96,R,6474623,6475127,506,1000.8,379.3,3086,NA
18,2,continuous,46,8,fixationCross,6477549.0,6478749.0,1200.0,96,R,6475461,6475717,258,1099.2,359.0,2927,NA
18,2,continuous,46,8,fixationCross,6477549.0,6478749.0,1200.0,96,R,6476047,6476265,220,1077.4,353.5,3051,NA
18,2,continuous,46,8,fixationCross,6477549.0,6478749.0,1200.0,96,R,6476287,6476427,142,1099.4,470.7,3185,NA
18,2,continuous,46,8,fixationCross,6477549.0,6478749.0,1200.0,96,R,6476523,6476649,128,1819.9,594.4,3218,NA
18,2,continuous,46,8,fixationCross,6477549.0,6478749.0,1200.0,96,R,6476941,6477073,134,1196.1,390.2,3229,right
18,2,continuous,46,8,fixationCross,6477549.0,6478749.0,1200.0,96,R,6477129,6477381,254,1535.8,549.4,3429,right
18,2,continuous,46,8,trial,6477549.0,6478749.0,1200.0,96,R,6477431,6477575,146,1069.6,545.4,3757,NA
18,2,continuous,46,8,trial,6477549.0,6478749.0,1200.0,96,R,6477595,6477773,180,978.3,548.8,3832,NA
18,2,continuous,46,8,trial,6477549.0,6478749.0,1200.0,96,R,6477821,6478069,250,1337.4,499.6,3725,right
18,2,continuous,46,8,trial,6477549.0,6478749.0,1200.0,96,R,6478143,6478373,232,495.5,516.0,3425,left
18,2,continuous,46,8,trial,6477549.0,6478749.0,1200.0,96,R,6478385,6478577,194,529.9,518.4,3318,left
18,2,continuous,46,8,trial,6477549.0,6478749.0,1200.0,96,R,6478623,6478771,150,595.4,1008.3,3249,NA
18,2,continuous,46,8,trial,6477549.0,6478749.0,1200.0,96,R,6478787,6478945,160,552.3,1001.6,3315,NA
18,2,continuous,47,97,fixationCross,6479866.0,6481182.0,1316.0,97,R,6479163,6479551,390,1476.6,616.1,3682,right
18,2,continuous,47,97,fixationCross,6479866.0,6481182.0,1316.0,97,R,6479597,6479855,260,1023.1,551.6,4000,NA
18,2,continuous,47,97,trial,6479866.0,6481182.0,1316.0,97,R,6480061,6480191,132,1072.1,482.5,3813,NA
18,2,continuous,47,97,trial,6479866.0,6481182.0,1316.0,97,R,6480225,6480373,150,1323.9,519.9,3858,right
18,2,continuous,47,97,trial,6479866.0,6481182.0,1316.0,97,R,6480387,6480505,120,1333.6,553.5,3920,right
18,2,continuous,47,97,trial,6479866.0,6481182.0,1316.0,97,R,6480569,6480869,302,564.3,529.0,3632,left
18,2,continuous,47,97,trial,6479866.0,6481182.0,1316.0,97,R,6480935,6481179,246,1315.4,576.5,3275,right
18,2,continuous,47,97,trial,6479866.0,6481182.0,1316.0,97,R,6481191,6481359,170,1352.6,576.0,3177,right
18,2,continuous,48,75,fixationCross,6482432.0,6484166.0,1734.0,98,R,6481703,6482099,398,1232.1,411.3,3544,right
18,2,continuous,48,75,fixationCross,6482432.0,6484166.0,1734.0,98,R,6482127,6482425,300,1047.2,497.9,3605,NA
18,2,continuous,48,75,trial,6482432.0,6484166.0,1734.0,98,R,6482689,6482835,148,1070.0,465.5,3440,NA
18,2,continuous,48,75,trial,6482432.0,6484166.0,1734.0,98,R,6482885,6483249,366,1492.9,559.4,3466,right
18,2,continuous,48,75,trial,6482432.0,6484166.0,1734.0,98,R,6483275,6483613,340,1525.6,729.7,3157,right
18,2,continuous,48,75,trial,6482432.0,6484166.0,1734.0,98,R,6483693,6483883,192,572.0,577.1,3040,left
18,2,continuous,48,75,trial,6482432.0,6484166.0,1734.0,98,R,6483969,6484345,378,1526.6,682.9,2963,right
18,2,continuous,49,8,fixationCross,6487299.0,6488266.0,967.0,99,R,6484895,6486043,1150,1052.2,437.1,3446,NA
18,2,continuous,49,8,fixationCross,6487299.0,6488266.0,967.0,99,R,6486057,6486801,746,1054.4,407.9,3757,NA
18,2,continuous,49,8,fixationCross,6487299.0,6488266.0,967.0,99,R,6486815,6486919,106,1020.6,467.2,3968,NA
18,2,continuous,49,8,trial,6487299.0,6488266.0,967.0,99,R,6487137,6487477,342,990.5,460.4,4013,NA
18,2,continuous,49,8,trial,6487299.0,6488266.0,967.0,99,R,6487529,6487709,182,1363.3,514.4,3902,right
18,2,continuous,49,8,trial,6487299.0,6488266.0,967.0,99,R,6487785,6488043,260,445.8,531.1,3477,left
18,2,continuous,49,8,trial,6487299.0,6488266.0,967.0,99,R,6488059,6488449,392,508.7,535.7,3160,left
18,2,continuous,50,11,fixationCross,6491199.0,6492782.0,1583.0,100,R,6489037,6489211,176,1316.5,364.4,3220,right
18,2,continuous,50,11,fixationCross,6491199.0,6492782.0,1583.0,100,R,6489783,6489897,116,1418.0,283.0,3202,NA
18,2,continuous,50,11,fixationCross,6491199.0,6492782.0,1583.0,100,R,6489913,6489983,72,1309.9,322.8,3236,NA
18,2,continuous,50,11,fixationCross,6491199.0,6492782.0,1583.0,100,R,6489999,6490505,508,1174.3,355.3,3104,NA
18,2,continuous,50,11,fixationCross,6491199.0,6492782.0,1583.0,100,R,6490517,6490893,378,1083.4,446.0,2885,NA
18,2,continuous,50,11,trial,6491199.0,6492782.0,1583.0,100,R,6490909,6491385,478,989.9,540.2,2982,NA
18,2,continuous,50,11,trial,6491199.0,6492782.0,1583.0,100,R,6491431,6491601,172,1258.3,600.2,3026,right
18,2,continuous,50,11,trial,6491199.0,6492782.0,1583.0,100,R,6491621,6492127,508,1363.2,633.4,2923,right
18,2,continuous,50,11,trial,6491199.0,6492782.0,1583.0,100,R,6492213,6492887,676,562.9,567.7,2789,left
18,3,valuation,1,4,fixationCross,6575034.0,6580150.0,5116.0,101,R,6574246,6574286,42,1077.1,615.5,3803,NA
18,3,valuation,1,4,fixationCross,6575034.0,6580150.0,5116.0,101,R,6574302,6574466,166,992.7,613.6,3825,NA
18,3,valuation,1,4,fixationCross,6575034.0,6580150.0,5116.0,101,R,6574482,6574676,196,969.0,648.7,3782,NA
18,3,valuation,1,4,fixationCross,6575034.0,6580150.0,5116.0,101,R,6574858,6574978,122,972.6,560.9,3839,NA
18,3,valuation,1,4,trial,6575034.0,6580150.0,5116.0,101,R,6575088,6575158,72,1949.7,1155.9,3606,NA
18,3,valuation,1,4,trial,6575034.0,6580150.0,5116.0,101,R,6575164,6575316,154,2018.4,1067.3,3734,NA
18,3,valuation,1,4,trial,6575034.0,6580150.0,5116.0,101,R,6575442,6575610,170,1182.7,670.4,4063,NA
18,3,valuation,1,4,trial,6575034.0,6580150.0,5116.0,101,R,6575664,6575760,98,601.8,697.3,4046,likertVertical
18,3,valuation,1,4,trial,6575034.0,6580150.0,5116.0,101,R,6575820,6576030,212,548.3,279.5,3851,likertVertical
18,3,valuation,1,4,trial,6575034.0,6580150.0,5116.0,101,R,6576058,6576198,142,489.4,436.9,3790,likertVertical
18,3,valuation,1,4,trial,6575034.0,6580150.0,5116.0,101,R,6576220,6576372,154,484.4,537.0,3677,likertVertical
18,3,valuation,1,4,trial,6575034.0,6580150.0,5116.0,101,R,6576486,6576710,226,493.1,526.8,3665,likertVertical
18,3,valuation,1,4,trial,6575034.0,6580150.0,5116.0,101,R,6576744,6576836,94,500.0,357.1,3759,likertVertical
18,3,valuation,1,4,trial,6575034.0,6580150.0,5116.0,101,R,6576906,6577154,250,1357.9,601.8,3730,right
18,3,valuation,1,4,trial,6575034.0,6580150.0,5116.0,101,R,6577172,6577494,324,1435.4,599.1,3592,right
18,3,valuation,1,4,trial,6575034.0,6580150.0,5116.0,101,R,6577646,6577984,340,519.9,372.4,3571,likertVertical
18,3,valuation,1,4,trial,6575034.0,6580150.0,5116.0,101,R,6578126,6578374,250,512.0,444.0,3743,likertVertical
18,3,valuation,1,4,trial,6575034.0,6580150.0,5116.0,101,R,6578390,6578588,200,504.0,483.8,3833,likertVertical
18,3,valuation,1,4,trial,6575034.0,6580150.0,5116.0,101,R,6578606,6578942,338,500.1,539.8,3828,likertVertical
18,3,valuation,1,4,trial,6575034.0,6580150.0,5116.0,101,R,6578958,6579270,314,497.7,500.4,3745,likertVertical
18,3,valuation,1,4,trial,6575034.0,6580150.0,5116.0,101,R,6579284,6580146,864,485.7,520.1,3741,likertVertical
18,3,valuation,1,4,trial,6575034.0,6580150.0,5116.0,101,R,6580230,6580366,138,497.3,510.1,3790,likertVertical
18,3,valuation,2,5,fixationCross,6581233.0,6583334.0,2101.0,102,R,6580604,6580814,212,977.2,434.2,3944,NA
18,3,valuation,2,5,fixationCross,6581233.0,6583334.0,2101.0,102,R,6580858,6580990,134,742.7,432.7,4088,NA
18,3,valuation,2,5,fixationCross,6581233.0,6583334.0,2101.0,102,R,6581016,6581142,128,906.9,496.9,4093,NA
18,3,valuation,2,5,trial,6581233.0,6583334.0,2101.0,102,R,6581186,6581424,240,586.8,422.4,3935,likertVertical
18,3,valuation,2,5,trial,6581233.0,6583334.0,2101.0,102,R,6581444,6581524,82,516.3,456.2,3800,likertVertical
18,3,valuation,2,5,trial,6581233.0,6583334.0,2101.0,102,R,6581608,6581782,176,1510.7,562.4,3554,right
18,3,valuation,2,5,trial,6581233.0,6583334.0,2101.0,102,R,6581802,6581974,174,1475.6,478.4,3455,right
18,3,valuation,2,5,trial,6581233.0,6583334.0,2101.0,102,R,6582002,6582246,246,1269.8,433.8,3376,right
18,3,valuation,2,5,trial,6581233.0,6583334.0,2101.0,102,R,6582272,6582408,138,1425.5,526.1,3287,right
18,3,valuation,2,5,trial,6581233.0,6583334.0,2101.0,102,R,6582438,6582846,410,1266.6,425.0,3293,right
18,3,valuation,2,5,trial,6581233.0,6583334.0,2101.0,102,R,6582920,6583488,570,481.7,466.1,3350,likertVertical
18,3,valuation,3,5,fixationCross,6584417.0,6585833.0,1416.0,103,R,6583782,6584120,340,846.3,420.1,3453,NA
18,3,valuation,3,5,fixationCross,6584417.0,6585833.0,1416.0,103,R,6584144,6584402,260,938.1,456.9,3489,NA
18,3,valuation,3,5,trial,6584417.0,6585833.0,1416.0,103,R,6584436,6584594,160,756.4,405.0,3393,NA
18,3,valuation,3,5,trial,6584417.0,6585833.0,1416.0,103,R,6584622,6584708,88,536.9,397.2,3366,likertVertical
18,3,valuation,3,5,trial,6584417.0,6585833.0,1416.0,103,R,6584738,6584924,188,577.5,230.5,3289,likertVertical
18,3,valuation,3,5,trial,6584417.0,6585833.0,1416.0,103,R,6584992,6585848,858,1430.5,517.2,3010,right
18,3,valuation,4,4,fixationCross,6588800.0,6589817.0,1017.0,104,R,6586272,6586524,254,1146.6,366.1,3066,NA
18,3,valuation,4,4,fixationCross,6588800.0,6589817.0,1017.0,104,R,6586540,6586840,302,1014.5,379.6,3147,NA
18,3,valuation,4,4,fixationCross,6588800.0,6589817.0,1017.0,104,R,6587042,6587352,312,507.8,311.1,2978,likertVertical
18,3,valuation,4,4,fixationCross,6588800.0,6589817.0,1017.0,104,R,6587378,6587418,42,632.5,340.7,3008,likertVertical
18,3,valuation,4,4,fixationCross,6588800.0,6589817.0,1017.0,104,R,6587696,6587928,234,860.7,291.1,2953,NA
18,3,valuation,4,4,fixationCross,6588800.0,6589817.0,1017.0,104,R,6587960,6588142,184,994.9,423.0,3051,NA
18,3,valuation,4,4,fixationCross,6588800.0,6589817.0,1017.0,104,R,6588356,6588638,284,1080.7,428.8,3039,NA
18,3,valuation,4,4,trial,6588800.0,6589817.0,1017.0,104,R,6588656,6588884,230,992.3,504.7,3189,NA
18,3,valuation,4,4,trial,6588800.0,6589817.0,1017.0,104,R,6589028,6589178,152,515.8,433.5,3324,likertVertical
18,3,valuation,4,4,trial,6588800.0,6589817.0,1017.0,104,R,6589252,6589438,188,1428.5,516.0,3414,right
18,3,valuation,4,4,trial,6588800.0,6589817.0,1017.0,104,R,6589460,6589606,148,1419.1,577.0,3367,right
18,3,valuation,4,4,trial,6588800.0,6589817.0,1017.0,104,R,6589622,6590016,396,1431.7,615.4,3399,right
18,3,valuation,5,5,fixationCross,6591800.0,6592850.0,1050.0,105,R,6590224,6590500,278,700.4,322.8,3647,likertVertical
18,3,valuation,5,5,fixationCross,6591800.0,6592850.0,1050.0,105,R,6590804,6591100,298,889.6,394.2,3819,NA
18,3,valuation,5,5,fixationCross,6591800.0,6592850.0,1050.0,105,R,6591126,6591534,410,762.3,363.7,3673,NA
18,3,valuation,5,5,fixationCross,6591800.0,6592850.0,1050.0,105,R,6591562,6591774,214,916.8,491.6,3294,NA
18,3,valuation,5,5,trial,6591800.0,6592850.0,1050.0,105,R,6591800,6591966,168,802.5,436.3,3234,NA
18,3,valuation,5,5,trial,6591800.0,6592850.0,1050.0,105,R,6592000,6593022,1024,504.9,413.6,3283,likertVertical
18,3,valuation,6,2,fixationCross,6598034.0,6599900.0,1866.0,106,R,6593260,6593762,504,1446.8,406.5,3605,right
18,3,valuation,6,2,fixationCross,6598034.0,6599900.0,1866.0,106,R,6594052,6594244,194,1427.3,400.3,3488,right
18,3,valuation,6,2,fixationCross,6598034.0,6599900.0,1866.0,106,R,6594262,6595114,854,1380.8,424.2,3411,right
18,3,valuation,6,2,fixationCross,6598034.0,6599900.0,1866.0,106,R,6595130,6595224,96,1384.8,446.2,3242,right
18,3,valuation,6,2,fixationCross,6598034.0,6599900.0,1866.0,106,R,6595490,6595748,260,1349.1,381.5,3182,right
18,3,valuation,6,2,fixationCross,6598034.0,6599900.0,1866.0,106,R,6596080,6596314,236,1320.3,382.8,3140,right
18,3,valuation,6,2,fixationCross,6598034.0,6599900.0,1866.0,106,R,6596678,6596936,260,1238.3,376.8,3096,right
18,3,valuation,6,2,fixationCross,6598034.0,6599900.0,1866.0,106,R,6597256,6597502,248,1171.3,362.9,3120,NA
18,3,valuation,6,2,fixationCross,6598034.0,6599900.0,1866.0,106,R,6597540,6597716,178,1292.1,526.9,3267,right
18,3,valuation,6,2,fixationCross,6598034.0,6599900.0,1866.0,106,R,6597760,6597966,208,981.2,575.9,3259,NA
18,3,valuation,6,2,trial,6598034.0,6599900.0,1866.0,106,R,6598194,6598316,124,1029.0,495.1,3368,NA
18,3,valuation,6,2,trial,6598034.0,6599900.0,1866.0,106,R,6598344,6598486,144,1244.8,552.1,3502,right
18,3,valuation,6,2,trial,6598034.0,6599900.0,1866.0,106,R,6598508,6598690,184,1368.5,601.9,3656,right
18,3,valuation,6,2,trial,6598034.0,6599900.0,1866.0,106,R,6598758,6598886,130,665.0,323.1,3588,likertVertical
18,3,valuation,6,2,trial,6598034.0,6599900.0,1866.0,106,R,6598908,6599062,156,550.0,330.5,3467,likertVertical
18,3,valuation,6,2,trial,6598034.0,6599900.0,1866.0,106,R,6599098,6599322,226,501.0,568.6,3394,likertVertical
18,3,valuation,6,2,trial,6598034.0,6599900.0,1866.0,106,R,6599362,6599444,84,551.9,884.8,3423,NA
18,3,valuation,6,2,trial,6598034.0,6599900.0,1866.0,106,R,6599462,6599542,82,531.0,835.0,3479,likertVertical
18,3,valuation,6,2,trial,6598034.0,6599900.0,1866.0,106,R,6599558,6599714,158,508.9,796.9,3562,likertVertical
18,3,valuation,6,2,trial,6598034.0,6599900.0,1866.0,106,R,6599736,6599890,156,512.1,745.3,3657,likertVertical
18,3,valuation,6,2,trial,6598034.0,6599900.0,1866.0,106,R,6599908,6600072,166,525.0,803.3,3646,likertVertical
18,3,valuation,7,5,fixationCross,6602617.0,6603984.0,1367.0,107,R,6600522,6600704,184,1284.5,421.6,3803,right
18,3,valuation,7,5,fixationCross,6602617.0,6603984.0,1367.0,107,R,6600726,6601038,314,1159.8,519.5,4004,NA
18,3,valuation,7,5,fixationCross,6602617.0,6603984.0,1367.0,107,R,6601304,6601568,266,1111.4,477.8,3744,NA
18,3,valuation,7,5,fixationCross,6602617.0,6603984.0,1367.0,107,R,6601584,6602014,432,1056.6,526.8,3836,NA
18,3,valuation,7,5,fixationCross,6602617.0,6603984.0,1367.0,107,R,6602290,6602490,202,1091.9,461.6,3786,NA
18,3,valuation,7,5,fixationCross,6602617.0,6603984.0,1367.0,107,R,6602506,6602538,34,1058.3,510.2,3922,NA
18,3,valuation,7,5,trial,6602617.0,6603984.0,1367.0,107,R,6602836,6603046,212,1014.5,450.5,3953,NA
18,3,valuation,7,5,trial,6602617.0,6603984.0,1367.0,107,R,6603098,6603202,106,553.5,456.3,4001,likertVertical
18,3,valuation,7,5,trial,6602617.0,6603984.0,1367.0,107,R,6603262,6603562,302,1372.7,547.5,3610,right
18,3,valuation,7,5,trial,6602617.0,6603984.0,1367.0,107,R,6603640,6604124,486,510.4,448.5,3407,likertVertical
18,3,valuation,8,6,fixationCross,6605267.0,6606434.0,1167.0,108,R,6604484,6604656,174,1118.1,353.2,3583,NA
18,3,valuation,8,6,fixationCross,6605267.0,6606434.0,1167.0,108,R,6604682,6604972,292,1228.3,411.0,3828,right
18,3,valuation,8,6,trial,6605267.0,6606434.0,1167.0,108,R,6605008,6605454,448,1009.7,457.0,3652,NA
18,3,valuation,8,6,trial,6605267.0,6606434.0,1167.0,108,R,6605512,6605630,120,496.8,381.5,3502,likertVertical
18,3,valuation,8,6,trial,6605267.0,6606434.0,1167.0,108,R,6605700,6606614,916,1402.0,566.9,3398,right
18,3,valuation,9,6,fixationCross,6608900.0,6610067.0,1167.0,109,R,6607014,6607108,96,1153.8,385.6,3439,NA
18,3,valuation,9,6,fixationCross,6608900.0,6610067.0,1167.0,109,R,6607120,6607306,188,1208.6,403.8,3558,right
18,3,valuation,9,6,fixationCross,6608900.0,6610067.0,1167.0,109,R,6607662,6607856,196,920.4,330.8,3393,NA
18,3,valuation,9,6,fixationCross,6608900.0,6610067.0,1167.0,109,R,6607878,6608218,342,1003.6,436.9,3381,NA
18,3,valuation,9,6,fixationCross,6608900.0,6610067.0,1167.0,109,R,6608450,6608612,164,607.7,316.3,3105,likertVertical
18,3,valuation,9,6,fixationCross,6608900.0,6610067.0,1167.0,109,R,6608644,6608676,34,759.3,378.3,3135,NA
18,3,valuation,9,6,fixationCross,6608900.0,6610067.0,1167.0,109,R,6608714,6608858,146,969.1,477.4,3227,NA
18,3,valuation,9,6,trial,6608900.0,6610067.0,1167.0,109,R,6608906,6609096,192,688.8,357.3,3202,likertVertical
18,3,valuation,9,6,trial,6608900.0,6610067.0,1167.0,109,R,6609118,6609346,230,548.2,333.9,3165,likertVertical
18,3,valuation,9,6,trial,6608900.0,6610067.0,1167.0,109,R,6609360,6609952,594,481.2,346.8,3186,likertVertical
18,3,valuation,9,6,trial,6608900.0,6610067.0,1167.0,109,R,6609976,6610064,90,474.7,406.6,3212,likertVertical
18,3,valuation,9,6,trial,6608900.0,6610067.0,1167.0,109,R,6610088,6610334,248,469.1,319.1,3196,likertVertical
18,3,valuation,10,2,fixationCross,6612050.0,6613300.0,1250.0,110,R,6610702,6610868,168,748.9,366.7,3214,NA
18,3,valuation,10,2,fixationCross,6612050.0,6613300.0,1250.0,110,R,6610890,6611082,194,880.9,412.8,3346,NA
18,3,valuation,10,2,fixationCross,6612050.0,6613300.0,1250.0,110,R,6611598,6611826,230,1033.3,395.4,3282,NA
18,3,valuation,10,2,trial,6612050.0,6613300.0,1250.0,110,R,6611850,6612222,374,961.5,472.9,3284,NA
18,3,valuation,10,2,trial,6612050.0,6613300.0,1250.0,110,R,6612272,6612422,152,497.9,419.7,3022,likertVertical
18,3,valuation,10,2,trial,6612050.0,6613300.0,1250.0,110,R,6612488,6612592,106,1263.8,579.7,2938,right
18,3,valuation,10,2,trial,6612050.0,6613300.0,1250.0,110,R,6612662,6612858,198,478.7,737.0,2861,likertVertical
18,3,valuation,10,2,trial,6612050.0,6613300.0,1250.0,110,R,6612878,6613486,610,464.4,703.1,2955,likertVertical
18,3,valuation,11,6,fixationCross,6621834.0,6623233.0,1399.0,111,R,6613776,6614412,638,911.6,388.4,3203,NA
