participantNo,block,task,blockTrial,response,trialStage,trialStartTime,trialFinishTime,rt,trial,eye,fixStart,fixEnd,fixLength,fixPosX,fixPosY,dilation,aoi
66,1,binary,1,2,fixationCross,16057003.0,16063237.0,6234.0,1,R,16056466,16056860,396,914.3,481.0,4602,NA
66,1,binary,1,2,trial,16057003.0,16063237.0,6234.0,1,R,16056880,16057026,148,949.1,541.9,4515,NA
66,1,binary,1,2,trial,16057003.0,16063237.0,6234.0,1,R,16057286,16057464,180,562.7,580.1,4815,left
66,1,binary,1,2,trial,16057003.0,16063237.0,6234.0,1,R,16057518,16057630,114,923.5,963.3,4606,likertHorizontal
66,1,binary,1,2,trial,16057003.0,16063237.0,6234.0,1,R,16057648,16057834,188,969.4,980.5,4289,likertHorizontal
66,1,binary,1,2,trial,16057003.0,16063237.0,6234.0,1,R,16057890,16058110,222,478.3,1037.2,4289,NA
66,1,binary,1,2,trial,16057003.0,16063237.0,6234.0,1,R,16058182,16058326,146,469.3,556.8,4354,left
66,1,binary,1,2,trial,16057003.0,16063237.0,6234.0,1,R,16058338,16058758,422,438.1,585.9,4247,left
66,1,binary,1,2,trial,16057003.0,16063237.0,6234.0,1,R,16058822,16059206,386,455.7,1015.8,4161,NA
66,1,binary,1,2,trial,16057003.0,16063237.0,6234.0,1,R,16059264,16059298,36,1267.7,954.1,4197,NA
66,1,binary,1,2,trial,16057003.0,16063237.0,6234.0,1,R,16059332,16059472,142,1491.5,963.7,4205,NA
66,1,binary,1,2,trial,16057003.0,16063237.0,6234.0,1,R,16059522,16060166,646,1330.1,638.8,4441,right
66,1,binary,1,2,trial,16057003.0,16063237.0,6234.0,1,R,16060230,16060338,110,663.2,577.9,4538,left
66,1,binary,1,2,trial,16057003.0,16063237.0,6234.0,1,R,16060366,16060740,376,450.7,595.7,4377,left
66,1,binary,1,2,trial,16057003.0,16063237.0,6234.0,1,R,16060810,16062362,1554,1368.7,574.9,3931,right
66,1,binary,1,2,trial,16057003.0,16063237.0,6234.0,1,R,16062374,16062690,318,1385.3,538.4,4083,right
66,1,binary,1,2,trial,16057003.0,16063237.0,6234.0,1,R,16062710,16063074,366,1450.4,555.4,4134,right
66,1,binary,1,2,trial,16057003.0,16063237.0,6234.0,1,R,16063148,16063236,90,510.8,567.9,4235,left
66,1,binary,1,2,trial,16057003.0,16063237.0,6234.0,1,R,16063294,16063552,260,1316.2,558.2,4064,right
66,1,binary,2,1,fixationCross,16064220.0,16066986.0,2766.0,2,R,16063700,16063802,104,940.3,538.3,4161,NA
66,1,binary,2,1,fixationCross,16064220.0,16066986.0,2766.0,2,R,16063950,16064048,100,899.2,491.7,4455,NA
66,1,binary,2,1,trial,16064220.0,16066986.0,2766.0,2,R,16064070,16064298,230,947.6,554.9,4647,NA
66,1,binary,2,1,trial,16064220.0,16066986.0,2766.0,2,R,16064410,16064490,82,758.9,522.8,4925,NA
66,1,binary,2,1,trial,16064220.0,16066986.0,2766.0,2,R,16064516,16064678,164,508.0,588.5,4697,left
66,1,binary,2,1,trial,16064220.0,16066986.0,2766.0,2,R,16064698,16064960,264,423.9,650.7,4402,left
66,1,binary,2,1,trial,16064220.0,16066986.0,2766.0,2,R,16064990,16065190,202,587.1,631.4,4158,left
66,1,binary,2,1,trial,16064220.0,16066986.0,2766.0,2,R,16065260,16065526,268,1432.4,557.4,3951,right
66,1,binary,2,1,trial,16064220.0,16066986.0,2766.0,2,R,16065550,16065778,230,1381.1,646.7,3971,right
66,1,binary,2,1,trial,16064220.0,16066986.0,2766.0,2,R,16065792,16065960,170,1424.4,663.4,3998,right
66,1,binary,2,1,trial,16064220.0,16066986.0,2766.0,2,R,16066040,16066250,212,433.6,619.7,4107,left
66,1,binary,2,1,trial,16064220.0,16066986.0,2766.0,2,R,16066300,16066698,400,537.4,572.7,3881,left
66,1,binary,2,1,trial,16064220.0,16066986.0,2766.0,2,R,16066756,16066952,198,426.3,1040.3,3827,NA
66,1,binary,2,1,trial,16064220.0,16066986.0,2766.0,2,R,16067016,16067256,242,473.1,567.1,3918,left
66,1,binary,2,1,postResponse,16064220.0,16066986.0,2766.0,2,R,16067298,16067334,38,711.8,458.6,3886,left
66,1,binary,3,1,fixationCross,16068120.0,16074669.0,6549.0,3,R,16067654,16067800,148,819.6,469.7,4292,NA
66,1,binary,3,1,trial,16068120.0,16074669.0,6549.0,3,R,16067826,16068282,458,954.2,538.6,4519,NA
66,1,binary,3,1,trial,16068120.0,16074669.0,6549.0,3,R,16068330,16068500,172,1322.9,513.7,4327,right
66,1,binary,3,1,trial,16068120.0,16074669.0,6549.0,3,R,16068526,16068744,220,1450.7,533.1,4026,right
66,1,binary,3,1,trial,16068120.0,16074669.0,6549.0,3,R,16068766,16069020,256,1392.0,583.1,3988,right
66,1,binary,3,1,trial,16068120.0,16074669.0,6549.0,3,R,16069092,16069434,344,467.2,543.2,4094,left
66,1,binary,3,1,trial,16068120.0,16074669.0,6549.0,3,R,16069450,16069834,386,442.4,479.8,3843,left
66,1,binary,3,1,trial,16068120.0,16074669.0,6549.0,3,R,16069852,16070232,382,462.0,502.4,3750,left
66,1,binary,3,1,trial,16068120.0,16074669.0,6549.0,3,R,16070302,16070528,228,1369.5,516.8,3826,right
66,1,binary,3,1,trial,16068120.0,16074669.0,6549.0,3,R,16070600,16070778,180,445.3,527.8,4053,left
66,1,binary,3,1,trial,16068120.0,16074669.0,6549.0,3,R,16071000,16071148,150,441.6,500.8,4022,left
66,1,binary,3,1,trial,16068120.0,16074669.0,6549.0,3,R,16071192,16071454,264,387.6,663.5,4044,left
66,1,binary,3,1,trial,16068120.0,16074669.0,6549.0,3,R,16071476,16071690,216,453.0,550.0,3853,left
66,1,binary,3,1,trial,16068120.0,16074669.0,6549.0,3,R,16071716,16071958,244,476.8,458.5,3715,left
66,1,binary,3,1,trial,16068120.0,16074669.0,6549.0,3,R,16071978,16072570,594,408.0,518.9,3658,left
66,1,binary,3,1,trial,16068120.0,16074669.0,6549.0,3,R,16072590,16072840,252,487.5,449.1,3737,left
66,1,binary,3,1,trial,16068120.0,16074669.0,6549.0,3,R,16072908,16073118,212,1283.4,473.8,3721,right
66,1,binary,3,1,trial,16068120.0,16074669.0,6549.0,3,R,16073140,16073426,288,1386.7,498.6,3708,right
66,1,binary,3,1,trial,16068120.0,16074669.0,6549.0,3,R,16073448,16073700,254,1424.0,558.7,3889,right
66,1,binary,3,1,trial,16068120.0,16074669.0,6549.0,3,R,16073724,16073966,244,1305.5,505.0,3897,right
66,1,binary,3,1,trial,16068120.0,16074669.0,6549.0,3,R,16073986,16074064,80,1257.8,447.0,3889,right
66,1,binary,3,1,trial,16068120.0,16074669.0,6549.0,3,R,16074138,16074454,318,399.5,490.4,4075,left
66,1,binary,3,1,trial,16068120.0,16074669.0,6549.0,3,R,16074484,16074598,116,430.8,547.3,3928,left
66,1,binary,3,1,trial,16068120.0,16074669.0,6549.0,3,R,16074654,16074806,154,453.6,1050.7,3892,NA
66,1,binary,3,1,postResponse,16068120.0,16074669.0,6549.0,3,R,16074874,16075008,136,592.7,470.4,3973,left
66,1,binary,4,2,fixationCross,16075720.0,16078203.0,2483.0,4,R,16075108,16075228,122,587.8,473.6,4059,left
66,1,binary,4,2,fixationCross,16075720.0,16078203.0,2483.0,4,R,16075268,16075426,160,779.4,492.8,4204,NA
66,1,binary,4,2,trial,16075720.0,16078203.0,2483.0,4,R,16075450,16075860,412,963.0,553.9,4357,NA
66,1,binary,4,2,trial,16075720.0,16078203.0,2483.0,4,R,16075902,16076002,102,570.0,508.4,4522,left
66,1,binary,4,2,trial,16075720.0,16078203.0,2483.0,4,R,16076026,16076188,164,456.1,591.5,4450,left
66,1,binary,4,2,trial,16075720.0,16078203.0,2483.0,4,R,16076202,16076512,312,400.1,609.5,4190,left
66,1,binary,4,2,trial,16075720.0,16078203.0,2483.0,4,R,16076584,16076830,248,1380.0,502.3,3742,right
66,1,binary,4,2,trial,16075720.0,16078203.0,2483.0,4,R,16076844,16077004,162,1351.5,468.6,3709,right
66,1,binary,4,2,trial,16075720.0,16078203.0,2483.0,4,R,16077042,16077826,786,1514.2,588.0,3871,right
66,1,binary,4,2,trial,16075720.0,16078203.0,2483.0,4,R,16077906,16078154,250,468.8,538.9,4139,left
66,1,binary,4,2,trial,16075720.0,16078203.0,2483.0,4,R,16078176,16078404,230,411.0,567.9,4025,left
66,1,binary,5,2,fixationCross,16079270.0,16083454.0,4184.0,5,R,16078666,16078758,94,726.6,328.0,3931,NA
66,1,binary,5,2,fixationCross,16079270.0,16083454.0,4184.0,5,R,16078782,16078970,190,860.5,431.0,4102,NA
66,1,binary,5,2,trial,16079270.0,16083454.0,4184.0,5,R,16078996,16079420,426,949.5,546.6,4396,NA
66,1,binary,5,2,trial,16079270.0,16083454.0,4184.0,5,R,16079470,16079530,62,568.1,529.7,4373,left
66,1,binary,5,2,trial,16079270.0,16083454.0,4184.0,5,R,16079554,16079782,230,468.9,547.0,4243,left
66,1,binary,5,2,trial,16079270.0,16083454.0,4184.0,5,R,16079796,16079904,110,475.7,503.3,4080,left
66,1,binary,5,2,trial,16079270.0,16083454.0,4184.0,5,R,16079974,16080416,444,1387.4,546.5,3799,right
66,1,binary,5,2,trial,16079270.0,16083454.0,4184.0,5,R,16080432,16080642,212,1456.1,542.2,3830,right
66,1,binary,5,2,trial,16079270.0,16083454.0,4184.0,5,R,16080718,16081150,434,449.0,540.4,3987,left
66,1,binary,5,2,trial,16079270.0,16083454.0,4184.0,5,R,16081162,16081550,390,458.9,485.0,3811,left
66,1,binary,5,2,trial,16079270.0,16083454.0,4184.0,5,R,16081578,16081974,398,385.8,578.5,3820,left
66,1,binary,5,2,trial,16079270.0,16083454.0,4184.0,5,R,16082292,16082338,48,567.1,519.8,3954,left
66,1,binary,5,2,trial,16079270.0,16083454.0,4184.0,5,R,16082360,16082748,390,486.8,474.2,4024,left
66,1,binary,5,2,trial,16079270.0,16083454.0,4184.0,5,R,16082776,16082868,94,581.0,612.8,3864,left
66,1,binary,5,2,trial,16079270.0,16083454.0,4184.0,5,R,16082936,16083320,386,1366.3,556.6,3672,right
66,1,binary,5,2,trial,16079270.0,16083454.0,4184.0,5,R,16083342,16083586,246,1464.4,528.0,3757,right
66,1,binary,5,2,postResponse,16079270.0,16083454.0,4184.0,5,R,16083650,16083790,142,740.8,473.8,3983,NA
66,1,binary,6,1,fixationCross,16084536.0,16088220.0,3684.0,6,R,16083890,16084050,162,747.6,473.3,4104,NA
66,1,binary,6,1,fixationCross,16084536.0,16088220.0,3684.0,6,R,16084068,16084210,144,685.3,447.3,4208,left
66,1,binary,6,1,fixationCross,16084536.0,16088220.0,3684.0,6,R,16084246,16084286,42,878.3,559.8,4314,NA
66,1,binary,6,1,fixationCross,16084536.0,16088220.0,3684.0,6,R,16084312,16084450,140,994.4,552.8,4381,NA
66,1,binary,6,1,trial,16084536.0,16088220.0,3684.0,6,R,16084460,16084674,216,961.1,542.7,4419,NA
66,1,binary,6,1,trial,16084536.0,16088220.0,3684.0,6,R,16084726,16084862,138,530.8,471.1,4348,left
66,1,binary,6,1,trial,16084536.0,16088220.0,3684.0,6,R,16084882,16085180,300,523.5,409.1,4055,left
66,1,binary,6,1,trial,16084536.0,16088220.0,3684.0,6,R,16085246,16085492,248,1342.1,560.0,3890,right
66,1,binary,6,1,trial,16084536.0,16088220.0,3684.0,6,R,16085510,16085780,272,1390.9,570.7,3891,right
66,1,binary,6,1,trial,16084536.0,16088220.0,3684.0,6,R,16085800,16085974,176,1328.2,615.5,3919,right
66,1,binary,6,1,trial,16084536.0,16088220.0,3684.0,6,R,16086046,16086184,140,476.3,443.1,3996,left
66,1,binary,6,1,trial,16084536.0,16088220.0,3684.0,6,R,16086196,16086506,312,506.8,420.4,3938,left
66,1,binary,6,1,trial,16084536.0,16088220.0,3684.0,6,R,16086528,16086880,354,471.1,509.8,4001,left
66,1,binary,6,1,trial,16084536.0,16088220.0,3684.0,6,R,16087064,16087190,128,502.9,433.3,4165,left
66,1,binary,6,1,trial,16084536.0,16088220.0,3684.0,6,R,16087202,16087794,594,533.3,425.4,4166,left
66,1,binary,6,1,trial,16084536.0,16088220.0,3684.0,6,R,16087812,16088250,440,501.6,498.7,3979,left
66,1,binary,6,1,trial,16084536.0,16088220.0,3684.0,6,R,16088272,16088462,192,513.1,402.3,3977,left
66,1,binary,6,1,postResponse,16084536.0,16088220.0,3684.0,6,R,16088504,16088554,52,754.0,420.3,4062,NA
66,1,binary,7,1,fixationCross,16089136.0,16091503.0,2367.0,7,R,16088654,16088846,194,763.2,428.8,4191,NA
66,1,binary,7,1,fixationCross,16089136.0,16091503.0,2367.0,7,R,16088882,16089074,194,962.0,465.6,4306,NA
66,1,binary,7,1,trial,16089136.0,16091503.0,2367.0,7,R,16089096,16089296,202,953.1,556.3,4382,NA
66,1,binary,7,1,trial,16089136.0,16091503.0,2367.0,7,R,16089342,16089374,34,559.7,511.1,4484,left
66,1,binary,7,1,trial,16089136.0,16091503.0,2367.0,7,R,16089398,16089548,152,416.4,487.3,4410,left
66,1,binary,7,1,trial,16089136.0,16091503.0,2367.0,7,R,16089564,16089732,170,469.6,460.0,4220,left
66,1,binary,7,1,trial,16089136.0,16091503.0,2367.0,7,R,16089802,16089982,182,1403.3,540.2,3886,right
66,1,binary,7,1,trial,16089136.0,16091503.0,2367.0,7,R,16090000,16090402,404,1442.5,492.8,3740,right
66,1,binary,7,1,trial,16089136.0,16091503.0,2367.0,7,R,16090634,16090834,202,511.3,477.0,3823,left
66,1,binary,7,1,trial,16089136.0,16091503.0,2367.0,7,R,16090848,16091074,228,478.9,450.8,3938,left
66,1,binary,7,1,trial,16089136.0,16091503.0,2367.0,7,R,16091138,16091318,182,420.6,1021.7,3908,NA
66,1,binary,7,1,trial,16089136.0,16091503.0,2367.0,7,R,16091408,16091788,382,1455.4,457.9,3766,right
66,1,binary,8,2,fixationCross,16092470.0,16094037.0,1567.0,8,R,16091932,16092140,210,879.6,395.0,4080,NA
66,1,binary,8,2,fixationCross,16092470.0,16094037.0,1567.0,8,R,16092176,16092350,176,871.3,577.5,4225,NA
66,1,binary,8,2,trial,16092470.0,16094037.0,1567.0,8,R,16092368,16092610,244,950.3,548.9,4309,NA
66,1,binary,8,2,trial,16092470.0,16094037.0,1567.0,8,R,16092658,16092702,46,473.3,487.4,4366,left
66,1,binary,8,2,trial,16092470.0,16094037.0,1567.0,8,R,16092726,16092896,172,375.7,498.5,4235,left
66,1,binary,8,2,trial,16092470.0,16094037.0,1567.0,8,R,16092920,16093054,136,399.0,521.0,3915,left
66,1,binary,8,2,trial,16092470.0,16094037.0,1567.0,8,R,16093128,16093426,300,1395.3,546.9,3592,right
66,1,binary,8,2,trial,16092470.0,16094037.0,1567.0,8,R,16093444,16093948,506,1440.9,604.0,3586,right
66,1,binary,8,2,trial,16092470.0,16094037.0,1567.0,8,R,16093974,16094322,350,1288.4,537.1,3674,right
66,1,binary,9,1,fixationCross,16094903.0,16097753.0,2850.0,9,R,16094444,16094802,360,874.4,497.7,3938,NA
66,1,binary,9,1,trial,16094903.0,16097753.0,2850.0,9,R,16094818,16095056,240,934.7,542.3,4194,NA
66,1,binary,9,1,trial,16094903.0,16097753.0,2850.0,9,R,16095112,16095392,282,496.4,475.7,4220,left
66,1,binary,9,1,trial,16094903.0,16097753.0,2850.0,9,R,16095462,16095652,192,1346.5,516.0,3825,right
66,1,binary,9,1,trial,16094903.0,16097753.0,2850.0,9,R,16095670,16095924,256,1416.7,500.6,3749,right
66,1,binary,9,1,trial,16094903.0,16097753.0,2850.0,9,R,16095994,16096244,252,484.2,486.2,4141,left
66,1,binary,9,1,trial,16094903.0,16097753.0,2850.0,9,R,16096262,16096432,172,436.2,459.6,4117,left
66,1,binary,9,1,trial,16094903.0,16097753.0,2850.0,9,R,16096506,16096788,284,1421.5,508.3,3881,right
66,1,binary,9,1,trial,16094903.0,16097753.0,2850.0,9,R,16096814,16097102,290,1566.2,608.9,3912,right
66,1,binary,9,1,trial,16094903.0,16097753.0,2850.0,9,R,16097140,16097502,364,1290.7,540.6,4018,right
66,1,binary,9,1,trial,16094903.0,16097753.0,2850.0,9,R,16097568,16098054,488,526.6,460.5,3935,left
66,1,binary,10,1,fixationCross,16098803.0,16100037.0,1234.0,10,R,16098160,16098316,158,584.6,158.2,4048,NA
66,1,binary,10,1,fixationCross,16098803.0,16100037.0,1234.0,10,R,16098372,16098478,108,875.9,247.7,4150,NA
66,1,binary,10,1,fixationCross,16098803.0,16100037.0,1234.0,10,R,16098522,16098666,146,956.5,524.4,4367,NA
66,1,binary,10,1,trial,16098803.0,16100037.0,1234.0,10,R,16098680,16098954,276,944.7,544.0,4505,NA
66,1,binary,10,1,trial,16098803.0,16100037.0,1234.0,10,R,16099004,16099066,64,492.9,490.4,4518,left
66,1,binary,10,1,trial,16098803.0,16100037.0,1234.0,10,R,16099090,16099290,202,397.0,507.5,4293,left
66,1,binary,10,1,trial,16098803.0,16100037.0,1234.0,10,R,16099302,16099610,310,394.7,481.5,3970,left
66,1,binary,10,1,trial,16098803.0,16100037.0,1234.0,10,R,16099676,16099908,234,1246.2,569.5,3789,right
66,1,binary,10,1,trial,16098803.0,16100037.0,1234.0,10,R,16099934,16100206,274,1251.0,651.6,3833,right
66,1,binary,10,1,postResponse,16098803.0,16100037.0,1234.0,10,R,16100272,16100368,98,828.2,451.8,3954,NA
66,1,binary,11,1,fixationCross,16101087.0,16103587.0,2500.0,11,R,16100466,16100786,322,831.1,450.0,4119,NA
66,1,binary,11,1,trial,16101087.0,16103587.0,2500.0,11,R,16100818,16101216,400,955.0,556.1,4390,NA
66,1,binary,11,1,trial,16101087.0,16103587.0,2500.0,11,R,16101264,16101468,206,563.0,480.3,4425,left
66,1,binary,11,1,trial,16101087.0,16103587.0,2500.0,11,R,16101492,16101684,194,444.0,492.7,4119,left
66,1,binary,11,1,trial,16101087.0,16103587.0,2500.0,11,R,16101756,16102066,312,1426.2,536.1,3739,right
66,1,binary,11,1,trial,16101087.0,16103587.0,2500.0,11,R,16102080,16102210,132,1470.5,537.4,3670,right
66,1,binary,11,1,trial,16101087.0,16103587.0,2500.0,11,R,16102238,16102464,228,1343.7,640.5,3737,right
66,1,binary,11,1,trial,16101087.0,16103587.0,2500.0,11,R,16102682,16102858,178,1513.3,524.4,3731,right
66,1,binary,11,1,trial,16101087.0,16103587.0,2500.0,11,R,16102934,16103248,316,468.6,504.2,3872,left
66,1,binary,11,1,trial,16101087.0,16103587.0,2500.0,11,R,16103264,16103848,586,413.6,461.3,3656,left
66,1,binary,11,1,postResponse,16101087.0,16103587.0,2500.0,11,R,16103872,16103920,50,616.3,443.7,3699,left
66,1,binary,12,2,fixationCross,16104636.0,16105720.0,1084.0,12,R,16104020,16104066,48,616.6,438.9,3743,left
66,1,binary,12,2,fixationCross,16104636.0,16105720.0,1084.0,12,R,16104090,16104338,250,801.9,479.7,3900,NA
66,1,binary,12,2,trial,16104636.0,16105720.0,1084.0,12,R,16104364,16104794,432,954.5,547.9,4225,NA
66,1,binary,12,2,trial,16104636.0,16105720.0,1084.0,12,R,16104844,16105102,260,562.7,508.6,4273,left
66,1,binary,12,2,trial,16104636.0,16105720.0,1084.0,12,R,16105170,16105766,598,1438.5,523.0,3972,right
66,1,binary,12,2,trial,16104636.0,16105720.0,1084.0,12,R,16105782,16106010,230,1399.7,469.6,3981,right
66,1,binary,13,1,fixationCross,16106787.0,16108904.0,2117.0,13,R,16106152,16106272,122,877.1,437.0,4062,NA
66,1,binary,13,1,fixationCross,16106787.0,16108904.0,2117.0,13,R,16106292,16106486,196,811.4,464.8,4205,NA
66,1,binary,13,1,fixationCross,16106787.0,16108904.0,2117.0,13,R,16106512,16106732,222,936.2,551.2,4405,NA
66,1,binary,13,1,trial,16106787.0,16108904.0,2117.0,13,R,16106744,16106934,192,966.5,553.9,4429,NA
66,1,binary,13,1,trial,16106787.0,16108904.0,2117.0,13,R,16106988,16107182,196,511.4,496.3,4392,left
66,1,binary,13,1,trial,16106787.0,16108904.0,2117.0,13,R,16107206,16107346,142,478.7,596.7,4169,left
66,1,binary,13,1,trial,16106787.0,16108904.0,2117.0,13,R,16107366,16107536,172,451.1,650.3,4057,left
66,1,binary,13,1,trial,16106787.0,16108904.0,2117.0,13,R,16107548,16107728,182,458.3,673.5,4022,left
66,1,binary,13,1,trial,16106787.0,16108904.0,2117.0,13,R,16107806,16108328,524,1394.0,564.7,3985,right
66,1,binary,13,1,trial,16106787.0,16108904.0,2117.0,13,R,16108346,16108502,158,1386.6,514.1,3858,right
66,1,binary,13,1,trial,16106787.0,16108904.0,2117.0,13,R,16108526,16108850,326,1268.1,587.3,3902,right
66,1,binary,13,1,postResponse,16106787.0,16108904.0,2117.0,13,R,16108912,16109236,326,517.9,529.5,3999,left
66,1,binary,14,1,fixationCross,16109970.0,16113020.0,3050.0,14,R,16109536,16109672,138,691.0,486.0,4105,left
66,1,binary,14,1,fixationCross,16109970.0,16113020.0,3050.0,14,R,16109700,16109826,128,914.2,530.1,4236,NA
66,1,binary,14,1,trial,16109970.0,16113020.0,3050.0,14,R,16109838,16110106,270,952.0,548.5,4349,NA
66,1,binary,14,1,trial,16109970.0,16113020.0,3050.0,14,R,16110152,16110178,28,600.9,469.7,4354,left
66,1,binary,14,1,trial,16109970.0,16113020.0,3050.0,14,R,16110204,16110408,206,482.5,427.9,4198,left
66,1,binary,14,1,trial,16109970.0,16113020.0,3050.0,14,R,16110480,16110680,202,1503.9,511.7,3776,right
66,1,binary,14,1,trial,16109970.0,16113020.0,3050.0,14,R,16110698,16111306,610,1505.9,458.8,3798,right
66,1,binary,14,1,trial,16109970.0,16113020.0,3050.0,14,R,16111334,16111462,130,1336.9,532.6,3998,right
66,1,binary,14,1,trial,16109970.0,16113020.0,3050.0,14,R,16111530,16111686,158,464.8,478.7,4120,left
66,1,binary,14,1,trial,16109970.0,16113020.0,3050.0,14,R,16111706,16112046,342,507.9,439.4,3931,left
66,1,binary,14,1,trial,16109970.0,16113020.0,3050.0,14,R,16112084,16112376,294,436.6,585.5,3824,left
66,1,binary,14,1,trial,16109970.0,16113020.0,3050.0,14,R,16112402,16112622,222,637.2,587.3,3893,left
66,1,binary,14,1,trial,16109970.0,16113020.0,3050.0,14,R,16112656,16112864,210,382.4,485.6,3866,left
66,1,binary,14,1,trial,16109970.0,16113020.0,3050.0,14,R,16112880,16113302,424,355.6,460.3,3978,left
66,1,binary,15,2,fixationCross,16114070.0,16116020.0,1950.0,15,R,16113456,16113544,90,567.8,345.4,4032,NA
66,1,binary,15,2,fixationCross,16114070.0,16116020.0,1950.0,15,R,16113596,16113768,174,809.3,482.4,4158,NA
66,1,binary,15,2,trial,16114070.0,16116020.0,1950.0,15,R,16113794,16114228,436,941.6,540.4,4384,NA
66,1,binary,15,2,trial,16114070.0,16116020.0,1950.0,15,R,16114274,16114526,254,1366.4,516.7,4162,right
66,1,binary,15,2,trial,16114070.0,16116020.0,1950.0,15,R,16114538,16114680,144,1326.4,480.1,3977,right
66,1,binary,15,2,trial,16114070.0,16116020.0,1950.0,15,R,16114704,16114950,248,1491.6,470.2,3965,right
66,1,binary,15,2,trial,16114070.0,16116020.0,1950.0,15,R,16115030,16115462,434,487.8,500.2,4194,left
66,1,binary,15,2,trial,16114070.0,16116020.0,1950.0,15,R,16115480,16115790,312,415.8,494.2,4106,left
66,1,binary,15,2,trial,16114070.0,16116020.0,1950.0,15,R,16115860,16115992,134,1120.3,868.8,4131,likertHorizontal
66,1,binary,15,2,trial,16114070.0,16116020.0,1950.0,15,R,16116034,16116072,40,1419.5,883.8,4177,NA
66,1,binary,15,2,trial,16114070.0,16116020.0,1950.0,15,R,16116128,16116312,186,1405.4,460.5,4139,right
66,1,binary,16,1,fixationCross,16117070.0,16122820.0,5750.0,16,R,16116454,16116578,126,936.2,426.5,4478,NA
66,1,binary,16,1,fixationCross,16117070.0,16122820.0,5750.0,16,R,16116604,16116786,184,740.9,459.6,4652,NA
66,1,binary,16,1,fixationCross,16117070.0,16122820.0,5750.0,16,R,16116812,16116928,118,895.5,543.3,4672,NA
66,1,binary,16,1,trial,16117070.0,16122820.0,5750.0,16,R,16116948,16117208,262,964.7,542.5,4604,NA
66,1,binary,16,1,trial,16117070.0,16122820.0,5750.0,16,R,16117254,16117290,38,617.0,481.8,4564,left
66,1,binary,16,1,trial,16117070.0,16122820.0,5750.0,16,R,16117314,16117504,192,528.7,462.9,4479,left
66,1,binary,16,1,trial,16117070.0,16122820.0,5750.0,16,R,16117576,16117744,170,1475.3,488.1,4154,right
66,1,binary,16,1,trial,16117070.0,16122820.0,5750.0,16,R,16117758,16118104,348,1507.0,513.7,3982,right
66,1,binary,16,1,trial,16117070.0,16122820.0,5750.0,16,R,16118358,16119398,1042,1493.2,489.8,3979,right
66,1,binary,16,1,trial,16117070.0,16122820.0,5750.0,16,R,16119474,16119720,248,481.7,493.1,4134,left
66,1,binary,16,1,trial,16117070.0,16122820.0,5750.0,16,R,16119740,16119980,242,552.8,527.7,4026,left
66,1,binary,16,1,trial,16117070.0,16122820.0,5750.0,16,R,16120014,16120290,278,595.5,648.6,4071,left
66,1,binary,16,1,trial,16117070.0,16122820.0,5750.0,16,R,16120310,16120592,284,580.2,690.4,4189,left
66,1,binary,16,1,trial,16117070.0,16122820.0,5750.0,16,R,16120630,16120824,196,425.1,506.9,4206,left
66,1,binary,16,1,trial,16117070.0,16122820.0,5750.0,16,R,16120844,16121196,354,500.3,508.1,4169,left
66,1,binary,16,1,trial,16117070.0,16122820.0,5750.0,16,R,16121266,16121424,160,1458.9,487.2,3974,right
66,1,binary,16,1,trial,16117070.0,16122820.0,5750.0,16,R,16121438,16121964,528,1494.6,493.9,3834,right
66,1,binary,16,1,trial,16117070.0,16122820.0,5750.0,16,R,16122040,16122246,208,490.9,486.3,3886,left
66,1,binary,16,1,postResponse,16117070.0,16122820.0,5750.0,16,R,16122260,16123154,896,493.4,521.9,3891,left
66,1,binary,17,2,fixationCross,16123870.0,16125870.0,2000.0,17,R,16123468,16123552,86,738.8,453.2,4136,NA
66,1,binary,17,2,trial,16123870.0,16125870.0,2000.0,17,R,16123578,16124030,454,922.9,536.0,4362,NA
66,1,binary,17,2,trial,16123870.0,16125870.0,2000.0,17,R,16124090,16124226,138,1421.3,504.2,4187,right
66,1,binary,17,2,trial,16123870.0,16125870.0,2000.0,17,R,16124246,16124500,256,1481.4,477.9,3869,right
66,1,binary,17,2,trial,16123870.0,16125870.0,2000.0,17,R,16124526,16124754,230,1461.9,598.6,3720,right
66,1,binary,17,2,trial,16123870.0,16125870.0,2000.0,17,R,16124830,16125172,344,531.0,541.6,3894,left
66,1,binary,17,2,trial,16123870.0,16125870.0,2000.0,17,R,16125188,16125466,280,490.6,566.4,3838,left
66,1,binary,17,2,trial,16123870.0,16125870.0,2000.0,17,R,16125540,16125752,214,1430.2,526.8,3730,right
66,1,binary,17,2,trial,16123870.0,16125870.0,2000.0,17,R,16125808,16125992,186,1475.7,1104.1,3853,NA
66,1,binary,17,2,trial,16123870.0,16125870.0,2000.0,17,R,16126010,16126124,116,1470.5,1049.1,3975,NA
66,1,binary,18,1,fixationCross,16127070.0,16129804.0,2734.0,18,R,16126304,16126330,28,1099.7,610.0,4211,NA
66,1,binary,18,1,fixationCross,16127070.0,16129804.0,2734.0,18,R,16126380,16126640,262,745.6,509.4,4325,NA
66,1,binary,18,1,fixationCross,16127070.0,16129804.0,2734.0,18,R,16126662,16126790,130,853.0,533.3,4366,NA
66,1,binary,18,1,fixationCross,16127070.0,16129804.0,2734.0,18,R,16126810,16127038,230,927.4,549.3,4367,NA
66,1,binary,18,1,trial,16127070.0,16129804.0,2734.0,18,R,16127050,16127216,168,951.0,558.0,4388,NA
66,1,binary,18,1,trial,16127070.0,16129804.0,2734.0,18,R,16127264,16127526,264,511.5,505.2,4396,left
66,1,binary,18,1,trial,16127070.0,16129804.0,2734.0,18,R,16127542,16127784,244,437.8,524.4,4106,left
66,1,binary,18,1,trial,16127070.0,16129804.0,2734.0,18,R,16127860,16128054,196,1482.3,532.3,3747,right
66,1,binary,18,1,trial,16127070.0,16129804.0,2734.0,18,R,16128072,16128236,166,1433.6,449.2,3679,right
66,1,binary,18,1,trial,16127070.0,16129804.0,2734.0,18,R,16128246,16128566,322,1423.0,422.8,3703,right
66,1,binary,18,1,trial,16127070.0,16129804.0,2734.0,18,R,16128592,16128692,102,1575.0,495.0,3696,right
66,1,binary,18,1,trial,16127070.0,16129804.0,2734.0,18,R,16128774,16129196,424,470.9,502.6,3854,left
66,1,binary,18,1,trial,16127070.0,16129804.0,2734.0,18,R,16129212,16129518,308,417.9,468.5,3760,left
66,1,binary,18,1,trial,16127070.0,16129804.0,2734.0,18,R,16129540,16129994,456,430.8,535.5,3826,left
66,1,binary,19,1,fixationCross,16130887.0,16133687.0,2800.0,19,R,16130294,16130440,148,508.8,468.6,3920,left
66,1,binary,19,1,fixationCross,16130887.0,16133687.0,2800.0,19,R,16130476,16130592,118,770.9,480.9,4032,NA
66,1,binary,19,1,trial,16130887.0,16133687.0,2800.0,19,R,16130620,16131044,426,942.9,526.1,4034,NA
66,1,binary,19,1,trial,16130887.0,16133687.0,2800.0,19,R,16131094,16131334,242,532.2,462.4,4077,left
66,1,binary,19,1,trial,16130887.0,16133687.0,2800.0,19,R,16131352,16131548,198,578.4,508.4,3928,left
66,1,binary,19,1,trial,16130887.0,16133687.0,2800.0,19,R,16131616,16132646,1032,1398.3,540.1,3844,right
66,1,binary,19,1,trial,16130887.0,16133687.0,2800.0,19,R,16132658,16132870,214,1445.5,548.9,3903,right
66,1,binary,19,1,trial,16130887.0,16133687.0,2800.0,19,R,16132946,16133146,202,483.1,533.5,4152,left
66,1,binary,19,1,trial,16130887.0,16133687.0,2800.0,19,R,16133168,16133586,420,592.5,535.4,4038,left
66,1,binary,19,1,trial,16130887.0,16133687.0,2800.0,19,R,16133614,16133890,278,406.3,561.1,4102,left
66,1,binary,20,1,fixationCross,16134554.0,16135970.0,1416.0,20,R,16134224,16134404,182,875.8,517.4,4251,NA
66,1,binary,20,1,trial,16134554.0,16135970.0,1416.0,20,R,16134428,16134718,292,998.0,519.8,4362,NA
66,1,binary,20,1,trial,16134554.0,16135970.0,1416.0,20,R,16134772,16134934,164,492.6,449.1,4225,left
66,1,binary,20,1,trial,16134554.0,16135970.0,1416.0,20,R,16134952,16135118,168,458.5,408.1,4109,left
66,1,binary,20,1,trial,16134554.0,16135970.0,1416.0,20,R,16135144,16135528,386,433.2,531.6,3986,left
66,1,binary,20,1,trial,16134554.0,16135970.0,1416.0,20,R,16135546,16135840,296,496.1,519.6,3937,left
66,1,binary,20,1,trial,16134554.0,16135970.0,1416.0,20,R,16135912,16136258,348,1418.0,488.5,3771,right
66,1,binary,21,1,fixationCross,16137020.0,16138953.0,1933.0,21,R,16136404,16136496,94,574.4,380.2,4047,left
66,1,binary,21,1,fixationCross,16137020.0,16138953.0,1933.0,21,R,16136552,16136720,170,786.2,537.5,4096,NA
66,1,binary,21,1,trial,16137020.0,16138953.0,1933.0,21,R,16136746,16137176,432,942.2,555.1,4218,NA
66,1,binary,21,1,trial,16137020.0,16138953.0,1933.0,21,R,16137210,16137232,24,868.3,499.1,4313,NA
66,1,binary,21,1,trial,16137020.0,16138953.0,1933.0,21,R,16137262,16137434,174,618.9,484.2,4243,left
66,1,binary,21,1,trial,16137020.0,16138953.0,1933.0,21,R,16137460,16137668,210,463.2,485.6,3967,left
66,1,binary,21,1,trial,16137020.0,16138953.0,1933.0,21,R,16137744,16137978,236,1476.8,516.8,3665,right
66,1,binary,21,1,trial,16137020.0,16138953.0,1933.0,21,R,16138006,16138368,364,1461.5,407.7,3587,right
66,1,binary,21,1,trial,16137020.0,16138953.0,1933.0,21,R,16138398,16138604,208,1311.8,565.3,3681,right
66,1,binary,21,1,trial,16137020.0,16138953.0,1933.0,21,R,16138686,16138988,304,457.3,482.1,3822,left
66,1,binary,21,1,postResponse,16137020.0,16138953.0,1933.0,21,R,16139004,16139284,282,465.5,521.2,3846,left
66,1,binary,22,2,fixationCross,16140120.0,16142471.0,2351.0,22,R,16139386,16139508,124,481.7,513.3,3946,left
66,1,binary,22,2,fixationCross,16140120.0,16142471.0,2351.0,22,R,16139532,16139656,126,686.3,486.8,4009,left
66,1,binary,22,2,fixationCross,16140120.0,16142471.0,2351.0,22,R,16139850,16140020,172,913.6,509.0,3986,NA
66,1,binary,22,2,trial,16140120.0,16142471.0,2351.0,22,R,16140036,16140270,236,952.0,533.3,4180,NA
66,1,binary,22,2,trial,16140120.0,16142471.0,2351.0,22,R,16140320,16140572,254,500.3,483.4,4158,left
66,1,binary,22,2,trial,16140120.0,16142471.0,2351.0,22,R,16140638,16140816,180,1338.9,515.8,3781,right
66,1,binary,22,2,trial,16140120.0,16142471.0,2351.0,22,R,16140840,16140984,146,1497.1,521.4,3636,right
66,1,binary,22,2,trial,16140120.0,16142471.0,2351.0,22,R,16141004,16141434,432,1590.4,461.8,3630,right
66,1,binary,22,2,trial,16140120.0,16142471.0,2351.0,22,R,16141468,16141632,166,1320.4,530.0,3697,right
66,1,binary,22,2,trial,16140120.0,16142471.0,2351.0,22,R,16141708,16141932,226,411.9,526.2,3865,left
66,1,binary,22,2,postResponse,16140120.0,16142471.0,2351.0,22,R,16142124,16142804,682,498.1,507.7,3906,left
66,1,binary,23,1,fixationCross,16143537.0,16144604.0,1067.0,23,R,16142904,16143022,120,498.9,500.4,3840,left
66,1,binary,23,1,fixationCross,16143537.0,16144604.0,1067.0,23,R,16143044,16143216,174,696.9,486.0,3883,left
66,1,binary,23,1,trial,16143537.0,16144604.0,1067.0,23,R,16143244,16143688,446,937.2,533.4,4040,NA
66,1,binary,23,1,trial,16143537.0,16144604.0,1067.0,23,R,16143726,16143918,194,585.5,498.3,4259,left
66,1,binary,23,1,trial,16143537.0,16144604.0,1067.0,23,R,16143944,16144382,440,415.3,540.9,3915,left
66,1,binary,23,1,trial,16143537.0,16144604.0,1067.0,23,R,16144406,16144494,90,498.7,484.3,3838,left
66,1,binary,23,1,trial,16143537.0,16144604.0,1067.0,23,R,16144568,16144770,204,1473.5,466.8,3763,right
66,1,binary,24,2,fixationCross,16145654.0,16147153.0,1499.0,24,R,16145106,16145152,48,821.9,435.6,4005,NA
66,1,binary,24,2,fixationCross,16145654.0,16147153.0,1499.0,24,R,16145180,16145340,162,823.4,444.8,4154,NA
66,1,binary,24,2,trial,16145654.0,16147153.0,1499.0,24,R,16145366,16145778,414,940.0,528.2,4256,NA
66,1,binary,24,2,trial,16145654.0,16147153.0,1499.0,24,R,16145828,16146006,180,474.2,529.9,4115,left
66,1,binary,24,2,trial,16145654.0,16147153.0,1499.0,24,R,16146026,16146144,120,370.8,577.3,3920,left
66,1,binary,24,2,trial,16145654.0,16147153.0,1499.0,24,R,16146166,16146304,140,412.9,638.2,3815,left
66,1,binary,24,2,trial,16145654.0,16147153.0,1499.0,24,R,16146376,16146720,346,1385.8,591.9,3649,right
66,1,binary,24,2,trial,16145654.0,16147153.0,1499.0,24,R,16146740,16147282,544,1440.9,612.3,3697,right
66,1,binary,24,2,postResponse,16145654.0,16147153.0,1499.0,24,R,16147362,16147486,126,626.2,386.1,3937,left
66,1,binary,25,2,fixationCross,16148187.0,16149620.0,1433.0,25,R,16147562,16147706,146,640.8,395.1,4060,left
66,1,binary,25,2,fixationCross,16148187.0,16149620.0,1433.0,25,R,16147756,16147904,150,843.6,518.2,4152,NA
66,1,binary,25,2,trial,16148187.0,16149620.0,1433.0,25,R,16147928,16148360,434,942.5,543.3,4198,NA
66,1,binary,25,2,trial,16148187.0,16149620.0,1433.0,25,R,16148408,16148682,276,569.9,545.8,4239,left
66,1,binary,25,2,trial,16148187.0,16149620.0,1433.0,25,R,16148694,16149018,326,532.2,558.5,4066,left
66,1,binary,25,2,trial,16148187.0,16149620.0,1433.0,25,R,16149034,16149192,160,454.1,532.4,4064,left
66,1,binary,25,2,trial,16148187.0,16149620.0,1433.0,25,R,16149264,16149630,368,1405.0,602.5,3939,right
66,1,binary,25,2,trial,16148187.0,16149620.0,1433.0,25,R,16149676,16149874,200,1482.2,965.6,3963,NA
66,1,binary,26,1,fixationCross,16222821.0,16224988.0,2167.0,26,R,16222480,16222642,164,928.3,449.2,4490,NA
66,1,binary,26,1,trial,16222821.0,16224988.0,2167.0,26,R,16222664,16222842,180,974.0,521.6,4625,NA
66,1,binary,26,1,trial,16222821.0,16224988.0,2167.0,26,R,16222854,16223076,224,991.1,555.9,4504,NA
66,1,binary,26,1,trial,16222821.0,16224988.0,2167.0,26,R,16223126,16223156,32,589.2,537.7,4448,left
66,1,binary,26,1,trial,16222821.0,16224988.0,2167.0,26,R,16223190,16223424,236,459.3,544.6,4250,left
66,1,binary,26,1,trial,16222821.0,16224988.0,2167.0,26,R,16223450,16223630,182,588.6,534.7,4065,left
66,1,binary,26,1,trial,16222821.0,16224988.0,2167.0,26,R,16223698,16223944,248,1406.2,516.5,3841,right
66,1,binary,26,1,trial,16222821.0,16224988.0,2167.0,26,R,16223958,16224188,232,1457.3,516.6,3780,right
66,1,binary,26,1,trial,16222821.0,16224988.0,2167.0,26,R,16224264,16224496,234,525.3,522.2,3776,left
66,1,binary,26,1,trial,16222821.0,16224988.0,2167.0,26,R,16224512,16225178,668,482.4,530.3,3830,left
66,1,binary,26,1,postResponse,16222821.0,16224988.0,2167.0,26,R,16225220,16225322,104,896.9,458.5,3992,NA
66,1,binary,27,1,fixationCross,16225888.0,16227254.0,1366.0,27,R,16225422,16225438,18,896.0,464.3,4067,NA
66,1,binary,27,1,fixationCross,16225888.0,16227254.0,1366.0,27,R,16225594,16225764,172,923.4,479.0,4308,NA
66,1,binary,27,1,trial,16225888.0,16227254.0,1366.0,27,R,16225786,16226030,246,997.2,530.5,4577,NA
66,1,binary,27,1,trial,16225888.0,16227254.0,1366.0,27,R,16226098,16226320,224,1467.4,496.3,4470,right
66,1,binary,27,1,trial,16225888.0,16227254.0,1366.0,27,R,16226394,16226644,252,464.1,544.6,4165,left
66,1,binary,27,1,trial,16225888.0,16227254.0,1366.0,27,R,16226656,16227164,510,397.7,532.7,3836,left
66,1,binary,27,1,trial,16225888.0,16227254.0,1366.0,27,R,16227256,16227546,292,1326.5,464.6,3661,right
66,1,binary,28,2,fixationCross,16228271.0,16229855.0,1584.0,28,R,16227760,16227948,190,775.2,446.1,3994,NA
66,1,binary,28,2,trial,16228271.0,16229855.0,1584.0,28,R,16227974,16228426,454,954.6,471.7,4152,NA
66,1,binary,28,2,trial,16228271.0,16229855.0,1584.0,28,R,16228480,16228650,172,500.6,498.5,4306,left
66,1,binary,28,2,trial,16228271.0,16229855.0,1584.0,28,R,16228670,16228822,154,413.7,538.3,3963,left
66,1,binary,28,2,trial,16228271.0,16229855.0,1584.0,28,R,16228838,16229034,198,452.1,539.3,3760,left
66,1,binary,28,2,trial,16228271.0,16229855.0,1584.0,28,R,16229108,16229410,304,1425.3,570.6,3564,right
66,1,binary,28,2,trial,16228271.0,16229855.0,1584.0,28,R,16229424,16229740,318,1431.6,604.1,3599,right
66,1,binary,28,2,trial,16228271.0,16229855.0,1584.0,28,R,16229754,16229984,232,1402.3,622.0,3584,right
66,1,binary,28,2,postResponse,16228271.0,16229855.0,1584.0,28,R,16230038,16230186,150,868.4,506.9,3649,NA
66,1,binary,29,1,fixationCross,16230771.0,16232105.0,1334.0,29,R,16230286,16230432,148,877.9,513.8,3737,NA
66,1,binary,29,1,fixationCross,16230771.0,16232105.0,1334.0,29,R,16230454,16230700,248,994.3,491.9,3976,NA
66,1,binary,29,1,trial,16230771.0,16232105.0,1334.0,29,R,16230718,16230924,208,973.4,539.3,4109,NA
66,1,binary,29,1,trial,16230771.0,16232105.0,1334.0,29,R,16230980,16231212,234,1418.3,477.3,4065,right
66,1,binary,29,1,trial,16230771.0,16232105.0,1334.0,29,R,16231286,16231548,264,496.2,513.6,3904,left
66,1,binary,29,1,trial,16230771.0,16232105.0,1334.0,29,R,16231562,16232088,528,439.7,535.8,3773,left
66,1,binary,29,1,trial,16230771.0,16232105.0,1334.0,29,R,16232114,16232342,230,551.4,508.6,3826,left
66,1,binary,29,1,postResponse,16230771.0,16232105.0,1334.0,29,R,16232384,16232436,54,851.8,499.8,3856,NA
66,1,binary,30,1,fixationCross,16233005.0,16234672.0,1667.0,30,R,16232542,16232544,4,953.5,626.0,3798,NA
66,1,binary,30,1,fixationCross,16233005.0,16234672.0,1667.0,30,R,16232576,16232748,174,964.8,575.9,3935,NA
66,1,binary,30,1,fixationCross,16233005.0,16234672.0,1667.0,30,R,16232768,16232964,198,1027.3,499.6,4100,NA
66,1,binary,30,1,trial,16233005.0,16234672.0,1667.0,30,R,16232982,16233172,192,964.1,534.7,4181,NA
66,1,binary,30,1,trial,16233005.0,16234672.0,1667.0,30,R,16233222,16233692,472,491.8,529.6,3958,left
66,1,binary,30,1,trial,16233005.0,16234672.0,1667.0,30,R,16233706,16234002,298,433.9,526.3,3736,left
66,1,binary,30,1,trial,16233005.0,16234672.0,1667.0,30,R,16234024,16234214,192,560.3,544.4,3839,left
66,1,binary,30,1,trial,16233005.0,16234672.0,1667.0,30,R,16234230,16234596,368,591.3,563.6,3834,left
66,1,binary,30,1,trial,16233005.0,16234672.0,1667.0,30,R,16234664,16234954,292,1429.4,526.5,3648,right
66,1,binary,31,2,fixationCross,16235704.0,16237688.0,1984.0,31,R,16235290,16235382,94,714.5,493.4,3985,left
66,1,binary,31,2,trial,16235704.0,16237688.0,1984.0,31,R,16235408,16235842,436,976.0,525.8,4217,NA
66,1,binary,31,2,trial,16235704.0,16237688.0,1984.0,31,R,16235884,16236152,270,589.7,490.3,4226,left
66,1,binary,31,2,trial,16235704.0,16237688.0,1984.0,31,R,16236168,16236310,144,513.6,505.8,3963,left
66,1,binary,31,2,trial,16235704.0,16237688.0,1984.0,31,R,16236336,16236456,122,458.6,593.8,3783,left
66,1,binary,31,2,trial,16235704.0,16237688.0,1984.0,31,R,16236520,16236848,330,1404.7,499.4,3558,right
66,1,binary,31,2,trial,16235704.0,16237688.0,1984.0,31,R,16236862,16237238,378,1438.4,528.6,3523,right
66,1,binary,31,2,trial,16235704.0,16237688.0,1984.0,31,R,16237250,16237506,258,1474.1,543.1,3596,right
66,1,binary,31,2,trial,16235704.0,16237688.0,1984.0,31,R,16237530,16237956,428,1552.6,461.4,3752,right
66,1,binary,32,2,fixationCross,16238755.0,16240688.0,1933.0,32,R,16238096,16238318,224,734.1,489.5,4042,left
66,1,binary,32,2,fixationCross,16238755.0,16240688.0,1933.0,32,R,16238336,16238454,120,832.6,507.5,4078,NA
66,1,binary,32,2,trial,16238755.0,16240688.0,1933.0,32,R,16238476,16238904,430,957.6,548.5,4216,NA
66,1,binary,32,2,trial,16238755.0,16240688.0,1933.0,32,R,16238952,16239204,254,539.5,496.4,4357,left
66,1,binary,32,2,trial,16238755.0,16240688.0,1933.0,32,R,16239266,16239488,224,1381.4,524.9,3805,right
66,1,binary,32,2,trial,16238755.0,16240688.0,1933.0,32,R,16239510,16239756,248,1421.1,574.5,3701,right
66,1,binary,32,2,trial,16238755.0,16240688.0,1933.0,32,R,16239774,16239932,160,1427.4,630.3,3815,right
66,1,binary,32,2,trial,16238755.0,16240688.0,1933.0,32,R,16240008,16240210,204,491.4,497.1,4005,left
66,1,binary,32,2,trial,16238755.0,16240688.0,1933.0,32,R,16240228,16240584,358,491.8,418.5,3859,left
66,1,binary,32,2,trial,16238755.0,16240688.0,1933.0,32,R,16240662,16241002,342,1506.3,539.8,3610,right
66,1,binary,33,2,fixationCross,16241738.0,16243621.0,1883.0,33,R,16241122,16241432,312,789.4,461.6,4093,NA
66,1,binary,33,2,trial,16241738.0,16243621.0,1883.0,33,R,16241460,16241882,424,1003.8,533.7,4312,NA
66,1,binary,33,2,trial,16241738.0,16243621.0,1883.0,33,R,16241932,16242074,144,585.2,530.6,4495,left
66,1,binary,33,2,trial,16241738.0,16243621.0,1883.0,33,R,16242096,16242246,152,529.7,581.8,4385,left
66,1,binary,33,2,trial,16241738.0,16243621.0,1883.0,33,R,16242316,16242488,174,1406.5,541.4,4050,right
66,1,binary,33,2,trial,16241738.0,16243621.0,1883.0,33,R,16242514,16242850,338,1512.0,612.9,3805,right
66,1,binary,33,2,trial,16241738.0,16243621.0,1883.0,33,R,16242926,16243622,698,517.4,579.0,3785,left
66,1,binary,33,2,postResponse,16241738.0,16243621.0,1883.0,33,R,16243694,16243956,264,1314.4,482.8,3637,right
66,1,binary,34,2,fixationCross,16244722.0,16246571.0,1849.0,34,R,16244062,16244388,328,647.8,519.4,3891,left
66,1,binary,34,2,fixationCross,16244722.0,16246571.0,1849.0,34,R,16244420,16244554,136,932.7,534.9,4037,NA
66,1,binary,34,2,trial,16244722.0,16246571.0,1849.0,34,R,16244568,16244866,300,978.9,536.5,4087,NA
66,1,binary,34,2,trial,16244722.0,16246571.0,1849.0,34,R,16244912,16245048,138,563.6,499.2,4297,left
66,1,binary,34,2,trial,16244722.0,16246571.0,1849.0,34,R,16245068,16245332,266,471.2,485.0,3985,left
66,1,binary,34,2,trial,16244722.0,16246571.0,1849.0,34,R,16245404,16245558,156,1460.7,494.8,3642,right
66,1,binary,34,2,trial,16244722.0,16246571.0,1849.0,34,R,16245584,16245800,218,1626.9,565.5,3647,right
66,1,binary,34,2,trial,16244722.0,16246571.0,1849.0,34,R,16245834,16246106,274,1386.9,476.3,3779,right
66,1,binary,34,2,trial,16244722.0,16246571.0,1849.0,34,R,16246114,16246424,312,1407.7,465.6,3789,right
66,1,binary,34,2,trial,16244722.0,16246571.0,1849.0,34,R,16246454,16246606,154,1610.3,518.1,3856,right
66,1,binary,34,2,trial,16244722.0,16246571.0,1849.0,34,R,16246620,16246818,200,1616.2,552.1,3906,right
66,1,binary,35,2,fixationCross,16247621.0,16249371.0,1750.0,35,R,16247106,16247288,184,455.8,375.8,4243,left
66,1,binary,35,2,fixationCross,16247621.0,16249371.0,1750.0,35,R,16247338,16247604,268,869.8,516.5,4365,NA
66,1,binary,35,2,trial,16247621.0,16249371.0,1750.0,35,R,16247624,16247766,144,940.1,508.0,4176,NA
66,1,binary,35,2,trial,16247621.0,16249371.0,1750.0,35,R,16247816,16247936,122,526.2,506.7,4160,left
66,1,binary,35,2,trial,16247621.0,16249371.0,1750.0,35,R,16247954,16248182,230,455.2,519.6,4042,left
66,1,binary,35,2,trial,16247621.0,16249371.0,1750.0,35,R,16248256,16248594,340,1446.7,514.0,3801,right
66,1,binary,35,2,trial,16247621.0,16249371.0,1750.0,35,R,16248618,16249632,1016,1562.8,505.3,3818,right
66,1,binary,36,2,trial,16250288.0,16252522.0,2234.0,36,R,16250002,16250300,300,980.3,504.1,4383,NA
66,1,binary,36,2,trial,16250288.0,16252522.0,2234.0,36,R,16250308,16250444,138,970.3,536.6,4362,NA
66,1,binary,36,2,trial,16250288.0,16252522.0,2234.0,36,R,16250496,16250626,132,488.0,571.1,4165,left
66,1,binary,36,2,trial,16250288.0,16252522.0,2234.0,36,R,16250646,16250886,242,416.1,595.8,3851,left
66,1,binary,36,2,trial,16250288.0,16252522.0,2234.0,36,R,16250904,16251096,194,352.2,516.2,3677,left
66,1,binary,36,2,trial,16250288.0,16252522.0,2234.0,36,R,16251166,16251386,222,1355.5,538.1,3691,right
66,1,binary,36,2,trial,16250288.0,16252522.0,2234.0,36,R,16251406,16251662,258,1451.8,553.7,3755,right
66,1,binary,36,2,trial,16250288.0,16252522.0,2234.0,36,R,16251678,16251940,264,1522.1,563.1,3828,right
66,1,binary,36,2,trial,16250288.0,16252522.0,2234.0,36,R,16251964,16252368,406,1354.1,551.4,3706,right
66,1,binary,36,2,postResponse,16250288.0,16252522.0,2234.0,36,R,16252574,16252854,282,1497.5,520.3,3836,right
66,1,binary,37,2,fixationCross,16253555.0,16254955.0,1400.0,37,R,16252930,16252970,42,1494.4,521.4,3965,right
66,1,binary,37,2,fixationCross,16253555.0,16254955.0,1400.0,37,R,16253276,16253514,240,916.7,504.9,4243,NA
66,1,binary,37,2,trial,16253555.0,16254955.0,1400.0,37,R,16253532,16253704,174,965.9,546.8,4355,NA
66,1,binary,37,2,trial,16253555.0,16254955.0,1400.0,37,R,16253750,16253942,194,574.1,510.9,4191,left
66,1,binary,37,2,trial,16253555.0,16254955.0,1400.0,37,R,16253954,16254336,384,527.7,490.1,3831,left
66,1,binary,37,2,trial,16253555.0,16254955.0,1400.0,37,R,16254410,16254784,376,1467.0,625.0,3588,right
66,1,binary,37,2,trial,16253555.0,16254955.0,1400.0,37,R,16254800,16255250,452,1459.2,524.0,3552,right
66,1,binary,38,1,fixationCross,16255988.0,16258239.0,2251.0,38,R,16255362,16255682,322,752.5,483.5,3913,NA
66,1,binary,38,1,fixationCross,16255988.0,16258239.0,2251.0,38,R,16255708,16255810,104,923.2,524.1,4096,NA
66,1,binary,38,1,trial,16255988.0,16258239.0,2251.0,38,R,16255828,16256134,308,970.5,556.3,4142,NA
66,1,binary,38,1,trial,16255988.0,16258239.0,2251.0,38,R,16256180,16256342,164,554.9,520.5,4287,left
66,1,binary,38,1,trial,16255988.0,16258239.0,2251.0,38,R,16256364,16256544,182,460.4,463.7,4063,left
66,1,binary,38,1,trial,16255988.0,16258239.0,2251.0,38,R,16256622,16256836,216,1559.3,480.8,3681,right
66,1,binary,38,1,trial,16255988.0,16258239.0,2251.0,38,R,16256856,16257362,508,1616.5,461.6,3671,right
66,1,binary,38,1,trial,16255988.0,16258239.0,2251.0,38,R,16257440,16257566,128,496.9,472.7,3817,left
66,1,binary,38,1,trial,16255988.0,16258239.0,2251.0,38,R,16257584,16258148,566,440.9,436.5,3676,left
66,1,binary,38,1,postResponse,16255988.0,16258239.0,2251.0,38,R,16258194,16258572,380,566.9,670.9,3720,left
66,1,binary,39,1,fixationCross,16259288.0,16260838.0,1550.0,39,R,16258646,16258716,72,569.6,662.9,3860,left
66,1,binary,39,1,trial,16259288.0,16260838.0,1550.0,39,R,16259154,16259444,292,966.3,539.0,4244,NA
66,1,binary,39,1,trial,16259288.0,16260838.0,1550.0,39,R,16259490,16259782,294,601.0,481.4,4099,left
66,1,binary,39,1,trial,16259288.0,16260838.0,1550.0,39,R,16259802,16259986,186,531.3,523.1,3870,left
66,1,binary,39,1,trial,16259288.0,16260838.0,1550.0,39,R,16260012,16260134,124,597.9,662.3,3841,left
66,1,binary,39,1,trial,16259288.0,16260838.0,1550.0,39,R,16260208,16260382,176,1498.0,570.1,3708,right
66,1,binary,39,1,trial,16259288.0,16260838.0,1550.0,39,R,16260402,16260582,182,1560.8,528.4,3667,right
66,1,binary,39,1,postResponse,16259288.0,16260838.0,1550.0,39,R,16260594,16261170,578,1583.8,510.9,3836,right
66,1,binary,40,2,fixationCross,16261871.0,16263021.0,1150.0,40,R,16261244,16261448,206,1212.5,480.4,3983,right
66,1,binary,40,2,fixationCross,16261871.0,16263021.0,1150.0,40,R,16261500,16261632,134,836.2,507.3,4139,NA
66,1,binary,40,2,trial,16261871.0,16263021.0,1150.0,40,R,16261656,16261922,268,950.5,527.0,4173,NA
66,1,binary,40,2,trial,16261871.0,16263021.0,1150.0,40,R,16261934,16262038,106,983.1,531.9,4175,NA
66,1,binary,40,2,trial,16261871.0,16263021.0,1150.0,40,R,16262086,16262272,188,1404.1,469.1,4153,right
66,1,binary,40,2,trial,16261871.0,16263021.0,1150.0,40,R,16262292,16262724,434,1483.2,451.4,4006,right
66,1,binary,40,2,trial,16261871.0,16263021.0,1150.0,40,R,16262804,16263044,242,507.9,580.6,4065,left
66,1,binary,40,2,postResponse,16261871.0,16263021.0,1150.0,40,R,16263070,16263356,288,456.5,494.8,3916,left
66,1,binary,41,1,fixationCross,16264022.0,16265488.0,1466.0,41,R,16263432,16263694,264,463.0,479.9,3910,left
66,1,binary,41,1,fixationCross,16264022.0,16265488.0,1466.0,41,R,16263768,16263894,128,1010.5,518.9,4086,NA
66,1,binary,41,1,trial,16264022.0,16265488.0,1466.0,41,R,16263912,16264174,264,966.2,554.0,4073,NA
66,1,binary,41,1,trial,16264022.0,16265488.0,1466.0,41,R,16264230,16264390,162,1485.8,476.2,4049,right
66,1,binary,41,1,trial,16264022.0,16265488.0,1466.0,41,R,16264408,16264848,442,1454.3,423.5,3843,right
66,1,binary,41,1,trial,16264022.0,16265488.0,1466.0,41,R,16264922,16265090,170,435.8,558.3,3913,left
66,1,binary,41,1,trial,16264022.0,16265488.0,1466.0,41,R,16265110,16265660,552,368.7,592.1,3806,left
66,1,binary,42,1,fixationCross,16266588.0,16268271.0,1683.0,42,R,16265912,16266142,232,460.9,515.5,4055,left
66,1,binary,42,1,fixationCross,16266588.0,16268271.0,1683.0,42,R,16266216,16266330,116,1095.9,489.0,4190,NA
66,1,binary,42,1,trial,16266588.0,16268271.0,1683.0,42,R,16266354,16266730,378,958.0,545.5,4028,NA
66,1,binary,42,1,trial,16266588.0,16268271.0,1683.0,42,R,16266786,16267044,260,1458.6,490.0,4073,right
66,1,binary,42,1,trial,16266588.0,16268271.0,1683.0,42,R,16267064,16267184,122,1535.1,544.5,3898,right
66,1,binary,42,1,trial,16266588.0,16268271.0,1683.0,42,R,16267258,16267508,252,557.7,638.9,3905,left
66,1,binary,42,1,trial,16266588.0,16268271.0,1683.0,42,R,16267528,16267676,150,640.1,617.7,3868,left
66,1,binary,42,1,postResponse,16266588.0,16268271.0,1683.0,42,R,16267702,16268606,906,467.8,575.7,3877,left
66,1,binary,43,1,fixationCross,16269422.0,16271539.0,2117.0,43,R,16268706,16268752,48,472.2,559.5,3938,left
66,1,binary,43,1,fixationCross,16269422.0,16271539.0,2117.0,43,R,16269034,16269128,96,852.0,488.2,4049,NA
66,1,binary,43,1,trial,16269422.0,16271539.0,2117.0,43,R,16269148,16269556,410,962.0,535.1,4227,NA
66,1,binary,43,1,trial,16269422.0,16271539.0,2117.0,43,R,16269602,16269730,130,1335.4,534.4,4095,right
66,1,binary,43,1,trial,16269422.0,16271539.0,2117.0,43,R,16269756,16269976,222,1546.0,473.0,3842,right
66,1,binary,43,1,trial,16269422.0,16271539.0,2117.0,43,R,16270004,16270140,138,1326.5,535.5,3736,right
66,1,binary,43,1,trial,16269422.0,16271539.0,2117.0,43,R,16270214,16270576,364,404.2,501.4,3757,left
66,1,binary,43,1,trial,16269422.0,16271539.0,2117.0,43,R,16270594,16270730,138,378.8,544.2,3699,left
66,1,binary,43,1,trial,16269422.0,16271539.0,2117.0,43,R,16270748,16270996,250,301.3,594.4,3708,left
66,1,binary,43,1,trial,16269422.0,16271539.0,2117.0,43,R,16271018,16271226,210,408.1,565.4,3693,left
66,1,binary,43,1,trial,16269422.0,16271539.0,2117.0,43,R,16271252,16271552,302,452.6,460.8,3646,left
66,1,binary,43,1,postResponse,16269422.0,16271539.0,2117.0,43,R,16271580,16271872,294,375.9,578.8,3717,left
66,1,binary,44,1,fixationCross,16272605.0,16274272.0,1667.0,44,R,16271962,16271968,8,543.3,573.9,3850,left
66,1,binary,44,1,fixationCross,16272605.0,16274272.0,1667.0,44,R,16271976,16272270,296,630.6,551.1,3892,left
66,1,binary,44,1,fixationCross,16272605.0,16274272.0,1667.0,44,R,16272298,16272454,158,915.3,539.1,4002,NA
66,1,binary,44,1,trial,16272605.0,16274272.0,1667.0,44,R,16272466,16272792,328,955.6,549.4,4112,NA
66,1,binary,44,1,trial,16272605.0,16274272.0,1667.0,44,R,16272838,16272980,144,620.5,493.4,4278,left
66,1,binary,44,1,trial,16272605.0,16274272.0,1667.0,44,R,16273002,16273290,290,550.6,518.8,4141,left
66,1,binary,44,1,trial,16272605.0,16274272.0,1667.0,44,R,16273360,16274496,1138,1346.5,452.6,3866,right
66,1,binary,45,1,fixationCross,16275305.0,16276722.0,1417.0,45,R,16274800,16274996,198,851.6,490.8,4276,NA
66,1,binary,45,1,trial,16275305.0,16276722.0,1417.0,45,R,16275024,16275448,426,973.4,533.1,4327,NA
66,1,binary,45,1,trial,16275305.0,16276722.0,1417.0,45,R,16275490,16275710,222,534.6,500.1,4073,left
66,1,binary,45,1,trial,16275305.0,16276722.0,1417.0,45,R,16275778,16276238,462,1427.5,536.2,3575,right
66,1,binary,45,1,trial,16275305.0,16276722.0,1417.0,45,R,16276312,16276482,172,515.0,581.2,3724,left
66,1,binary,45,1,postResponse,16275305.0,16276722.0,1417.0,45,R,16276504,16277056,554,645.1,584.5,3629,left
66,1,binary,46,1,fixationCross,16277805.0,16279038.0,1233.0,46,R,16277156,16277358,204,658.2,565.4,3750,left
66,1,binary,46,1,fixationCross,16277805.0,16279038.0,1233.0,46,R,16277428,16277560,134,1131.3,480.4,3876,NA
66,1,binary,46,1,trial,16277805.0,16279038.0,1233.0,46,R,16277586,16277972,388,961.5,528.1,3929,NA
66,1,binary,46,1,trial,16277805.0,16279038.0,1233.0,46,R,16278010,16278298,290,664.2,513.3,4088,left
66,1,binary,46,1,trial,16277805.0,16279038.0,1233.0,46,R,16278356,16278906,552,1387.2,504.7,3676,right
66,1,binary,46,1,trial,16277805.0,16279038.0,1233.0,46,R,16278932,16279224,294,1427.3,625.7,3794,right
66,1,binary,46,1,trial,16277805.0,16279038.0,1233.0,46,R,16279252,16279340,90,1437.2,599.6,3847,right
66,1,binary,47,1,fixationCross,16280105.0,16281655.0,1550.0,47,R,16279472,16279798,328,1198.7,535.9,3957,right
66,1,binary,47,1,fixationCross,16280105.0,16281655.0,1550.0,47,R,16279824,16279864,42,1013.8,537.4,4106,NA
66,1,binary,47,1,fixationCross,16280105.0,16281655.0,1550.0,47,R,16279878,16280008,132,934.8,545.4,4122,NA
66,1,binary,47,1,trial,16280105.0,16281655.0,1550.0,47,R,16280020,16280240,222,972.2,542.9,4134,NA
66,1,binary,47,1,trial,16280105.0,16281655.0,1550.0,47,R,16280288,16280474,188,600.7,510.7,4189,left
66,1,binary,47,1,trial,16280105.0,16281655.0,1550.0,47,R,16280500,16280886,388,495.1,580.2,3919,left
66,1,binary,47,1,trial,16280105.0,16281655.0,1550.0,47,R,16280968,16281864,898,1476.5,565.9,3754,right
66,1,binary,48,1,fixationCross,16282672.0,16283921.0,1249.0,48,R,16282314,16282348,36,847.7,483.0,4301,NA
66,1,binary,48,1,trial,16282672.0,16283921.0,1249.0,48,R,16282398,16282816,420,1004.4,526.7,4273,NA
66,1,binary,48,1,trial,16282672.0,16283921.0,1249.0,48,R,16282862,16283028,168,547.9,532.8,4069,left
66,1,binary,48,1,trial,16282672.0,16283921.0,1249.0,48,R,16283050,16283264,216,453.8,529.3,3812,left
66,1,binary,48,1,trial,16282672.0,16283921.0,1249.0,48,R,16283336,16283546,212,1403.7,550.2,3520,right
66,1,binary,48,1,trial,16282672.0,16283921.0,1249.0,48,R,16283560,16284228,670,1458.0,550.1,3470,right
66,1,binary,49,2,fixationCross,16285005.0,16285989.0,984.0,49,R,16284354,16284578,226,1137.0,452.7,3685,NA
66,1,binary,49,2,fixationCross,16285005.0,16285989.0,984.0,49,R,16284618,16284758,142,862.4,478.5,3833,NA
66,1,binary,49,2,trial,16285005.0,16285989.0,984.0,49,R,16284782,16285164,384,957.7,533.6,3979,NA
66,1,binary,49,2,trial,16285005.0,16285989.0,984.0,49,R,16285212,16285310,100,598.1,531.3,4072,left
66,1,binary,49,2,trial,16285005.0,16285989.0,984.0,49,R,16285374,16285600,228,1364.2,502.9,3785,right
66,1,binary,49,2,trial,16285005.0,16285989.0,984.0,49,R,16285612,16286300,690,1380.5,469.3,3677,right
66,1,binary,50,1,fixationCross,16287022.0,16288405.0,1383.0,50,R,16286416,16286724,310,1132.5,374.2,4052,NA
66,1,binary,50,1,trial,16287022.0,16288405.0,1383.0,50,R,16286762,16287162,402,972.5,531.5,4291,NA
66,1,binary,50,1,trial,16287022.0,16288405.0,1383.0,50,R,16287206,16287346,142,609.0,501.2,4233,left
66,1,binary,50,1,trial,16287022.0,16288405.0,1383.0,50,R,16287372,16287646,276,463.4,563.1,4024,left
66,1,binary,50,1,trial,16287022.0,16288405.0,1383.0,50,R,16287732,16287956,226,1351.2,446.0,3693,right
66,1,binary,50,1,trial,16287022.0,16288405.0,1383.0,50,R,16287984,16288130,148,1515.8,549.4,3637,right
66,1,binary,50,1,trial,16287022.0,16288405.0,1383.0,50,R,16288158,16288316,160,1314.3,612.8,3833,right
66,1,binary,50,1,postResponse,16287022.0,16288405.0,1383.0,50,R,16288338,16288740,404,1395.8,525.4,3843,right
66,2,continuous,1,77,fixationCross,16394707.0,16401490.0,6783.0,51,L,16394249,16394387,140,1046.5,862.3,4664,likertHorizontal
66,2,continuous,1,77,trial,16394707.0,16401490.0,6783.0,51,L,16394439,16394727,290,916.9,553.8,4749,NA
66,2,continuous,1,77,trial,16394707.0,16401490.0,6783.0,51,L,16394741,16394867,128,943.1,532.4,4846,NA
66,2,continuous,1,77,trial,16394707.0,16401490.0,6783.0,51,L,16394907,16394963,58,553.8,508.4,4901,left
66,2,continuous,1,77,trial,16394707.0,16401490.0,6783.0,51,L,16394989,16395227,240,481.2,483.8,4792,left
66,2,continuous,1,77,trial,16394707.0,16401490.0,6783.0,51,L,16395243,16395515,274,550.6,493.2,4434,left
66,2,continuous,1,77,trial,16394707.0,16401490.0,6783.0,51,L,16395567,16395837,272,749.4,896.9,4323,likertHorizontal
66,2,continuous,1,77,trial,16394707.0,16401490.0,6783.0,51,L,16395865,16396059,196,958.1,1008.3,4383,likertHorizontal
66,2,continuous,1,77,trial,16394707.0,16401490.0,6783.0,51,L,16396083,16396231,150,801.3,989.3,4557,likertHorizontal
66,2,continuous,1,77,trial,16394707.0,16401490.0,6783.0,51,L,16396293,16396469,178,534.3,633.1,4592,left
66,2,continuous,1,77,trial,16394707.0,16401490.0,6783.0,51,L,16396487,16396719,234,573.2,588.5,4434,left
66,2,continuous,1,77,trial,16394707.0,16401490.0,6783.0,51,L,16396785,16397683,900,1438.8,560.1,4318,right
66,2,continuous,1,77,trial,16394707.0,16401490.0,6783.0,51,L,16397759,16398083,326,534.7,519.3,4364,left
66,2,continuous,1,77,trial,16394707.0,16401490.0,6783.0,51,L,16398105,16398355,252,435.5,476.9,4228,left
66,2,continuous,1,77,trial,16394707.0,16401490.0,6783.0,51,L,16398371,16398539,170,502.0,472.0,4190,left
66,2,continuous,1,77,trial,16394707.0,16401490.0,6783.0,51,L,16398555,16398971,418,560.1,468.1,4150,left
66,2,continuous,1,77,trial,16394707.0,16401490.0,6783.0,51,L,16398999,16399305,308,553.3,605.1,4126,left
66,2,continuous,1,77,trial,16394707.0,16401490.0,6783.0,51,L,16399369,16399579,212,1374.0,568.1,4074,right
66,2,continuous,1,77,trial,16394707.0,16401490.0,6783.0,51,L,16399627,16399955,330,1415.9,994.6,4164,NA
66,2,continuous,1,77,trial,16394707.0,16401490.0,6783.0,51,L,16399977,16400151,176,1310.3,981.8,4270,NA
66,2,continuous,1,77,trial,16394707.0,16401490.0,6783.0,51,L,16400173,16400405,234,1432.5,989.9,4437,NA
66,2,continuous,1,77,trial,16394707.0,16401490.0,6783.0,51,L,16400429,16400731,304,1331.1,968.2,4639,NA
66,2,continuous,1,77,trial,16394707.0,16401490.0,6783.0,51,L,16400799,16401015,218,1341.9,580.5,4609,right
66,2,continuous,1,77,trial,16394707.0,16401490.0,6783.0,51,L,16401027,16401177,152,1408.8,590.0,4533,right
66,2,continuous,1,77,trial,16394707.0,16401490.0,6783.0,51,L,16401225,16401487,264,1269.5,1006.9,4485,NA
66,2,continuous,1,77,trial,16394707.0,16401490.0,6783.0,51,L,16401497,16401631,136,1243.8,999.0,4412,NA
66,2,continuous,1,77,postResponse,16394707.0,16401490.0,6783.0,51,L,16401691,16401821,132,950.9,557.1,4526,NA
66,2,continuous,2,1,trial,16402423.0,16405056.0,2633.0,52,L,16402157,16402601,446,950.7,539.0,4942,NA
66,2,continuous,2,1,trial,16402423.0,16405056.0,2633.0,52,L,16402653,16402837,186,484.1,507.1,4580,left
66,2,continuous,2,1,trial,16402423.0,16405056.0,2633.0,52,L,16402859,16403183,326,482.7,596.9,4289,left
66,2,continuous,2,1,trial,16402423.0,16405056.0,2633.0,52,L,16403201,16403455,256,538.0,666.8,4171,left
66,2,continuous,2,1,trial,16402423.0,16405056.0,2633.0,52,L,16403531,16403827,298,1457.4,451.2,4093,right
66,2,continuous,2,1,trial,16402423.0,16405056.0,2633.0,52,L,16403849,16403951,104,1544.0,497.7,4105,right
66,2,continuous,2,1,trial,16402423.0,16405056.0,2633.0,52,L,16404023,16404193,172,588.3,1069.9,4377,NA
66,2,continuous,2,1,trial,16402423.0,16405056.0,2633.0,52,L,16404211,16404463,254,544.1,1036.2,4321,NA
66,2,continuous,2,1,trial,16402423.0,16405056.0,2633.0,52,L,16404531,16404697,168,578.4,593.8,4308,left
66,2,continuous,2,1,trial,16402423.0,16405056.0,2633.0,52,L,16404763,16404885,124,1360.9,489.7,4359,right
66,2,continuous,2,1,trial,16402423.0,16405056.0,2633.0,52,L,16404907,16405169,264,1453.2,463.7,4441,right
66,2,continuous,2,1,trial,16402423.0,16405056.0,2633.0,52,L,16405181,16405255,76,1488.0,465.9,4389,right
66,2,continuous,3,11,fixationCross,16406074.0,16408224.0,2150.0,53,L,16405551,16405735,186,963.8,458.8,4719,NA
66,2,continuous,3,11,fixationCross,16406074.0,16408224.0,2150.0,53,L,16405757,16405901,146,1040.7,456.8,4908,NA
66,2,continuous,3,11,trial,16406074.0,16408224.0,2150.0,53,L,16405925,16406251,328,976.3,537.1,4807,NA
66,2,continuous,3,11,trial,16406074.0,16408224.0,2150.0,53,L,16406311,16406455,146,1338.2,492.4,4632,right
66,2,continuous,3,11,trial,16406074.0,16408224.0,2150.0,53,L,16406481,16406719,240,1540.8,486.0,4402,right
66,2,continuous,3,11,trial,16406074.0,16408224.0,2150.0,53,L,16406797,16406975,180,472.1,549.8,4406,left
66,2,continuous,3,11,trial,16406074.0,16408224.0,2150.0,53,L,16406997,16407175,180,360.1,532.7,4288,left
66,2,continuous,3,11,trial,16406074.0,16408224.0,2150.0,53,L,16407191,16407409,220,443.3,529.2,4079,left
66,2,continuous,3,11,trial,16406074.0,16408224.0,2150.0,53,L,16407461,16407647,188,577.5,1002.9,4029,NA
66,2,continuous,3,11,trial,16406074.0,16408224.0,2150.0,53,L,16407671,16407835,166,724.2,989.5,4180,NA
66,2,continuous,3,11,trial,16406074.0,16408224.0,2150.0,53,L,16407857,16408005,150,619.6,994.7,4255,NA
66,2,continuous,3,11,trial,16406074.0,16408224.0,2150.0,53,L,16408021,16408135,116,554.2,1002.2,4342,NA
66,2,continuous,3,11,trial,16406074.0,16408224.0,2150.0,53,L,16408209,16408527,320,1418.4,478.0,4360,right
66,2,continuous,4,100,fixationCross,16409274.0,16411606.0,2332.0,54,L,16408641,16408967,328,736.4,508.3,4688,left
66,2,continuous,4,100,trial,16409274.0,16411606.0,2332.0,54,L,16408993,16409407,416,945.4,524.0,4878,NA
66,2,continuous,4,100,trial,16409274.0,16411606.0,2332.0,54,L,16409453,16409637,186,551.1,511.5,4821,left
66,2,continuous,4,100,trial,16409274.0,16411606.0,2332.0,54,L,16409659,16409861,204,426.3,495.7,4522,left
66,2,continuous,4,100,trial,16409274.0,16411606.0,2332.0,54,L,16410043,16410183,142,1551.7,567.0,4139,right
66,2,continuous,4,100,trial,16409274.0,16411606.0,2332.0,54,L,16410199,16410523,326,1479.8,597.1,4215,right
66,2,continuous,4,100,trial,16409274.0,16411606.0,2332.0,54,L,16410533,16410627,96,1435.7,590.4,4366,right
66,2,continuous,4,100,trial,16409274.0,16411606.0,2332.0,54,L,16410703,16410969,268,482.3,523.0,4465,left
66,2,continuous,4,100,trial,16409274.0,16411606.0,2332.0,54,L,16410985,16411209,226,418.0,553.0,4320,left
66,2,continuous,4,100,trial,16409274.0,16411606.0,2332.0,54,L,16411283,16411421,140,1404.0,963.6,4203,NA
66,2,continuous,4,100,trial,16409274.0,16411606.0,2332.0,54,L,16411445,16411611,168,1496.5,1011.6,4108,NA
66,2,continuous,4,100,trial,16409274.0,16411606.0,2332.0,54,L,16411675,16411841,168,1512.5,603.0,4132,right
66,2,continuous,4,100,postResponse,16409274.0,16411606.0,2332.0,54,L,16411899,16411941,44,959.5,491.1,4391,NA
66,2,continuous,5,100,fixationCross,16412657.0,16415240.0,2583.0,55,L,16412041,16412119,80,964.0,487.5,4527,NA
66,2,continuous,5,100,fixationCross,16412657.0,16415240.0,2583.0,55,L,16412141,16412369,230,833.5,514.5,4649,NA
66,2,continuous,5,100,fixationCross,16412657.0,16415240.0,2583.0,55,L,16412389,16412459,72,924.9,541.9,4798,NA
66,2,continuous,5,100,trial,16412657.0,16415240.0,2583.0,55,L,16412473,16412801,330,968.9,535.8,4791,NA
66,2,continuous,5,100,trial,16412657.0,16415240.0,2583.0,55,L,16412849,16413007,160,591.4,507.5,4776,left
66,2,continuous,5,100,trial,16412657.0,16415240.0,2583.0,55,L,16413051,16413475,426,567.9,706.2,4351,left
66,2,continuous,5,100,trial,16412657.0,16415240.0,2583.0,55,L,16413511,16413657,148,463.5,486.8,4114,left
66,2,continuous,5,100,trial,16412657.0,16415240.0,2583.0,55,L,16413675,16413915,242,389.1,447.7,4115,left
66,2,continuous,5,100,trial,16412657.0,16415240.0,2583.0,55,L,16413993,16414483,492,1489.1,554.2,3934,right
66,2,continuous,5,100,trial,16412657.0,16415240.0,2583.0,55,L,16414507,16414761,256,1476.5,642.9,3968,right
66,2,continuous,5,100,trial,16412657.0,16415240.0,2583.0,55,L,16414771,16414983,214,1501.1,641.6,4059,right
66,2,continuous,5,100,trial,16412657.0,16415240.0,2583.0,55,L,16415029,16415249,222,1481.4,1004.7,4124,NA
66,2,continuous,5,100,trial,16412657.0,16415240.0,2583.0,55,L,16415307,16415497,192,1373.7,616.5,4089,right
66,2,continuous,6,72,fixationCross,16416273.0,16419790.0,3517.0,56,L,16415649,16415967,320,786.1,557.3,4458,NA
66,2,continuous,6,72,fixationCross,16416273.0,16419790.0,3517.0,56,L,16415991,16416109,120,940.8,557.5,4699,NA
66,2,continuous,6,72,trial,16416273.0,16419790.0,3517.0,56,L,16416125,16416405,282,962.7,529.3,4791,NA
66,2,continuous,6,72,trial,16416273.0,16419790.0,3517.0,56,L,16416445,16416659,216,634.3,540.5,4806,left
66,2,continuous,6,72,trial,16416273.0,16419790.0,3517.0,56,L,16416679,16416749,72,524.8,536.7,4610,left
66,2,continuous,6,72,trial,16416273.0,16419790.0,3517.0,56,L,16416821,16417127,308,1427.2,550.3,4170,right
66,2,continuous,6,72,trial,16416273.0,16419790.0,3517.0,56,L,16417145,16417579,436,1507.3,566.2,4103,right
66,2,continuous,6,72,trial,16416273.0,16419790.0,3517.0,56,L,16417653,16417853,202,644.4,585.1,4176,left
66,2,continuous,6,72,trial,16416273.0,16419790.0,3517.0,56,L,16417873,16418193,322,557.5,548.1,3980,left
66,2,continuous,6,72,trial,16416273.0,16419790.0,3517.0,56,L,16418207,16418337,132,512.5,522.3,3820,left
66,2,continuous,6,72,trial,16416273.0,16419790.0,3517.0,56,L,16418407,16418719,314,1460.0,531.1,3716,right
66,2,continuous,6,72,trial,16416273.0,16419790.0,3517.0,56,L,16418737,16418869,134,1535.6,558.7,3821,right
66,2,continuous,6,72,trial,16416273.0,16419790.0,3517.0,56,L,16418925,16419085,162,1030.2,1067.2,4135,likertHorizontal
66,2,continuous,6,72,trial,16416273.0,16419790.0,3517.0,56,L,16419095,16419269,176,1007.6,1034.8,4081,likertHorizontal
66,2,continuous,6,72,trial,16416273.0,16419790.0,3517.0,56,L,16419299,16419621,324,1277.0,994.1,3966,NA
66,2,continuous,6,72,trial,16416273.0,16419790.0,3517.0,56,L,16419633,16419971,340,1227.2,990.5,4280,NA
66,2,continuous,6,72,postResponse,16416273.0,16419790.0,3517.0,56,L,16420035,16420123,90,874.7,524.8,4665,NA
66,2,continuous,7,1,fixationCross,16420857.0,16422907.0,2050.0,57,L,16420197,16420279,84,863.4,525.5,4736,NA
66,2,continuous,7,1,fixationCross,16420857.0,16422907.0,2050.0,57,L,16420307,16420533,228,700.0,486.5,4780,left
66,2,continuous,7,1,fixationCross,16420857.0,16422907.0,2050.0,57,L,16420559,16420685,128,887.4,531.3,4869,NA
66,2,continuous,7,1,trial,16420857.0,16422907.0,2050.0,57,L,16420703,16420983,282,953.0,509.9,4875,NA
66,2,continuous,7,1,trial,16420857.0,16422907.0,2050.0,57,L,16421029,16421161,134,599.5,518.9,4846,left
66,2,continuous,7,1,trial,16420857.0,16422907.0,2050.0,57,L,16421185,16421399,216,513.9,596.4,4479,left
66,2,continuous,7,1,trial,16420857.0,16422907.0,2050.0,57,L,16421409,16421799,392,533.6,619.7,4107,left
66,2,continuous,7,1,trial,16420857.0,16422907.0,2050.0,57,L,16421873,16422173,302,1504.9,582.0,4012,right
66,2,continuous,7,1,trial,16420857.0,16422907.0,2050.0,57,L,16422191,16422443,254,1596.5,584.5,3902,right
66,2,continuous,7,1,trial,16420857.0,16422907.0,2050.0,57,L,16422531,16422781,252,537.3,957.1,4026,NA
66,2,continuous,7,1,postResponse,16420857.0,16422907.0,2050.0,57,L,16422841,16423249,410,466.9,581.1,4156,left
66,2,continuous,8,92,fixationCross,16423990.0,16427257.0,3267.0,58,L,16423355,16423449,96,844.9,585.8,4346,NA
66,2,continuous,8,92,fixationCross,16423990.0,16427257.0,3267.0,58,L,16423709,16423779,72,939.0,554.0,4714,NA
66,2,continuous,8,92,trial,16423990.0,16427257.0,3267.0,58,L,16423789,16424145,358,968.3,531.8,4783,NA
66,2,continuous,8,92,trial,16423990.0,16427257.0,3267.0,58,L,16424193,16424437,246,544.3,505.5,4501,left
66,2,continuous,8,92,trial,16423990.0,16427257.0,3267.0,58,L,16424513,16424747,236,1443.8,554.6,3961,right
66,2,continuous,8,92,trial,16423990.0,16427257.0,3267.0,58,L,16424765,16425023,260,1529.2,579.7,3838,right
66,2,continuous,8,92,trial,16423990.0,16427257.0,3267.0,58,L,16425051,16425223,174,1307.5,494.5,3821,right
66,2,continuous,8,92,trial,16423990.0,16427257.0,3267.0,58,L,16425277,16425441,166,1354.8,1016.3,3881,NA
66,2,continuous,8,92,trial,16423990.0,16427257.0,3267.0,58,L,16425457,16425611,156,1424.0,1013.8,3920,NA
66,2,continuous,8,92,trial,16423990.0,16427257.0,3267.0,58,L,16425629,16425891,264,1336.7,993.9,4088,NA
66,2,continuous,8,92,trial,16423990.0,16427257.0,3267.0,58,L,16425903,16426139,238,1292.1,982.1,4379,NA
66,2,continuous,8,92,trial,16423990.0,16427257.0,3267.0,58,L,16426191,16426265,76,1255.7,704.2,4503,right
66,2,continuous,8,92,trial,16423990.0,16427257.0,3267.0,58,L,16426331,16426565,236,516.1,581.1,4504,left
66,2,continuous,8,92,trial,16423990.0,16427257.0,3267.0,58,L,16426637,16426751,116,1354.7,608.2,4260,right
66,2,continuous,8,92,trial,16423990.0,16427257.0,3267.0,58,L,16426813,16427063,252,1405.0,1080.5,4178,NA
66,2,continuous,8,92,trial,16423990.0,16427257.0,3267.0,58,L,16427081,16427257,178,1393.7,1025.3,4185,NA
66,2,continuous,8,92,postResponse,16423990.0,16427257.0,3267.0,58,L,16427311,16427589,280,1352.9,668.1,4290,right
66,2,continuous,9,81,fixationCross,16428457.0,16430624.0,2167.0,59,L,16427665,16427795,132,1351.6,660.3,4396,right
66,2,continuous,9,81,fixationCross,16428457.0,16430624.0,2167.0,59,L,16428121,16428141,22,836.3,536.7,4760,NA
66,2,continuous,9,81,trial,16428457.0,16430624.0,2167.0,59,L,16428173,16428597,426,939.0,539.9,4833,NA
66,2,continuous,9,81,trial,16428457.0,16430624.0,2167.0,59,L,16428633,16428869,238,652.4,497.8,4457,left
66,2,continuous,9,81,trial,16428457.0,16430624.0,2167.0,59,L,16428905,16429081,178,384.7,479.4,4157,left
66,2,continuous,9,81,trial,16428457.0,16430624.0,2167.0,59,L,16429093,16429339,248,346.9,473.8,4139,left
66,2,continuous,9,81,trial,16428457.0,16430624.0,2167.0,59,L,16429377,16429711,336,678.1,480.1,4163,left
66,2,continuous,9,81,trial,16428457.0,16430624.0,2167.0,59,L,16429777,16430017,242,1409.7,517.2,4109,right
66,2,continuous,9,81,trial,16428457.0,16430624.0,2167.0,59,L,16430055,16430169,116,1460.7,609.6,4075,right
66,2,continuous,9,81,trial,16428457.0,16430624.0,2167.0,59,L,16430215,16430407,194,1346.1,942.1,4071,NA
66,2,continuous,9,81,trial,16428457.0,16430624.0,2167.0,59,L,16430421,16430839,420,1314.4,977.6,4058,NA
66,2,continuous,9,81,postResponse,16428457.0,16430624.0,2167.0,59,L,16430915,16430957,44,868.4,453.2,4307,NA
66,2,continuous,10,31,fixationCross,16431707.0,16434140.0,2433.0,60,L,16431033,16431297,266,871.1,450.0,4381,NA
66,2,continuous,10,31,fixationCross,16431707.0,16434140.0,2433.0,60,L,16431313,16431385,74,803.0,464.1,4463,NA
66,2,continuous,10,31,fixationCross,16431707.0,16434140.0,2433.0,60,L,16431407,16431451,46,907.1,497.5,4533,NA
66,2,continuous,10,31,trial,16431707.0,16434140.0,2433.0,60,L,16431475,16431827,354,990.0,517.8,4605,NA
66,2,continuous,10,31,trial,16431707.0,16434140.0,2433.0,60,L,16431869,16432053,186,593.4,473.8,4649,left
66,2,continuous,10,31,trial,16431707.0,16434140.0,2433.0,60,L,16432071,16432307,238,513.1,487.6,4325,left
66,2,continuous,10,31,trial,16431707.0,16434140.0,2433.0,60,L,16432381,16432613,234,1389.4,528.7,3976,right
66,2,continuous,10,31,trial,16431707.0,16434140.0,2433.0,60,L,16432635,16432873,240,1493.9,562.7,4014,right
66,2,continuous,10,31,trial,16431707.0,16434140.0,2433.0,60,L,16432969,16433091,124,1216.6,980.7,4368,NA
66,2,continuous,10,31,trial,16431707.0,16434140.0,2433.0,60,L,16433125,16433287,164,1039.2,945.2,4534,likertHorizontal
66,2,continuous,10,31,trial,16431707.0,16434140.0,2433.0,60,L,16433335,16433683,350,708.5,932.8,4478,NA
66,2,continuous,10,31,trial,16431707.0,16434140.0,2433.0,60,L,16433725,16434005,282,773.9,781.9,4362,likertHorizontal
66,2,continuous,10,31,postResponse,16431707.0,16434140.0,2433.0,60,L,16434021,16434473,454,729.8,732.2,4469,NA
66,2,continuous,11,22,fixationCross,16435174.0,16438574.0,3400.0,61,L,16434547,16434869,324,744.7,554.5,4520,NA
66,2,continuous,11,22,trial,16435174.0,16438574.0,3400.0,61,L,16434897,16435305,410,954.0,531.5,4690,NA
66,2,continuous,11,22,trial,16435174.0,16438574.0,3400.0,61,L,16435355,16435521,168,522.2,473.0,4592,left
66,2,continuous,11,22,trial,16435174.0,16438574.0,3400.0,61,L,16435541,16435939,400,444.6,463.0,4167,left
66,2,continuous,11,22,trial,16435174.0,16438574.0,3400.0,61,L,16436019,16436215,198,1413.7,479.0,3961,right
66,2,continuous,11,22,trial,16435174.0,16438574.0,3400.0,61,L,16436237,16436633,398,1487.1,551.1,4141,right
66,2,continuous,11,22,trial,16435174.0,16438574.0,3400.0,61,L,16436653,16436755,104,1477.6,479.7,4181,right
66,2,continuous,11,22,trial,16435174.0,16438574.0,3400.0,61,L,16436825,16436971,148,526.7,449.4,4244,left
66,2,continuous,11,22,trial,16435174.0,16438574.0,3400.0,61,L,16436993,16437941,950,449.7,447.4,4113,left
66,2,continuous,11,22,trial,16435174.0,16438574.0,3400.0,61,L,16438005,16438119,116,709.3,951.9,4264,NA
66,2,continuous,11,22,trial,16435174.0,16438574.0,3400.0,61,L,16438131,16438441,312,758.3,953.0,4246,likertHorizontal
66,2,continuous,11,22,trial,16435174.0,16438574.0,3400.0,61,L,16438451,16438877,428,710.6,953.4,4312,NA
66,2,continuous,12,79,fixationCross,16439591.0,16442273.0,2682.0,62,L,16438981,16439085,106,525.4,779.8,4518,NA
66,2,continuous,12,79,fixationCross,16439591.0,16442273.0,2682.0,62,L,16439149,16439291,144,775.4,444.1,4536,NA
66,2,continuous,12,79,trial,16439591.0,16442273.0,2682.0,62,L,16439317,16439721,406,964.4,498.3,4705,NA
66,2,continuous,12,79,trial,16439591.0,16442273.0,2682.0,62,L,16439767,16439931,166,610.7,474.5,4806,left
66,2,continuous,12,79,trial,16439591.0,16442273.0,2682.0,62,L,16439951,16440289,340,536.1,489.7,4325,left
66,2,continuous,12,79,trial,16439591.0,16442273.0,2682.0,62,L,16440299,16440473,176,517.6,508.9,4029,left
66,2,continuous,12,79,trial,16439591.0,16442273.0,2682.0,62,L,16440491,16440695,206,436.7,502.1,3997,left
66,2,continuous,12,79,trial,16439591.0,16442273.0,2682.0,62,L,16440783,16441131,350,1488.5,502.0,3731,right
66,2,continuous,12,79,trial,16439591.0,16442273.0,2682.0,62,L,16441157,16441401,246,1442.5,630.9,3836,right
66,2,continuous,12,79,trial,16439591.0,16442273.0,2682.0,62,L,16441447,16441707,262,1396.4,918.8,4120,NA
66,2,continuous,12,79,trial,16439591.0,16442273.0,2682.0,62,L,16441731,16442095,366,1280.0,976.2,4210,NA
66,2,continuous,12,79,trial,16439591.0,16442273.0,2682.0,62,L,16442149,16442283,136,1317.3,667.9,4324,right
66,2,continuous,12,79,trial,16439591.0,16442273.0,2682.0,62,L,16442327,16442565,240,1451.1,449.1,4344,right
66,2,continuous,13,81,fixationCross,16443340.0,16445891.0,2551.0,63,L,16442709,16442843,136,971.8,326.6,4401,NA
66,2,continuous,13,81,fixationCross,16443340.0,16445891.0,2551.0,63,L,16442889,16443027,140,772.6,485.6,4587,NA
66,2,continuous,13,81,trial,16443340.0,16445891.0,2551.0,63,L,16443051,16443475,426,954.0,530.6,4655,NA
66,2,continuous,13,81,trial,16443340.0,16445891.0,2551.0,63,L,16443523,16443673,152,549.8,515.4,4515,left
66,2,continuous,13,81,trial,16443340.0,16445891.0,2551.0,63,L,16443701,16443943,244,371.0,406.0,4210,left
66,2,continuous,13,81,trial,16443340.0,16445891.0,2551.0,63,L,16444019,16444179,162,1398.5,491.2,3918,right
66,2,continuous,13,81,trial,16443340.0,16445891.0,2551.0,63,L,16444205,16444439,236,1504.6,602.8,3959,right
66,2,continuous,13,81,trial,16443340.0,16445891.0,2551.0,63,L,16444465,16444615,152,1620.8,502.3,4073,right
66,2,continuous,13,81,trial,16443340.0,16445891.0,2551.0,63,L,16444627,16444853,228,1647.9,473.4,4005,right
66,2,continuous,13,81,trial,16443340.0,16445891.0,2551.0,63,L,16444881,16445239,360,1482.9,588.0,3926,right
66,2,continuous,13,81,trial,16443340.0,16445891.0,2551.0,63,L,16445289,16445535,248,1310.5,975.8,4111,NA
66,2,continuous,13,81,trial,16443340.0,16445891.0,2551.0,63,L,16445607,16445853,248,501.3,548.6,4107,left
66,2,continuous,13,81,postResponse,16443340.0,16445891.0,2551.0,63,L,16445925,16446223,300,1279.3,891.8,4135,NA
66,2,continuous,14,18,fixationCross,16446957.0,16449640.0,2683.0,64,L,16446323,16446645,324,810.7,442.9,4306,NA
66,2,continuous,14,18,trial,16446957.0,16449640.0,2683.0,64,L,16446683,16447083,402,966.1,531.2,4688,NA
66,2,continuous,14,18,trial,16446957.0,16449640.0,2683.0,64,L,16447127,16447255,130,553.8,477.5,4606,left
66,2,continuous,14,18,trial,16446957.0,16449640.0,2683.0,64,L,16447323,16447459,138,1501.1,535.8,4276,right
66,2,continuous,14,18,trial,16446957.0,16449640.0,2683.0,64,L,16447483,16448487,1006,1579.6,569.1,4071,right
66,2,continuous,14,18,trial,16446957.0,16449640.0,2683.0,64,L,16448505,16448567,64,1505.3,556.7,4059,right
66,2,continuous,14,18,trial,16446957.0,16449640.0,2683.0,64,L,16448647,16448859,214,490.2,480.5,4106,left
66,2,continuous,14,18,trial,16446957.0,16449640.0,2683.0,64,L,16448875,16449169,296,498.7,422.6,4013,left
66,2,continuous,14,18,trial,16446957.0,16449640.0,2683.0,64,L,16449225,16449449,226,699.2,1019.6,3981,NA
66,2,continuous,14,18,trial,16446957.0,16449640.0,2683.0,64,L,16449461,16449597,138,714.0,985.9,4013,NA
66,2,continuous,14,18,trial,16446957.0,16449640.0,2683.0,64,L,16449607,16449805,200,682.0,974.4,4045,NA
66,2,continuous,15,30,fixationCross,16450757.0,16452790.0,2033.0,65,L,16450101,16450129,30,692.8,659.9,4193,left
66,2,continuous,15,30,fixationCross,16450757.0,16452790.0,2033.0,65,L,16450139,16450227,90,701.4,596.4,4295,left
66,2,continuous,15,30,fixationCross,16450757.0,16452790.0,2033.0,65,L,16450271,16450427,158,921.5,757.3,4501,likertHorizontal
66,2,continuous,15,30,trial,16450757.0,16452790.0,2033.0,65,L,16450479,16450891,414,972.1,496.1,4513,NA
66,2,continuous,15,30,trial,16450757.0,16452790.0,2033.0,65,L,16450941,16451087,148,536.9,452.8,4545,left
66,2,continuous,15,30,trial,16450757.0,16452790.0,2033.0,65,L,16451105,16451415,312,485.6,432.0,4298,left
66,2,continuous,15,30,trial,16450757.0,16452790.0,2033.0,65,L,16451439,16451591,154,553.9,511.8,4187,left
66,2,continuous,15,30,trial,16450757.0,16452790.0,2033.0,65,L,16451665,16451957,294,1481.5,526.9,4157,right
66,2,continuous,15,30,trial,16450757.0,16452790.0,2033.0,65,L,16451979,16452353,376,1593.4,560.4,4142,right
66,2,continuous,15,30,trial,16450757.0,16452790.0,2033.0,65,L,16452369,16452601,234,1652.3,585.7,4102,right
66,2,continuous,15,30,trial,16450757.0,16452790.0,2033.0,65,L,16452625,16452947,324,1483.6,605.9,4045,right
66,2,continuous,16,76,fixationCross,16453690.0,16457024.0,3334.0,66,L,16453327,16453357,32,1011.8,511.5,4483,NA
66,2,continuous,16,76,fixationCross,16453690.0,16457024.0,3334.0,66,L,16453369,16453509,142,1006.0,536.5,4461,NA
66,2,continuous,16,76,trial,16453690.0,16457024.0,3334.0,66,L,16453525,16453833,310,955.3,479.7,4588,NA
66,2,continuous,16,76,trial,16453690.0,16457024.0,3334.0,66,L,16453879,16454151,274,589.3,506.7,4357,left
66,2,continuous,16,76,trial,16453690.0,16457024.0,3334.0,66,L,16454223,16454445,224,1434.0,503.8,4086,right
66,2,continuous,16,76,trial,16453690.0,16457024.0,3334.0,66,L,16454469,16454725,258,1629.2,524.2,4059,right
66,2,continuous,16,76,trial,16453690.0,16457024.0,3334.0,66,L,16454753,16455001,250,1424.0,620.5,4054,right
66,2,continuous,16,76,trial,16453690.0,16457024.0,3334.0,66,L,16455019,16455161,144,1461.0,681.7,4074,right
66,2,continuous,16,76,trial,16453690.0,16457024.0,3334.0,66,L,16455237,16455829,594,540.9,548.0,4213,left
66,2,continuous,16,76,trial,16453690.0,16457024.0,3334.0,66,L,16455905,16456151,248,1365.7,626.7,4170,right
66,2,continuous,16,76,trial,16453690.0,16457024.0,3334.0,66,L,16456173,16456309,138,1502.7,620.6,4148,right
66,2,continuous,16,76,trial,16453690.0,16457024.0,3334.0,66,L,16456333,16456647,316,1666.6,547.2,4143,right
66,2,continuous,16,76,trial,16453690.0,16457024.0,3334.0,66,L,16456705,16456907,204,1213.9,992.2,4113,NA
66,2,continuous,16,76,trial,16453690.0,16457024.0,3334.0,66,L,16456957,16457267,312,1261.0,716.9,4082,right
66,2,continuous,16,76,postResponse,16453690.0,16457024.0,3334.0,66,L,16457315,16457357,44,1053.4,548.5,4173,NA
66,2,continuous,17,1,fixationCross,16457941.0,16459840.0,1899.0,67,L,16457457,16457805,350,1041.5,543.8,4457,NA
66,2,continuous,17,1,trial,16457941.0,16459840.0,1899.0,67,L,16457827,16458079,254,962.9,520.7,4692,NA
66,2,continuous,17,1,trial,16457941.0,16459840.0,1899.0,67,L,16458127,16458333,208,559.3,575.1,4542,left
66,2,continuous,17,1,trial,16457941.0,16459840.0,1899.0,67,L,16458355,16458663,310,464.4,596.2,4199,left
66,2,continuous,17,1,trial,16457941.0,16459840.0,1899.0,67,L,16458739,16459039,302,1380.2,539.4,3958,right
66,2,continuous,17,1,trial,16457941.0,16459840.0,1899.0,67,L,16459057,16459153,98,1455.3,558.6,3950,right
66,2,continuous,17,1,trial,16457941.0,16459840.0,1899.0,67,L,16459225,16459385,162,516.9,621.8,4094,left
66,2,continuous,17,1,trial,16457941.0,16459840.0,1899.0,67,L,16459435,16459661,228,577.1,1003.8,4140,NA
66,2,continuous,17,1,trial,16457941.0,16459840.0,1899.0,67,L,16459677,16459781,106,515.4,984.0,4145,NA
66,2,continuous,17,1,postResponse,16457941.0,16459840.0,1899.0,67,L,16459843,16460173,332,533.2,567.3,4242,left
66,2,continuous,18,76,fixationCross,16460924.0,16463274.0,2350.0,68,L,16460519,16460599,82,700.5,430.2,4631,left
66,2,continuous,18,76,fixationCross,16460924.0,16463274.0,2350.0,68,L,16460627,16460859,234,919.1,505.3,4797,NA
66,2,continuous,18,76,trial,16460924.0,16463274.0,2350.0,68,L,16460875,16461079,206,986.6,504.2,4682,NA
66,2,continuous,18,76,trial,16460924.0,16463274.0,2350.0,68,L,16461129,16461259,132,524.7,485.9,4489,left
66,2,continuous,18,76,trial,16460924.0,16463274.0,2350.0,68,L,16461329,16461549,222,1491.3,550.0,4111,right
66,2,continuous,18,76,trial,16460924.0,16463274.0,2350.0,68,L,16461575,16461731,158,1484.6,647.1,3997,right
66,2,continuous,18,76,trial,16460924.0,16463274.0,2350.0,68,L,16461749,16461929,182,1525.8,594.1,4078,right
66,2,continuous,18,76,trial,16460924.0,16463274.0,2350.0,68,L,16461945,16462087,144,1472.7,617.5,4127,right
66,2,continuous,18,76,trial,16460924.0,16463274.0,2350.0,68,L,16462105,16462287,184,1526.8,572.9,4166,right
66,2,continuous,18,76,trial,16460924.0,16463274.0,2350.0,68,L,16462373,16462681,310,381.5,471.5,4171,left
66,2,continuous,18,76,trial,16460924.0,16463274.0,2350.0,68,L,16462697,16462863,168,407.5,427.0,4030,left
66,2,continuous,18,76,trial,16460924.0,16463274.0,2350.0,68,L,16462939,16463113,176,1227.6,979.4,4026,NA
66,2,continuous,18,76,trial,16460924.0,16463274.0,2350.0,68,L,16463179,16463311,134,1435.8,551.4,3929,right
66,2,continuous,18,76,postResponse,16460924.0,16463274.0,2350.0,68,L,16463329,16463609,282,1505.9,562.2,4054,right
66,2,continuous,19,96,fixationCross,16464324.0,16466558.0,2234.0,69,L,16463709,16463787,80,1488.9,557.8,4313,right
66,2,continuous,19,96,fixationCross,16464324.0,16466558.0,2234.0,69,L,16463843,16464023,182,1146.1,539.3,4531,NA
66,2,continuous,19,96,trial,16464324.0,16466558.0,2234.0,69,L,16464051,16464457,408,959.2,510.8,4731,NA
66,2,continuous,19,96,trial,16464324.0,16466558.0,2234.0,69,L,16464509,16464689,182,495.6,496.4,4654,left
66,2,continuous,19,96,trial,16464324.0,16466558.0,2234.0,69,L,16464711,16464953,244,466.5,557.7,4500,left
66,2,continuous,19,96,trial,16464324.0,16466558.0,2234.0,69,L,16465029,16465331,304,1375.4,517.2,4240,right
66,2,continuous,19,96,trial,16464324.0,16466558.0,2234.0,69,L,16465353,16465709,358,1512.8,476.5,4054,right
66,2,continuous,19,96,trial,16464324.0,16466558.0,2234.0,69,L,16465797,16465975,180,440.2,425.5,4091,left
66,2,continuous,19,96,trial,16464324.0,16466558.0,2234.0,69,L,16465989,16466151,164,410.5,396.2,4044,left
66,2,continuous,19,96,trial,16464324.0,16466558.0,2234.0,69,L,16466227,16466333,108,1330.7,1052.2,4110,NA
66,2,continuous,19,96,trial,16464324.0,16466558.0,2234.0,69,L,16466355,16466541,188,1443.9,1015.1,4143,NA
66,2,continuous,19,96,postResponse,16464324.0,16466558.0,2234.0,69,L,16466619,16466889,272,482.5,476.4,4263,left
66,2,continuous,20,100,fixationCross,16467641.0,16469157.0,1516.0,70,L,16466991,16467023,34,479.0,466.5,4350,left
66,2,continuous,20,100,fixationCross,16467641.0,16469157.0,1516.0,70,L,16467381,16467613,234,951.5,525.1,4686,NA
66,2,continuous,20,100,trial,16467641.0,16469157.0,1516.0,70,L,16467623,16467805,184,975.1,518.6,4706,NA
66,2,continuous,20,100,trial,16467641.0,16469157.0,1516.0,70,L,16467851,16467943,94,563.7,493.6,4514,left
66,2,continuous,20,100,trial,16467641.0,16469157.0,1516.0,70,L,16468007,16468239,234,1365.8,546.6,4226,right
66,2,continuous,20,100,trial,16467641.0,16469157.0,1516.0,70,L,16468267,16468485,220,1586.2,578.3,4064,right
66,2,continuous,20,100,trial,16467641.0,16469157.0,1516.0,70,L,16468501,16468683,184,1653.7,552.4,4111,right
66,2,continuous,20,100,trial,16467641.0,16469157.0,1516.0,70,L,16468697,16468817,122,1637.5,517.7,4127,right
66,2,continuous,20,100,trial,16467641.0,16469157.0,1516.0,70,L,16468837,16469077,242,1680.3,577.5,4095,right
66,2,continuous,20,100,trial,16467641.0,16469157.0,1516.0,70,L,16469119,16469359,242,1299.9,505.4,4164,right
66,2,continuous,21,28,fixationCross,16470257.0,16472190.0,1933.0,71,L,16469595,16469599,6,587.5,218.1,4440,NA
66,2,continuous,21,28,fixationCross,16470257.0,16472190.0,1933.0,71,L,16469611,16469753,144,599.0,273.7,4333,NA
66,2,continuous,21,28,fixationCross,16470257.0,16472190.0,1933.0,71,L,16469801,16469959,160,876.2,474.7,4520,NA
66,2,continuous,21,28,trial,16470257.0,16472190.0,1933.0,71,L,16469981,16470301,322,972.9,534.8,4374,NA
66,2,continuous,21,28,trial,16470257.0,16472190.0,1933.0,71,L,16470309,16470405,98,991.5,547.6,4364,NA
66,2,continuous,21,28,trial,16470257.0,16472190.0,1933.0,71,L,16470459,16470601,144,514.6,474.2,4416,left
66,2,continuous,21,28,trial,16470257.0,16472190.0,1933.0,71,L,16470623,16470825,204,430.9,442.8,4190,left
66,2,continuous,21,28,trial,16470257.0,16472190.0,1933.0,71,L,16470899,16471073,176,1462.7,600.5,3901,right
66,2,continuous,21,28,trial,16470257.0,16472190.0,1933.0,71,L,16471091,16471457,368,1520.2,568.7,3908,right
66,2,continuous,21,28,trial,16470257.0,16472190.0,1933.0,71,L,16471535,16471675,142,483.9,452.3,4144,left
66,2,continuous,21,28,trial,16470257.0,16472190.0,1933.0,71,L,16471693,16471993,302,412.5,435.7,4071,left
66,2,continuous,21,28,trial,16470257.0,16472190.0,1933.0,71,L,16472063,16472181,120,659.8,983.4,4035,NA
66,2,continuous,21,28,postResponse,16470257.0,16472190.0,1933.0,71,L,16472197,16472525,330,749.6,972.0,4085,likertHorizontal
66,2,continuous,22,15,fixationCross,16473174.0,16476624.0,3450.0,72,L,16472925,16472937,14,899.6,412.4,4507,NA
66,2,continuous,22,15,fixationCross,16473174.0,16476624.0,3450.0,72,L,16472959,16472985,28,984.4,453.3,4723,NA
66,2,continuous,22,15,trial,16473174.0,16476624.0,3450.0,72,L,16472997,16473359,364,970.6,505.1,4673,NA
66,2,continuous,22,15,trial,16473174.0,16476624.0,3450.0,72,L,16473413,16473597,186,1445.5,507.5,4361,right
66,2,continuous,22,15,trial,16473174.0,16476624.0,3450.0,72,L,16473627,16473973,348,1645.0,474.7,4092,right
66,2,continuous,22,15,trial,16473174.0,16476624.0,3450.0,72,L,16473995,16474177,184,1534.8,490.8,4089,right
66,2,continuous,22,15,trial,16473174.0,16476624.0,3450.0,72,L,16474253,16475031,780,530.8,545.8,4104,left
66,2,continuous,22,15,trial,16473174.0,16476624.0,3450.0,72,L,16475045,16475315,272,497.0,568.4,4139,left
66,2,continuous,22,15,trial,16473174.0,16476624.0,3450.0,72,L,16475337,16475843,508,471.4,659.4,4197,left
66,2,continuous,22,15,trial,16473174.0,16476624.0,3450.0,72,L,16475885,16476095,212,533.2,1031.2,4189,NA
66,2,continuous,22,15,trial,16473174.0,16476624.0,3450.0,72,L,16476151,16476367,218,630.5,665.8,4219,left
66,2,continuous,22,15,postResponse,16473174.0,16476624.0,3450.0,72,L,16476411,16476957,548,611.6,961.7,4311,NA
66,2,continuous,23,82,fixationCross,16477674.0,16479807.0,2133.0,73,L,16477045,16477365,322,654.0,284.7,4354,NA
66,2,continuous,23,82,fixationCross,16477674.0,16479807.0,2133.0,73,L,16477409,16477531,124,905.6,498.4,4544,NA
66,2,continuous,23,82,trial,16477674.0,16479807.0,2133.0,73,L,16477547,16477809,264,967.4,533.3,4581,NA
66,2,continuous,23,82,trial,16477674.0,16479807.0,2133.0,73,L,16477857,16478069,214,529.1,484.4,4514,left
66,2,continuous,23,82,trial,16477674.0,16479807.0,2133.0,73,L,16478141,16478289,150,1466.7,543.7,4229,right
66,2,continuous,23,82,trial,16477674.0,16479807.0,2133.0,73,L,16478305,16478463,160,1515.1,534.8,4096,right
66,2,continuous,23,82,trial,16477674.0,16479807.0,2133.0,73,L,16478481,16478727,248,1592.0,568.4,4028,right
66,2,continuous,23,82,trial,16477674.0,16479807.0,2133.0,73,L,16479019,16479069,52,552.3,497.4,4133,left
66,2,continuous,23,82,trial,16477674.0,16479807.0,2133.0,73,L,16479081,16479409,330,550.0,509.1,4158,left
66,2,continuous,23,82,trial,16477674.0,16479807.0,2133.0,73,L,16479481,16479703,224,1336.4,942.1,4139,NA
66,2,continuous,23,82,trial,16477674.0,16479807.0,2133.0,73,L,16479751,16480099,350,1319.0,653.1,4089,right
66,2,continuous,24,100,fixationCross,16480691.0,16483574.0,2883.0,74,L,16480215,16480563,350,885.2,479.3,4364,NA
66,2,continuous,24,100,trial,16480691.0,16483574.0,2883.0,74,L,16480577,16480827,252,974.2,529.0,4431,NA
66,2,continuous,24,100,trial,16480691.0,16483574.0,2883.0,74,L,16480869,16480983,116,590.3,520.4,4484,left
66,2,continuous,24,100,trial,16480691.0,16483574.0,2883.0,74,L,16481051,16481279,230,1440.9,486.5,4154,right
66,2,continuous,24,100,trial,16480691.0,16483574.0,2883.0,74,L,16481291,16481821,532,1455.9,455.2,3948,right
66,2,continuous,24,100,trial,16480691.0,16483574.0,2883.0,74,L,16481895,16482113,220,518.6,547.9,4067,left
66,2,continuous,24,100,trial,16480691.0,16483574.0,2883.0,74,L,16482125,16482367,244,482.5,532.8,3988,left
66,2,continuous,24,100,trial,16480691.0,16483574.0,2883.0,74,L,16482441,16482545,106,1261.1,1002.5,3935,NA
66,2,continuous,24,100,trial,16480691.0,16483574.0,2883.0,74,L,16482573,16482745,174,1487.9,1005.1,3938,NA
66,2,continuous,24,100,trial,16480691.0,16483574.0,2883.0,74,L,16482825,16483859,1036,1448.6,469.3,4193,right
66,2,continuous,25,72,fixationCross,16484674.0,16487707.0,3033.0,75,L,16483981,16484259,280,1011.3,434.8,4417,NA
66,2,continuous,25,72,fixationCross,16484674.0,16487707.0,3033.0,75,L,16484283,16484377,96,862.1,453.1,4623,NA
66,2,continuous,25,72,trial,16484674.0,16487707.0,3033.0,75,L,16484405,16484827,424,962.9,506.7,4766,NA
66,2,continuous,25,72,trial,16484674.0,16487707.0,3033.0,75,L,16484909,16485095,188,1410.5,473.7,4516,right
66,2,continuous,25,72,trial,16484674.0,16487707.0,3033.0,75,L,16485173,16485429,258,420.0,491.8,4254,left
66,2,continuous,25,72,trial,16484674.0,16487707.0,3033.0,75,L,16485453,16485599,148,357.2,431.8,4176,left
66,2,continuous,25,72,trial,16484674.0,16487707.0,3033.0,75,L,16485617,16485799,184,348.9,368.4,4100,left
66,2,continuous,25,72,trial,16484674.0,16487707.0,3033.0,75,L,16485843,16486047,206,597.6,653.3,4021,left
66,2,continuous,25,72,trial,16484674.0,16487707.0,3033.0,75,L,16486115,16486361,248,1429.1,495.8,3941,right
66,2,continuous,25,72,trial,16484674.0,16487707.0,3033.0,75,L,16486391,16486751,362,1511.9,617.3,3984,right
66,2,continuous,25,72,trial,16484674.0,16487707.0,3033.0,75,L,16486771,16487031,262,1449.4,576.2,4046,right
66,2,continuous,25,72,trial,16484674.0,16487707.0,3033.0,75,L,16487081,16487323,244,1324.7,984.2,4216,NA
66,2,continuous,25,72,trial,16484674.0,16487707.0,3033.0,75,L,16487351,16487533,184,1227.4,838.8,4223,NA
66,2,continuous,25,72,postResponse,16484674.0,16487707.0,3033.0,75,L,16487553,16488041,490,1199.5,757.9,4378,NA
66,2,continuous,26,8,fixationCross,16508891.0,16511041.0,2150.0,76,L,16508253,16508413,162,193.2,33.6,4777,NA
66,2,continuous,26,8,fixationCross,16508891.0,16511041.0,2150.0,76,L,16508485,16508583,100,864.7,371.5,4724,NA
66,2,continuous,26,8,fixationCross,16508891.0,16511041.0,2150.0,76,L,16508623,16508779,158,953.1,544.9,4660,NA
66,2,continuous,26,8,trial,16508891.0,16511041.0,2150.0,76,L,16508791,16509159,370,979.0,551.1,4725,NA
66,2,continuous,26,8,trial,16508891.0,16511041.0,2150.0,76,L,16509189,16509253,66,1165.3,561.2,4777,NA
66,2,continuous,26,8,trial,16508891.0,16511041.0,2150.0,76,L,16509315,16509557,244,463.8,516.2,4602,left
66,2,continuous,26,8,trial,16508891.0,16511041.0,2150.0,76,L,16509575,16509959,386,453.8,561.1,4382,left
66,2,continuous,26,8,trial,16508891.0,16511041.0,2150.0,76,L,16510035,16510441,408,1445.7,460.3,3961,right
66,2,continuous,26,8,trial,16508891.0,16511041.0,2150.0,76,L,16510511,16510677,168,525.3,586.2,4124,left
66,2,continuous,26,8,trial,16508891.0,16511041.0,2150.0,76,L,16510731,16511123,394,562.7,1009.9,4124,NA
66,2,continuous,26,8,trial,16508891.0,16511041.0,2150.0,76,L,16511183,16511289,108,554.1,562.3,4041,left
66,2,continuous,27,3,fixationCross,16512158.0,16513841.0,1683.0,77,L,16511583,16511709,128,936.9,395.1,4386,NA
66,2,continuous,27,3,fixationCross,16512158.0,16513841.0,1683.0,77,L,16511733,16511843,112,1061.1,482.7,4525,NA
66,2,continuous,27,3,trial,16512158.0,16513841.0,1683.0,77,L,16511869,16512305,438,962.2,535.7,4674,NA
66,2,continuous,27,3,trial,16512158.0,16513841.0,1683.0,77,L,16512353,16512497,146,536.5,505.0,4548,left
66,2,continuous,27,3,trial,16512158.0,16513841.0,1683.0,77,L,16512521,16512655,136,441.2,538.7,4382,left
66,2,continuous,27,3,trial,16512158.0,16513841.0,1683.0,77,L,16512679,16512927,250,596.6,548.0,4159,left
66,2,continuous,27,3,trial,16512158.0,16513841.0,1683.0,77,L,16513003,16513345,344,1473.8,503.2,3975,right
66,2,continuous,27,3,trial,16512158.0,16513841.0,1683.0,77,L,16513419,16513577,160,624.5,960.5,4219,NA
66,2,continuous,27,3,trial,16512158.0,16513841.0,1683.0,77,L,16513603,16513817,216,527.4,998.1,4176,NA
66,2,continuous,27,3,postResponse,16512158.0,16513841.0,1683.0,77,L,16513883,16514175,294,545.5,601.7,4132,left
66,2,continuous,28,64,fixationCross,16514874.0,16519541.0,4667.0,78,L,16514541,16514579,40,787.0,527.0,4493,NA
66,2,continuous,28,64,trial,16514874.0,16519541.0,4667.0,78,L,16514605,16515023,420,980.4,518.7,4678,NA
66,2,continuous,28,64,trial,16514874.0,16519541.0,4667.0,78,L,16515073,16515359,288,570.0,482.8,4465,left
66,2,continuous,28,64,trial,16514874.0,16519541.0,4667.0,78,L,16515381,16515597,218,477.5,494.3,4188,left
66,2,continuous,28,64,trial,16514874.0,16519541.0,4667.0,78,L,16515619,16515771,154,392.7,553.9,4144,left
66,2,continuous,28,64,trial,16514874.0,16519541.0,4667.0,78,L,16515845,16516051,208,1362.6,501.5,4112,right
66,2,continuous,28,64,trial,16514874.0,16519541.0,4667.0,78,L,16516077,16516353,278,1510.5,559.1,4149,right
66,2,continuous,28,64,trial,16514874.0,16519541.0,4667.0,78,L,16516429,16516637,210,548.1,471.3,4203,left
66,2,continuous,28,64,trial,16514874.0,16519541.0,4667.0,78,L,16516657,16516807,152,471.9,442.1,4124,left
66,2,continuous,28,64,trial,16514874.0,16519541.0,4667.0,78,L,16516821,16517069,250,429.6,418.4,4054,left
66,2,continuous,28,64,trial,16514874.0,16519541.0,4667.0,78,L,16517091,16517235,146,536.9,458.6,4017,left
66,2,continuous,28,64,trial,16514874.0,16519541.0,4667.0,78,L,16517311,16517619,310,1463.3,559.8,3999,right
66,2,continuous,28,64,trial,16514874.0,16519541.0,4667.0,78,L,16517631,16517899,270,1492.4,550.2,4023,right
66,2,continuous,28,64,trial,16514874.0,16519541.0,4667.0,78,L,16517963,16518333,372,915.1,947.7,4088,likertHorizontal
66,2,continuous,28,64,trial,16514874.0,16519541.0,4667.0,78,L,16518419,16518743,326,1563.2,556.0,4229,right
66,2,continuous,28,64,trial,16514874.0,16519541.0,4667.0,78,L,16518763,16518989,228,1619.3,465.3,4251,right
66,2,continuous,28,64,trial,16514874.0,16519541.0,4667.0,78,L,16519025,16519349,326,1337.4,477.3,4149,right
66,2,continuous,28,64,trial,16514874.0,16519541.0,4667.0,78,L,16519409,16519725,318,1136.2,971.1,4290,likertHorizontal
66,2,continuous,28,64,postResponse,16514874.0,16519541.0,4667.0,78,L,16519803,16519873,72,849.9,636.2,4395,NA
66,2,continuous,29,21,fixationCross,16520591.0,16523108.0,2517.0,79,L,16519973,16520295,324,860.9,630.2,4597,NA
66,2,continuous,29,21,trial,16520591.0,16523108.0,2517.0,79,L,16520321,16520721,402,959.8,524.4,4805,NA
66,2,continuous,29,21,trial,16520591.0,16523108.0,2517.0,79,L,16520775,16520957,184,545.2,468.5,4834,left
66,2,continuous,29,21,trial,16520591.0,16523108.0,2517.0,79,L,16520985,16521163,180,468.7,603.6,4603,left
66,2,continuous,29,21,trial,16520591.0,16523108.0,2517.0,79,L,16521185,16521785,602,573.4,655.6,4612,left
66,2,continuous,29,21,trial,16520591.0,16523108.0,2517.0,79,L,16521803,16523071,1270,509.9,621.2,4735,left
66,2,continuous,29,21,postResponse,16520591.0,16523108.0,2517.0,79,L,16523121,16523441,322,638.1,961.8,4741,NA
66,2,continuous,30,8,fixationCross,16524075.0,16526542.0,2467.0,80,L,16523809,16523887,80,920.6,465.6,4704,NA
66,2,continuous,30,8,trial,16524075.0,16526542.0,2467.0,80,L,16523911,16524209,300,978.5,517.4,4868,NA
66,2,continuous,30,8,trial,16524075.0,16526542.0,2467.0,80,L,16524263,16524473,212,516.3,461.9,4778,left
66,2,continuous,30,8,trial,16524075.0,16526542.0,2467.0,80,L,16524539,16524831,294,1406.1,525.8,4363,right
66,2,continuous,30,8,trial,16524075.0,16526542.0,2467.0,80,L,16524849,16525031,184,1432.6,561.3,4337,right
66,2,continuous,30,8,trial,16524075.0,16526542.0,2467.0,80,L,16525109,16525501,394,507.9,509.2,4625,left
66,2,continuous,30,8,trial,16524075.0,16526542.0,2467.0,80,L,16525523,16525831,310,408.5,527.4,4379,left
66,2,continuous,30,8,trial,16524075.0,16526542.0,2467.0,80,L,16525851,16526187,338,505.3,491.3,4248,left
66,2,continuous,30,8,trial,16524075.0,16526542.0,2467.0,80,L,16526225,16526481,258,537.1,665.1,4286,left
66,2,continuous,30,8,trial,16524075.0,16526542.0,2467.0,80,L,16526525,16526805,282,584.0,1027.7,4390,NA
66,2,continuous,31,80,fixationCross,16527558.0,16529475.0,1917.0,81,L,16526949,16527057,110,649.5,728.2,4282,left
66,2,continuous,31,80,fixationCross,16527558.0,16529475.0,1917.0,81,L,16527115,16527259,146,811.2,455.4,4344,NA
66,2,continuous,31,80,trial,16527558.0,16529475.0,1917.0,81,L,16527285,16527611,328,960.9,506.3,4650,NA
66,2,continuous,31,80,trial,16527558.0,16529475.0,1917.0,81,L,16527627,16527745,120,1011.4,480.3,4839,NA
66,2,continuous,31,80,trial,16527558.0,16529475.0,1917.0,81,L,16527795,16527971,178,554.6,474.6,4669,left
66,2,continuous,31,80,trial,16527558.0,16529475.0,1917.0,81,L,16527989,16528251,264,542.0,399.1,4294,left
66,2,continuous,31,80,trial,16527558.0,16529475.0,1917.0,81,L,16528327,16528609,284,1592.2,514.2,4006,right
66,2,continuous,31,80,trial,16527558.0,16529475.0,1917.0,81,L,16528627,16528873,248,1649.2,509.9,3932,right
66,2,continuous,31,80,trial,16527558.0,16529475.0,1917.0,81,L,16528883,16529121,240,1674.3,528.3,3876,right
66,2,continuous,31,80,trial,16527558.0,16529475.0,1917.0,81,L,16529181,16529333,154,1235.7,838.1,4036,NA
66,2,continuous,31,80,postResponse,16527558.0,16529475.0,1917.0,81,L,16529397,16529809,414,537.6,439.6,4077,left
66,2,continuous,32,10,fixationCross,16530525.0,16532741.0,2216.0,82,L,16529909,16530021,114,540.9,440.5,4197,left
66,2,continuous,32,10,fixationCross,16530525.0,16532741.0,2216.0,82,L,16530045,16530211,168,723.2,451.8,4320,left
66,2,continuous,32,10,fixationCross,16530525.0,16532741.0,2216.0,82,L,16530239,16530425,188,938.8,519.4,4436,NA
66,2,continuous,32,10,trial,16530525.0,16532741.0,2216.0,82,L,16530437,16530661,226,969.8,536.9,4544,NA
66,2,continuous,32,10,trial,16530525.0,16532741.0,2216.0,82,L,16530717,16530891,176,1435.1,485.9,4576,right
66,2,continuous,32,10,trial,16530525.0,16532741.0,2216.0,82,L,16530913,16531045,134,1371.2,479.4,4258,right
66,2,continuous,32,10,trial,16530525.0,16532741.0,2216.0,82,L,16531119,16531343,226,498.1,558.5,4126,left
66,2,continuous,32,10,trial,16530525.0,16532741.0,2216.0,82,L,16531363,16531587,226,442.7,521.6,4060,left
66,2,continuous,32,10,trial,16530525.0,16532741.0,2216.0,82,L,16531611,16531843,234,550.9,565.7,4109,left
66,2,continuous,32,10,trial,16530525.0,16532741.0,2216.0,82,L,16531863,16532017,156,622.0,616.4,4171,left
66,2,continuous,32,10,trial,16530525.0,16532741.0,2216.0,82,L,16532035,16532359,326,684.2,657.2,4238,left
66,2,continuous,32,10,trial,16530525.0,16532741.0,2216.0,82,L,16532405,16532549,146,757.8,989.1,4304,likertHorizontal
66,2,continuous,32,10,trial,16530525.0,16532741.0,2216.0,82,L,16532571,16532747,178,605.9,965.3,4330,NA
66,2,continuous,32,10,postResponse,16530525.0,16532741.0,2216.0,82,L,16532819,16533075,258,1428.6,481.3,4215,right
66,2,continuous,33,82,fixationCross,16533658.0,16535975.0,2317.0,83,L,16533175,16533577,404,878.0,531.2,4501,NA
66,2,continuous,33,82,trial,16533658.0,16535975.0,2317.0,83,L,16533597,16533819,224,969.0,546.6,4656,NA
66,2,continuous,33,82,trial,16533658.0,16535975.0,2317.0,83,L,16533871,16534017,148,516.2,538.2,4543,left
66,2,continuous,33,82,trial,16533658.0,16535975.0,2317.0,83,L,16534037,16534199,164,432.2,543.9,4425,left
66,2,continuous,33,82,trial,16533658.0,16535975.0,2317.0,83,L,16534213,16535005,794,449.6,502.9,4221,left
66,2,continuous,33,82,trial,16533658.0,16535975.0,2317.0,83,L,16535079,16535229,152,1361.5,568.7,4199,right
66,2,continuous,33,82,trial,16533658.0,16535975.0,2317.0,83,L,16535251,16535363,114,1440.7,622.3,4129,right
66,2,continuous,33,82,trial,16533658.0,16535975.0,2317.0,83,L,16535389,16535649,262,1627.5,575.5,4101,right
66,2,continuous,33,82,trial,16533658.0,16535975.0,2317.0,83,L,16535705,16535985,282,1316.7,868.6,4159,NA
66,2,continuous,33,82,trial,16533658.0,16535975.0,2317.0,83,L,16536019,16536259,242,1268.8,683.1,4293,right
66,2,continuous,34,6,fixationCross,16537025.0,16538791.0,1766.0,84,L,16536409,16536729,322,783.3,514.9,4546,NA
66,2,continuous,34,6,trial,16537025.0,16538791.0,1766.0,84,L,16536753,16537087,336,958.8,535.4,4580,NA
66,2,continuous,34,6,trial,16537025.0,16538791.0,1766.0,84,L,16537097,16537191,96,986.1,519.4,4599,NA
66,2,continuous,34,6,trial,16537025.0,16538791.0,1766.0,84,L,16537239,16537387,150,547.5,492.0,4564,left
66,2,continuous,34,6,trial,16537025.0,16538791.0,1766.0,84,L,16537411,16537569,160,403.0,479.3,4306,left
66,2,continuous,34,6,trial,16537025.0,16538791.0,1766.0,84,L,16537595,16537749,156,552.2,479.7,4088,left
66,2,continuous,34,6,trial,16537025.0,16538791.0,1766.0,84,L,16537769,16538057,290,622.9,492.9,3979,left
66,2,continuous,34,6,trial,16537025.0,16538791.0,1766.0,84,L,16538125,16538739,616,1425.3,538.2,3865,right
66,2,continuous,34,6,postResponse,16537025.0,16538791.0,1766.0,84,L,16538813,16539125,314,550.6,481.5,3844,left
66,2,continuous,35,23,fixationCross,16539858.0,16542191.0,2333.0,85,L,16539515,16539557,44,814.0,534.8,4281,NA
