participantNo,block,task,blockTrial,response,trialStage,trialStartTime,trialFinishTime,rt,trial,eye,fixStart,fixEnd,fixLength,fixPosX,fixPosY,dilation,aoi
43,1,continuous,1,99,fixationCross,7318882.0,7321148.0,2266.0,1,R,7318365,7318737,374,878.2,584.7,3728,NA
43,1,continuous,1,99,trial,7318882.0,7321148.0,2266.0,1,R,7318759,7319131,374,973.5,563.0,3895,NA
43,1,continuous,1,99,trial,7318882.0,7321148.0,2266.0,1,R,7319173,7319437,266,533.6,615.2,4071,left
43,1,continuous,1,99,trial,7318882.0,7321148.0,2266.0,1,R,7319465,7319713,250,400.9,544.2,3880,left
43,1,continuous,1,99,trial,7318882.0,7321148.0,2266.0,1,R,7319775,7320097,324,1384.9,553.8,3646,right
43,1,continuous,1,99,trial,7318882.0,7321148.0,2266.0,1,R,7320119,7321413,1296,1408.0,516.7,3712,right
43,1,continuous,1,99,postResponse,7318882.0,7321148.0,2266.0,1,R,7321465,7321517,54,816.3,503.3,3838,NA
43,1,continuous,2,5,fixationCross,7322282.0,7325416.0,3134.0,2,R,7321619,7321727,110,816.5,508.4,3921,NA
43,1,continuous,2,5,fixationCross,7322282.0,7325416.0,3134.0,2,R,7321765,7321949,186,522.8,503.0,4070,left
43,1,continuous,2,5,fixationCross,7322282.0,7325416.0,3134.0,2,R,7322015,7322095,82,868.8,531.0,4162,NA
43,1,continuous,2,5,fixationCross,7322282.0,7325416.0,3134.0,2,R,7322133,7322161,30,939.5,548.3,4141,NA
43,1,continuous,2,5,trial,7322282.0,7325416.0,3134.0,2,R,7322195,7322327,134,937.4,549.5,4093,NA
43,1,continuous,2,5,trial,7322282.0,7325416.0,3134.0,2,R,7322389,7322431,44,937.0,556.9,4093,NA
43,1,continuous,2,5,trial,7322282.0,7325416.0,3134.0,2,R,7322455,7322545,92,939.8,566.0,4116,NA
43,1,continuous,2,5,trial,7322282.0,7325416.0,3134.0,2,R,7322597,7322841,246,475.2,589.9,4007,left
43,1,continuous,2,5,trial,7322282.0,7325416.0,3134.0,2,R,7322903,7323215,314,1445.8,534.1,3742,right
43,1,continuous,2,5,trial,7322282.0,7325416.0,3134.0,2,R,7323247,7323541,296,1202.5,637.9,3634,right
43,1,continuous,2,5,trial,7322282.0,7325416.0,3134.0,2,R,7323575,7323727,154,1446.6,599.8,3607,right
43,1,continuous,2,5,trial,7322282.0,7325416.0,3134.0,2,R,7323787,7323965,180,517.1,591.5,3696,left
43,1,continuous,2,5,trial,7322282.0,7325416.0,3134.0,2,R,7323989,7324429,442,476.5,682.7,3824,left
43,1,continuous,2,5,trial,7322282.0,7325416.0,3134.0,2,R,7324469,7324753,286,502.7,966.8,4018,NA
43,1,continuous,2,5,trial,7322282.0,7325416.0,3134.0,2,R,7324775,7325097,324,499.2,964.5,4007,NA
43,1,continuous,2,5,postResponse,7322282.0,7325416.0,3134.0,2,R,7325143,7325765,624,528.8,586.5,3812,left
43,1,continuous,3,89,fixationCross,7326499.0,7330165.0,3666.0,3,R,7325873,7326165,294,1197.4,534.7,3893,right
43,1,continuous,3,89,trial,7326499.0,7330165.0,3666.0,3,R,7326355,7326715,362,938.5,568.2,4184,NA
43,1,continuous,3,89,trial,7326499.0,7330165.0,3666.0,3,R,7326767,7327071,306,460.3,600.2,4043,left
43,1,continuous,3,89,trial,7326499.0,7330165.0,3666.0,3,R,7327101,7327457,358,563.8,567.2,3595,left
43,1,continuous,3,89,trial,7326499.0,7330165.0,3666.0,3,R,7327525,7327703,180,1484.4,592.1,3267,right
43,1,continuous,3,89,trial,7326499.0,7330165.0,3666.0,3,R,7327885,7328517,634,1449.0,593.9,3356,right
43,1,continuous,3,89,trial,7326499.0,7330165.0,3666.0,3,R,7328537,7328681,146,1527.1,539.1,3283,right
43,1,continuous,3,89,trial,7326499.0,7330165.0,3666.0,3,R,7328701,7328891,192,1553.9,470.6,3197,right
43,1,continuous,3,89,trial,7326499.0,7330165.0,3666.0,3,R,7329075,7329215,142,511.7,558.9,3255,left
43,1,continuous,3,89,trial,7326499.0,7330165.0,3666.0,3,R,7329273,7329569,298,1379.3,631.3,3436,right
43,1,continuous,3,89,trial,7326499.0,7330165.0,3666.0,3,R,7329601,7329827,228,1325.7,774.9,3539,NA
43,1,continuous,3,89,trial,7326499.0,7330165.0,3666.0,3,R,7330065,7330101,38,1344.4,955.5,3695,NA
43,1,continuous,3,89,postResponse,7326499.0,7330165.0,3666.0,3,R,7330153,7330503,352,1287.0,625.6,3647,right
43,1,continuous,4,93,fixationCross,7331232.0,7334998.0,3766.0,4,R,7330645,7330921,278,653.9,575.0,3942,left
43,1,continuous,4,93,trial,7331232.0,7334998.0,3766.0,4,R,7330959,7331375,418,951.1,576.8,4037,NA
43,1,continuous,4,93,trial,7331232.0,7334998.0,3766.0,4,R,7331417,7331579,164,526.8,596.5,4146,left
43,1,continuous,4,93,trial,7331232.0,7334998.0,3766.0,4,R,7331609,7332197,590,403.7,545.1,3736,left
43,1,continuous,4,93,trial,7331232.0,7334998.0,3766.0,4,R,7332267,7332483,218,1548.7,566.0,3237,right
43,1,continuous,4,93,trial,7331232.0,7334998.0,3766.0,4,R,7332491,7333047,558,1523.3,553.2,3307,right
43,1,continuous,4,93,trial,7331232.0,7334998.0,3766.0,4,R,7333099,7333229,132,1502.8,576.6,3388,right
43,1,continuous,4,93,trial,7331232.0,7334998.0,3766.0,4,R,7333261,7333519,260,1291.4,478.8,3486,right
43,1,continuous,4,93,trial,7331232.0,7334998.0,3766.0,4,R,7333613,7333949,338,368.7,559.5,3582,left
43,1,continuous,4,93,trial,7331232.0,7334998.0,3766.0,4,R,7334007,7334221,216,1107.3,736.1,3594,likertHorizontal
43,1,continuous,4,93,trial,7331232.0,7334998.0,3766.0,4,R,7334359,7334499,142,1399.1,942.7,3690,NA
43,1,continuous,4,93,postResponse,7331232.0,7334998.0,3766.0,4,R,7335005,7335339,336,1283.1,521.9,3890,right
43,1,continuous,5,95,fixationCross,7336499.0,7339583.0,3084.0,5,R,7335437,7335447,12,714.0,552.6,3780,left
43,1,continuous,5,95,fixationCross,7336499.0,7339583.0,3084.0,5,R,7335473,7335497,26,715.3,547.3,3788,left
43,1,continuous,5,95,fixationCross,7336499.0,7339583.0,3084.0,5,R,7335563,7335733,172,718.6,556.7,3866,left
43,1,continuous,5,95,fixationCross,7336499.0,7339583.0,3084.0,5,R,7335761,7336169,410,570.2,529.1,3945,left
43,1,continuous,5,95,trial,7336499.0,7339583.0,3084.0,5,R,7336207,7336535,330,871.0,543.9,3947,NA
43,1,continuous,5,95,trial,7336499.0,7339583.0,3084.0,5,R,7336555,7336641,88,954.0,560.6,3975,NA
43,1,continuous,5,95,trial,7336499.0,7339583.0,3084.0,5,R,7336695,7337019,326,472.3,555.5,3936,left
43,1,continuous,5,95,trial,7336499.0,7339583.0,3084.0,5,R,7337169,7337377,210,1485.2,501.7,3428,right
43,1,continuous,5,95,trial,7336499.0,7339583.0,3084.0,5,R,7337403,7337651,250,1286.8,504.8,3427,right
43,1,continuous,5,95,trial,7336499.0,7339583.0,3084.0,5,R,7337699,7337863,166,1074.6,865.2,3350,likertHorizontal
43,1,continuous,5,95,trial,7336499.0,7339583.0,3084.0,5,R,7337903,7338089,188,1400.9,947.4,3440,NA
43,1,continuous,5,95,trial,7336499.0,7339583.0,3084.0,5,R,7338137,7338405,270,1381.5,515.9,3671,right
43,1,continuous,5,95,trial,7336499.0,7339583.0,3084.0,5,R,7338427,7338619,194,1483.7,532.0,3587,right
43,1,continuous,5,95,trial,7336499.0,7339583.0,3084.0,5,R,7338629,7338859,232,1518.9,522.4,3458,right
43,1,continuous,5,95,postResponse,7336499.0,7339583.0,3084.0,5,R,7338881,7339921,1042,1492.6,483.8,3439,right
43,1,continuous,6,1,fixationCross,7340782.0,7344332.0,3550.0,6,R,7339997,7340207,212,1476.3,492.0,3719,right
43,1,continuous,6,1,fixationCross,7340782.0,7344332.0,3550.0,6,R,7340249,7340475,228,1191.8,519.5,3949,right
43,1,continuous,6,1,trial,7340782.0,7344332.0,3550.0,6,R,7340513,7340947,436,946.4,557.3,4142,NA
43,1,continuous,6,1,trial,7340782.0,7344332.0,3550.0,6,R,7340989,7341179,192,546.0,551.4,4225,left
43,1,continuous,6,1,trial,7340782.0,7344332.0,3550.0,6,R,7341197,7341507,312,623.6,511.3,3837,left
43,1,continuous,6,1,trial,7340782.0,7344332.0,3550.0,6,R,7341539,7341859,322,440.3,525.7,3534,left
43,1,continuous,6,1,trial,7340782.0,7344332.0,3550.0,6,R,7341887,7342005,120,644.1,482.6,3462,left
43,1,continuous,6,1,trial,7340782.0,7344332.0,3550.0,6,R,7342065,7342289,226,1550.4,521.5,3393,right
43,1,continuous,6,1,trial,7340782.0,7344332.0,3550.0,6,R,7342303,7342467,166,1476.4,521.5,3489,right
43,1,continuous,6,1,trial,7340782.0,7344332.0,3550.0,6,R,7342493,7342697,206,1325.6,416.2,3557,right
43,1,continuous,6,1,trial,7340782.0,7344332.0,3550.0,6,R,7342707,7342943,238,1299.4,416.7,3496,right
43,1,continuous,6,1,trial,7340782.0,7344332.0,3550.0,6,R,7343117,7343277,162,1622.2,603.6,3541,right
43,1,continuous,6,1,trial,7340782.0,7344332.0,3550.0,6,R,7343347,7343711,366,583.5,551.7,3817,left
43,1,continuous,6,1,trial,7340782.0,7344332.0,3550.0,6,R,7343761,7344123,364,522.3,927.8,3698,NA
43,1,continuous,6,1,trial,7340782.0,7344332.0,3550.0,6,R,7344135,7344261,128,483.5,944.4,3711,NA
43,1,continuous,6,1,postResponse,7340782.0,7344332.0,3550.0,6,R,7344309,7344667,360,557.0,523.7,3738,left
43,1,continuous,7,50,fixationCross,7345249.0,7348232.0,2983.0,7,R,7344767,7345231,466,976.9,523.3,3929,NA
43,1,continuous,7,50,trial,7345249.0,7348232.0,2983.0,7,R,7345243,7345393,152,952.6,549.0,4143,NA
43,1,continuous,7,50,trial,7345249.0,7348232.0,2983.0,7,R,7345445,7345625,182,550.6,499.6,4183,left
43,1,continuous,7,50,trial,7345249.0,7348232.0,2983.0,7,R,7345645,7345813,170,536.4,430.6,3905,left
43,1,continuous,7,50,trial,7345249.0,7348232.0,2983.0,7,R,7345873,7346121,250,1453.8,473.7,3635,right
43,1,continuous,7,50,trial,7345249.0,7348232.0,2983.0,7,R,7346143,7346505,364,1445.2,382.8,3532,right
43,1,continuous,7,50,trial,7345249.0,7348232.0,2983.0,7,R,7346531,7346711,182,1273.2,466.2,3460,right
43,1,continuous,7,50,trial,7345249.0,7348232.0,2983.0,7,R,7346773,7346973,202,484.8,460.8,3400,left
43,1,continuous,7,50,trial,7345249.0,7348232.0,2983.0,7,R,7347099,7347271,174,957.0,805.3,3557,likertHorizontal
43,1,continuous,7,50,trial,7345249.0,7348232.0,2983.0,7,R,7347293,7347497,206,971.4,869.9,3747,likertHorizontal
43,1,continuous,7,50,trial,7345249.0,7348232.0,2983.0,7,R,7347551,7347707,158,574.0,500.1,3905,left
43,1,continuous,7,50,trial,7345249.0,7348232.0,2983.0,7,R,7347759,7347941,184,1276.5,450.3,3804,right
43,1,continuous,7,50,postResponse,7345249.0,7348232.0,2983.0,7,R,7348145,7348567,424,1252.0,479.4,3674,right
43,1,continuous,8,4,fixationCross,7349616.0,7352982.0,3366.0,8,R,7348641,7348871,232,1244.1,484.7,3706,right
43,1,continuous,8,4,fixationCross,7349616.0,7352982.0,3366.0,8,R,7348893,7349293,402,1320.0,464.8,3806,right
43,1,continuous,8,4,fixationCross,7349616.0,7352982.0,3366.0,8,R,7349333,7349469,138,986.8,528.5,3942,NA
43,1,continuous,8,4,trial,7349616.0,7352982.0,3366.0,8,R,7349481,7349749,270,956.9,541.8,3990,NA
43,1,continuous,8,4,trial,7349616.0,7352982.0,3366.0,8,R,7349797,7350157,362,605.6,510.8,3933,left
43,1,continuous,8,4,trial,7349616.0,7352982.0,3366.0,8,R,7350169,7350985,818,646.0,488.9,3644,left
43,1,continuous,8,4,trial,7349616.0,7352982.0,3366.0,8,R,7351043,7351869,828,1452.0,486.6,3704,right
43,1,continuous,8,4,trial,7349616.0,7352982.0,3366.0,8,R,7351927,7352245,320,578.2,529.5,3941,left
43,1,continuous,8,4,trial,7349616.0,7352982.0,3366.0,8,R,7352275,7352527,254,436.1,628.4,4059,left
43,1,continuous,8,4,trial,7349616.0,7352982.0,3366.0,8,R,7352567,7352779,214,470.1,933.7,4193,NA
43,1,continuous,8,4,postResponse,7349616.0,7352982.0,3366.0,8,R,7352833,7353317,486,573.2,600.7,4064,left
43,1,continuous,9,11,fixationCross,7354032.0,7358799.0,4767.0,9,R,7353417,7353515,100,571.6,600.1,4071,left
43,1,continuous,9,11,fixationCross,7354032.0,7358799.0,4767.0,9,R,7353535,7353739,206,500.8,564.6,4147,left
43,1,continuous,9,11,trial,7354032.0,7358799.0,4767.0,9,R,7353781,7354083,304,891.8,559.7,4164,NA
43,1,continuous,9,11,trial,7354032.0,7358799.0,4767.0,9,R,7354099,7354209,112,942.2,568.0,4235,NA
43,1,continuous,9,11,trial,7354032.0,7358799.0,4767.0,9,R,7354251,7354501,252,576.8,565.9,4303,left
43,1,continuous,9,11,trial,7354032.0,7358799.0,4767.0,9,R,7354521,7354663,144,540.6,603.0,4184,left
43,1,continuous,9,11,trial,7354032.0,7358799.0,4767.0,9,R,7354693,7354933,242,406.0,487.8,4194,left
43,1,continuous,9,11,trial,7354032.0,7358799.0,4767.0,9,R,7354957,7355115,160,397.0,574.0,4068,left
43,1,continuous,9,11,trial,7354032.0,7358799.0,4767.0,9,R,7355135,7355399,266,440.6,542.4,4021,left
43,1,continuous,9,11,trial,7354032.0,7358799.0,4767.0,9,R,7355459,7355683,226,1357.6,567.1,3889,right
43,1,continuous,9,11,trial,7354032.0,7358799.0,4767.0,9,R,7355705,7355997,294,1292.0,624.5,3867,right
43,1,continuous,9,11,trial,7354032.0,7358799.0,4767.0,9,R,7356037,7356381,346,1495.3,488.1,3756,right
43,1,continuous,9,11,trial,7354032.0,7358799.0,4767.0,9,R,7356389,7356609,222,1501.7,480.2,3746,right
43,1,continuous,9,11,trial,7354032.0,7358799.0,4767.0,9,R,7356781,7356921,142,604.2,502.0,3998,left
43,1,continuous,9,11,trial,7354032.0,7358799.0,4767.0,9,R,7356949,7357141,194,467.7,540.6,4095,left
43,1,continuous,9,11,trial,7354032.0,7358799.0,4767.0,9,R,7357167,7357329,164,582.8,454.7,4141,left
43,1,continuous,9,11,trial,7354032.0,7358799.0,4767.0,9,R,7357347,7357523,178,638.3,422.9,3986,left
43,1,continuous,9,11,trial,7354032.0,7358799.0,4767.0,9,R,7357549,7357759,212,510.1,407.4,4007,left
43,1,continuous,9,11,trial,7354032.0,7358799.0,4767.0,9,R,7357787,7358037,252,566.8,535.1,4125,left
43,1,continuous,9,11,trial,7354032.0,7358799.0,4767.0,9,R,7358045,7358463,420,580.1,523.0,4301,left
43,1,continuous,9,11,postResponse,7354032.0,7358799.0,4767.0,9,R,7358475,7359135,662,564.8,504.5,4271,left
43,1,continuous,10,94,fixationCross,7360216.0,7363349.0,3133.0,10,R,7359211,7359543,334,562.7,505.1,4265,left
43,1,continuous,10,94,fixationCross,7360216.0,7363349.0,3133.0,10,R,7359581,7360043,464,860.0,505.9,4307,NA
43,1,continuous,10,94,trial,7360216.0,7363349.0,3133.0,10,R,7360065,7360217,154,934.5,564.3,4418,NA
43,1,continuous,10,94,trial,7360216.0,7363349.0,3133.0,10,R,7360227,7360371,146,934.1,593.3,4490,NA
43,1,continuous,10,94,trial,7360216.0,7363349.0,3133.0,10,R,7360415,7360531,118,489.6,595.4,4607,left
43,1,continuous,10,94,trial,7360216.0,7363349.0,3133.0,10,R,7360553,7360765,214,441.4,643.7,4293,left
43,1,continuous,10,94,trial,7360216.0,7363349.0,3133.0,10,R,7360779,7361221,444,464.0,663.8,3804,left
43,1,continuous,10,94,trial,7360216.0,7363349.0,3133.0,10,R,7361243,7361619,378,404.4,621.6,3638,left
43,1,continuous,10,94,trial,7360216.0,7363349.0,3133.0,10,R,7361633,7361937,306,451.2,620.1,3608,left
43,1,continuous,10,94,trial,7360216.0,7363349.0,3133.0,10,R,7361981,7362029,50,758.4,603.5,3589,NA
43,1,continuous,10,94,trial,7360216.0,7363349.0,3133.0,10,R,7362085,7362457,374,1396.8,538.9,3535,right
43,1,continuous,10,94,trial,7360216.0,7363349.0,3133.0,10,R,7362483,7362699,218,1513.8,502.4,3676,right
43,1,continuous,10,94,trial,7360216.0,7363349.0,3133.0,10,R,7362733,7362979,248,1346.1,668.7,3782,right
43,1,continuous,10,94,trial,7360216.0,7363349.0,3133.0,10,R,7363001,7363069,70,1343.2,669.1,3851,right
43,1,continuous,10,94,postResponse,7360216.0,7363349.0,3133.0,10,R,7363129,7363699,572,1345.1,671.8,3936,right
43,1,continuous,11,12,fixationCross,7365249.0,7369049.0,3800.0,11,R,7363773,7363815,44,1340.8,666.9,3917,right
43,1,continuous,11,12,fixationCross,7365249.0,7369049.0,3800.0,11,R,7363855,7363881,28,1114.2,601.2,3948,NA
43,1,continuous,11,12,fixationCross,7365249.0,7369049.0,3800.0,11,R,7363925,7364725,802,727.5,592.8,4150,left
43,1,continuous,11,12,fixationCross,7365249.0,7369049.0,3800.0,11,R,7364751,7364921,172,860.1,579.2,4215,NA
43,1,continuous,11,12,trial,7365249.0,7369049.0,3800.0,11,R,7364941,7365525,586,952.4,578.6,4176,NA
43,1,continuous,11,12,trial,7365249.0,7369049.0,3800.0,11,R,7365673,7365911,240,451.4,540.0,3974,left
43,1,continuous,11,12,trial,7365249.0,7369049.0,3800.0,11,R,7365925,7366127,204,474.3,571.7,3884,left
43,1,continuous,11,12,trial,7365249.0,7369049.0,3800.0,11,R,7366139,7366335,198,487.6,541.7,3623,left
43,1,continuous,11,12,trial,7365249.0,7369049.0,3800.0,11,R,7366359,7366499,142,483.6,433.1,3433,left
43,1,continuous,11,12,trial,7365249.0,7369049.0,3800.0,11,R,7366567,7366745,180,1516.0,478.7,3284,right
43,1,continuous,11,12,trial,7365249.0,7369049.0,3800.0,11,R,7366759,7367065,308,1520.9,513.4,3299,right
43,1,continuous,11,12,trial,7365249.0,7369049.0,3800.0,11,R,7367089,7367221,134,1533.2,422.2,3495,right
43,1,continuous,11,12,trial,7365249.0,7369049.0,3800.0,11,R,7367385,7367405,22,1573.4,709.9,3756,right
43,1,continuous,11,12,trial,7365249.0,7369049.0,3800.0,11,R,7367459,7367511,54,1567.6,715.7,3807,right
43,1,continuous,11,12,trial,7365249.0,7369049.0,3800.0,11,R,7367633,7367671,40,1562.5,717.9,3882,right
43,1,continuous,11,12,trial,7365249.0,7369049.0,3800.0,11,R,7367693,7367715,24,1644.1,685.7,3861,right
43,1,continuous,11,12,trial,7365249.0,7369049.0,3800.0,11,R,7367753,7368131,380,1644.0,689.5,3939,right
43,1,continuous,11,12,trial,7365249.0,7369049.0,3800.0,11,R,7368155,7368325,172,1562.8,542.8,3939,right
43,1,continuous,11,12,trial,7365249.0,7369049.0,3800.0,11,R,7368395,7368759,366,460.5,649.8,4074,left
43,1,continuous,11,12,trial,7365249.0,7369049.0,3800.0,11,R,7368787,7368983,198,334.5,513.4,3847,left
43,1,continuous,11,12,trial,7365249.0,7369049.0,3800.0,11,R,7369053,7369203,152,609.8,968.0,3780,NA
43,1,continuous,11,12,postResponse,7365249.0,7369049.0,3800.0,11,R,7369253,7369383,132,607.4,958.5,3797,NA
43,1,continuous,12,89,fixationCross,7370099.0,7372916.0,2817.0,12,R,7369457,7369615,160,823.2,668.2,3889,NA
43,1,continuous,12,89,fixationCross,7370099.0,7372916.0,2817.0,12,R,7369661,7369841,182,1083.0,510.3,3975,NA
43,1,continuous,12,89,trial,7370099.0,7372916.0,2817.0,12,R,7369865,7370355,492,951.5,574.2,4222,NA
43,1,continuous,12,89,trial,7370099.0,7372916.0,2817.0,12,R,7370399,7370567,170,1433.4,545.2,3969,right
43,1,continuous,12,89,trial,7370099.0,7372916.0,2817.0,12,R,7370589,7370939,352,1425.8,444.1,3594,right
43,1,continuous,12,89,trial,7370099.0,7372916.0,2817.0,12,R,7371001,7371189,190,485.0,511.4,3361,left
43,1,continuous,12,89,trial,7370099.0,7372916.0,2817.0,12,R,7371203,7371393,192,517.9,522.6,3294,left
43,1,continuous,12,89,trial,7370099.0,7372916.0,2817.0,12,R,7371417,7371683,268,498.1,416.2,3202,left
43,1,continuous,12,89,trial,7370099.0,7372916.0,2817.0,12,R,7371701,7371909,210,426.9,410.0,3183,left
43,1,continuous,12,89,trial,7370099.0,7372916.0,2817.0,12,R,7371973,7372203,232,1392.4,476.3,3293,right
43,1,continuous,12,89,postResponse,7370099.0,7372916.0,2817.0,12,R,7372219,7373249,1032,1442.0,422.1,3344,right
43,1,continuous,13,92,fixationCross,7374233.0,7377299.0,3066.0,13,R,7373351,7373569,220,785.1,467.0,3664,NA
43,1,continuous,13,92,fixationCross,7374233.0,7377299.0,3066.0,13,R,7373609,7373923,316,526.8,479.3,3921,left
43,1,continuous,13,92,trial,7374233.0,7377299.0,3066.0,13,R,7373965,7374387,424,967.5,553.6,3917,NA
43,1,continuous,13,92,trial,7374233.0,7377299.0,3066.0,13,R,7374437,7374627,192,574.5,579.2,3867,left
43,1,continuous,13,92,trial,7374233.0,7377299.0,3066.0,13,R,7374643,7374721,80,624.7,584.4,3800,left
43,1,continuous,13,92,trial,7374233.0,7377299.0,3066.0,13,R,7374763,7374791,30,618.9,583.7,3773,left
43,1,continuous,13,92,trial,7374233.0,7377299.0,3066.0,13,R,7374827,7374895,70,621.2,586.0,3752,left
43,1,continuous,13,92,trial,7374233.0,7377299.0,3066.0,13,R,7374925,7375123,200,404.1,600.5,3740,left
43,1,continuous,13,92,trial,7374233.0,7377299.0,3066.0,13,R,7375175,7375203,30,614.6,590.0,3735,left
43,1,continuous,13,92,trial,7374233.0,7377299.0,3066.0,13,R,7375263,7375747,486,1403.0,536.6,3663,right
43,1,continuous,13,92,trial,7374233.0,7377299.0,3066.0,13,R,7375763,7375933,172,1353.1,571.2,3911,right
43,1,continuous,13,92,postResponse,7374233.0,7377299.0,3066.0,13,R,7375957,7377633,1678,1356.1,632.5,3997,right
43,1,continuous,14,90,fixationCross,7378683.0,7383616.0,4933.0,14,R,7377925,7378223,300,1162.1,498.0,4113,NA
43,1,continuous,14,90,fixationCross,7378683.0,7383616.0,4933.0,14,R,7378267,7378453,188,770.0,539.5,4268,NA
43,1,continuous,14,90,trial,7378683.0,7383616.0,4933.0,14,R,7378477,7378809,334,939.7,558.7,4029,NA
43,1,continuous,14,90,trial,7378683.0,7383616.0,4933.0,14,R,7378851,7379019,170,573.1,580.7,3868,left
43,1,continuous,14,90,trial,7378683.0,7383616.0,4933.0,14,R,7379041,7379213,174,472.5,613.7,3682,left
43,1,continuous,14,90,trial,7378683.0,7383616.0,4933.0,14,R,7379241,7379471,232,344.9,518.1,3445,left
43,1,continuous,14,90,trial,7378683.0,7383616.0,4933.0,14,R,7379481,7379657,178,316.5,519.8,3292,left
43,1,continuous,14,90,trial,7378683.0,7383616.0,4933.0,14,R,7379667,7380197,532,314.8,497.0,3195,left
43,1,continuous,14,90,trial,7378683.0,7383616.0,4933.0,14,R,7380221,7380343,124,392.8,606.5,3240,left
43,1,continuous,14,90,trial,7378683.0,7383616.0,4933.0,14,R,7380471,7380759,290,488.3,609.8,3415,left
43,1,continuous,14,90,trial,7378683.0,7383616.0,4933.0,14,R,7380821,7381009,190,1398.4,506.5,3559,right
43,1,continuous,14,90,trial,7378683.0,7383616.0,4933.0,14,R,7381029,7381299,272,1324.1,480.3,3564,right
43,1,continuous,14,90,trial,7378683.0,7383616.0,4933.0,14,R,7381321,7381693,374,1380.4,553.1,3590,right
43,1,continuous,14,90,trial,7378683.0,7383616.0,4933.0,14,R,7382219,7382485,268,1503.2,493.9,3657,right
43,1,continuous,14,90,trial,7378683.0,7383616.0,4933.0,14,R,7382509,7383217,710,1375.5,546.8,3822,right
43,1,continuous,14,90,trial,7378683.0,7383616.0,4933.0,14,R,7383237,7383545,310,1374.0,502.7,3969,right
43,1,continuous,14,90,postResponse,7378683.0,7383616.0,4933.0,14,R,7383597,7383959,364,1346.6,552.6,3997,right
43,1,continuous,15,9,fixationCross,7384683.0,7389000.0,4317.0,15,R,7384059,7384357,300,1337.2,564.0,4109,right
43,1,continuous,15,9,trial,7384683.0,7389000.0,4317.0,15,R,7384399,7384721,324,923.1,566.4,4149,NA
43,1,continuous,15,9,trial,7384683.0,7389000.0,4317.0,15,R,7384763,7384979,218,582.8,570.6,4059,left
43,1,continuous,15,9,trial,7384683.0,7389000.0,4317.0,15,R,7385005,7385519,516,505.5,627.0,3683,left
43,1,continuous,15,9,trial,7384683.0,7389000.0,4317.0,15,R,7385577,7385725,150,1377.5,547.2,3165,right
43,1,continuous,15,9,trial,7384683.0,7389000.0,4317.0,15,R,7385743,7385901,160,1308.8,530.4,3052,right
43,1,continuous,15,9,trial,7384683.0,7389000.0,4317.0,15,R,7385919,7386015,98,1310.8,476.5,3018,right
43,1,continuous,15,9,trial,7384683.0,7389000.0,4317.0,15,R,7386049,7386281,234,1530.8,495.1,3031,right
43,1,continuous,15,9,trial,7384683.0,7389000.0,4317.0,15,R,7386297,7386961,666,1503.9,545.7,3163,right
43,1,continuous,15,9,trial,7384683.0,7389000.0,4317.0,15,R,7387029,7387191,164,564.8,560.5,3476,left
43,1,continuous,15,9,trial,7384683.0,7389000.0,4317.0,15,R,7387211,7387953,744,538.0,606.2,3449,left
43,1,continuous,15,9,trial,7384683.0,7389000.0,4317.0,15,R,7387981,7388121,142,547.8,706.0,3281,left
43,1,continuous,15,9,postResponse,7384683.0,7389000.0,4317.0,15,R,7388131,7389333,1204,537.7,696.3,3650,left
43,1,continuous,16,4,fixationCross,7390165.0,7393850.0,3685.0,16,R,7389407,7389575,170,675.3,606.0,3934,left
43,1,continuous,16,4,fixationCross,7390165.0,7393850.0,3685.0,16,R,7389635,7389751,118,1402.4,500.6,3914,right
43,1,continuous,16,4,fixationCross,7390165.0,7393850.0,3685.0,16,R,7389803,7389905,104,951.6,531.1,3992,NA
43,1,continuous,16,4,trial,7390165.0,7393850.0,3685.0,16,R,7390061,7390311,252,896.6,524.7,4017,NA
43,1,continuous,16,4,trial,7390165.0,7393850.0,3685.0,16,R,7390345,7390511,168,671.2,519.4,4068,left
43,1,continuous,16,4,trial,7390165.0,7393850.0,3685.0,16,R,7390541,7390737,198,480.9,535.7,3709,left
43,1,continuous,16,4,trial,7390165.0,7393850.0,3685.0,16,R,7390763,7391181,420,306.8,492.7,3286,left
43,1,continuous,16,4,trial,7390165.0,7393850.0,3685.0,16,R,7391207,7391361,156,519.9,507.9,3158,left
43,1,continuous,16,4,trial,7390165.0,7393850.0,3685.0,16,R,7391421,7391589,170,1445.2,438.3,3123,right
43,1,continuous,16,4,trial,7390165.0,7393850.0,3685.0,16,R,7391607,7391771,166,1414.8,398.2,3125,right
43,1,continuous,16,4,trial,7390165.0,7393850.0,3685.0,16,R,7391781,7391945,166,1418.0,374.8,3195,right
43,1,continuous,16,4,trial,7390165.0,7393850.0,3685.0,16,R,7391973,7392529,558,1515.7,493.0,3370,right
43,1,continuous,16,4,trial,7390165.0,7393850.0,3685.0,16,R,7392563,7392641,80,1286.7,494.2,3528,right
43,1,continuous,16,4,trial,7390165.0,7393850.0,3685.0,16,R,7392711,7393067,358,499.3,550.8,3622,left
43,1,continuous,16,4,trial,7390165.0,7393850.0,3685.0,16,R,7393091,7393297,208,474.7,628.0,3611,left
43,1,continuous,16,4,trial,7390165.0,7393850.0,3685.0,16,R,7393323,7393501,180,635.8,608.1,3575,left
43,1,continuous,16,4,trial,7390165.0,7393850.0,3685.0,16,R,7393527,7393817,292,655.9,464.3,3451,left
43,1,continuous,16,4,postResponse,7390165.0,7393850.0,3685.0,16,R,7393873,7394183,312,1407.1,492.2,3549,right
43,1,continuous,17,8,fixationCross,7395466.0,7398550.0,3084.0,17,R,7394257,7394323,68,1401.4,494.1,3665,right
43,1,continuous,17,8,fixationCross,7395466.0,7398550.0,3084.0,17,R,7394375,7394931,558,790.2,533.8,3802,NA
43,1,continuous,17,8,fixationCross,7395466.0,7398550.0,3084.0,17,R,7394967,7394993,28,785.1,535.5,3845,NA
43,1,continuous,17,8,fixationCross,7395466.0,7398550.0,3084.0,17,R,7395021,7395043,24,788.7,543.1,3866,NA
43,1,continuous,17,8,fixationCross,7395466.0,7398550.0,3084.0,17,R,7395173,7395331,160,931.0,545.8,3908,NA
43,1,continuous,17,8,trial,7395466.0,7398550.0,3084.0,17,R,7395341,7395597,258,943.7,562.7,3922,NA
43,1,continuous,17,8,trial,7395466.0,7398550.0,3084.0,17,R,7395639,7395907,270,576.8,544.3,3838,left
43,1,continuous,17,8,trial,7395466.0,7398550.0,3084.0,17,R,7395941,7396147,208,358.3,480.7,3478,left
43,1,continuous,17,8,trial,7395466.0,7398550.0,3084.0,17,R,7396155,7396277,124,380.5,472.0,3326,left
43,1,continuous,17,8,trial,7395466.0,7398550.0,3084.0,17,R,7396345,7396595,252,1457.9,561.6,3193,right
43,1,continuous,17,8,trial,7395466.0,7398550.0,3084.0,17,R,7396621,7396829,210,1369.8,502.3,3188,right
43,1,continuous,17,8,trial,7395466.0,7398550.0,3084.0,17,R,7396843,7396955,114,1425.9,507.4,3190,right
43,1,continuous,17,8,trial,7395466.0,7398550.0,3084.0,17,R,7397019,7397187,170,474.0,435.9,3285,left
43,1,continuous,17,8,trial,7395466.0,7398550.0,3084.0,17,R,7397209,7397269,62,391.5,465.1,3366,left
43,1,continuous,17,8,trial,7395466.0,7398550.0,3084.0,17,R,7397303,7397461,160,552.0,614.4,3437,left
43,1,continuous,17,8,postResponse,7395466.0,7398550.0,3084.0,17,R,7397485,7398881,1398,546.9,694.0,3588,left
43,1,continuous,18,94,fixationCross,7399582.0,7402617.0,3035.0,18,R,7398955,7399009,56,518.6,705.3,3764,left
43,1,continuous,18,94,fixationCross,7399582.0,7402617.0,3035.0,18,R,7399063,7399297,236,1090.2,553.1,3791,NA
43,1,continuous,18,94,fixationCross,7399582.0,7402617.0,3035.0,18,R,7399321,7399457,138,965.8,552.8,3860,NA
43,1,continuous,18,94,trial,7399582.0,7402617.0,3035.0,18,R,7399641,7399767,128,951.8,525.1,3963,NA
43,1,continuous,18,94,trial,7399582.0,7402617.0,3035.0,18,R,7399819,7400043,226,521.3,587.4,4017,left
43,1,continuous,18,94,trial,7399582.0,7402617.0,3035.0,18,R,7400059,7400277,220,495.7,538.6,3704,left
43,1,continuous,18,94,trial,7399582.0,7402617.0,3035.0,18,R,7400309,7400413,106,322.4,492.7,3410,left
43,1,continuous,18,94,trial,7399582.0,7402617.0,3035.0,18,R,7400481,7400679,200,1484.3,473.2,3227,right
43,1,continuous,18,94,trial,7399582.0,7402617.0,3035.0,18,R,7400699,7400853,156,1573.9,517.0,3228,right
43,1,continuous,18,94,trial,7399582.0,7402617.0,3035.0,18,R,7400865,7401023,160,1573.2,494.3,3359,right
43,1,continuous,18,94,trial,7399582.0,7402617.0,3035.0,18,R,7401057,7401257,202,1293.3,497.2,3456,right
43,1,continuous,18,94,trial,7399582.0,7402617.0,3035.0,18,R,7401277,7401497,222,1224.0,547.4,3524,right
43,1,continuous,18,94,trial,7399582.0,7402617.0,3035.0,18,R,7401519,7401707,190,1336.3,512.4,3638,right
43,1,continuous,18,94,trial,7399582.0,7402617.0,3035.0,18,R,7401733,7402107,376,1497.5,554.3,3784,right
43,1,continuous,18,94,trial,7399582.0,7402617.0,3035.0,18,R,7402137,7402225,90,1254.9,585.5,3812,right
43,1,continuous,18,94,trial,7399582.0,7402617.0,3035.0,18,R,7402287,7402515,230,557.6,590.7,3867,left
43,1,continuous,18,94,postResponse,7399582.0,7402617.0,3035.0,18,R,7402533,7402963,432,537.8,541.7,3650,left
43,1,continuous,19,90,fixationCross,7404266.0,7406583.0,2317.0,19,R,7403037,7403283,248,543.5,538.0,3477,left
43,1,continuous,19,90,fixationCross,7404266.0,7406583.0,2317.0,19,R,7403311,7403657,348,706.4,537.8,3642,left
43,1,continuous,19,90,fixationCross,7404266.0,7406583.0,2317.0,19,R,7403685,7403953,270,517.8,541.9,3839,left
43,1,continuous,19,90,fixationCross,7404266.0,7406583.0,2317.0,19,R,7403997,7404111,116,899.6,548.2,3877,NA
43,1,continuous,19,90,trial,7404266.0,7406583.0,2317.0,19,R,7404127,7404377,252,943.9,551.0,3856,NA
43,1,continuous,19,90,trial,7404266.0,7406583.0,2317.0,19,R,7404419,7404593,176,557.9,571.4,3935,left
43,1,continuous,19,90,trial,7404266.0,7406583.0,2317.0,19,R,7404617,7404741,126,433.9,564.1,3786,left
43,1,continuous,19,90,trial,7404266.0,7406583.0,2317.0,19,R,7404775,7405131,358,629.7,432.1,3409,left
43,1,continuous,19,90,trial,7404266.0,7406583.0,2317.0,19,R,7405187,7405525,340,1443.7,548.1,3180,right
43,1,continuous,19,90,postResponse,7404266.0,7406583.0,2317.0,19,R,7405545,7406915,1372,1401.5,512.8,3292,right
43,1,continuous,20,89,fixationCross,7408033.0,7412133.0,4100.0,20,R,7407015,7407713,700,1380.7,532.4,3652,right
43,1,continuous,20,89,fixationCross,7408033.0,7412133.0,4100.0,20,R,7407759,7408001,244,974.1,559.1,3892,NA
43,1,continuous,20,89,trial,7408033.0,7412133.0,4100.0,20,R,7408021,7408059,40,926.2,555.2,3927,NA
43,1,continuous,20,89,trial,7408033.0,7412133.0,4100.0,20,R,7408237,7408409,174,634.9,503.6,3856,left
43,1,continuous,20,89,trial,7408033.0,7412133.0,4100.0,20,R,7408421,7408739,320,609.5,525.3,3671,left
43,1,continuous,20,89,trial,7408033.0,7412133.0,4100.0,20,R,7408759,7408905,148,540.4,491.6,3288,left
43,1,continuous,20,89,trial,7408033.0,7412133.0,4100.0,20,R,7408923,7409077,156,638.5,488.9,3125,left
43,1,continuous,20,89,trial,7408033.0,7412133.0,4100.0,20,R,7409135,7409337,204,1481.8,466.2,2987,right
43,1,continuous,20,89,trial,7408033.0,7412133.0,4100.0,20,R,7409359,7409503,146,1433.4,417.2,2982,right
43,1,continuous,20,89,trial,7408033.0,7412133.0,4100.0,20,R,7409531,7409737,208,1580.2,470.4,3139,right
43,1,continuous,20,89,trial,7408033.0,7412133.0,4100.0,20,R,7409747,7410125,380,1533.2,485.0,3396,right
43,1,continuous,20,89,trial,7408033.0,7412133.0,4100.0,20,R,7410147,7410311,166,1383.6,443.4,3634,right
43,1,continuous,20,89,trial,7408033.0,7412133.0,4100.0,20,R,7410475,7410635,162,1389.4,489.4,3784,right
43,1,continuous,20,89,trial,7408033.0,7412133.0,4100.0,20,R,7410673,7410809,138,1402.5,731.1,3931,right
43,1,continuous,20,89,trial,7408033.0,7412133.0,4100.0,20,R,7410823,7410947,126,1396.8,705.0,3968,right
43,1,continuous,20,89,trial,7408033.0,7412133.0,4100.0,20,R,7410975,7411023,50,1397.4,704.6,3907,right
43,1,continuous,20,89,trial,7408033.0,7412133.0,4100.0,20,R,7411035,7411285,252,1360.9,695.2,3775,right
43,1,continuous,20,89,trial,7408033.0,7412133.0,4100.0,20,R,7411405,7411495,92,1444.0,700.0,3731,right
43,1,continuous,20,89,trial,7408033.0,7412133.0,4100.0,20,R,7411621,7411651,32,1442.8,715.3,3789,right
43,1,continuous,20,89,trial,7408033.0,7412133.0,4100.0,20,R,7411721,7411765,46,1439.6,720.9,3831,right
43,1,continuous,20,89,trial,7408033.0,7412133.0,4100.0,20,R,7411813,7411847,36,1436.5,723.0,3873,right
43,1,continuous,20,89,trial,7408033.0,7412133.0,4100.0,20,R,7411891,7411939,50,1437.0,724.5,3920,right
43,1,continuous,20,89,trial,7408033.0,7412133.0,4100.0,20,R,7411969,7412271,304,1356.8,719.4,4005,right
43,1,continuous,20,89,postResponse,7408033.0,7412133.0,4100.0,20,R,7412387,7412469,84,1351.1,719.9,4074,right
43,1,continuous,21,5,fixationCross,7413416.0,7417249.0,3833.0,21,R,7412567,7412743,178,1352.7,723.8,4111,right
43,1,continuous,21,5,fixationCross,7413416.0,7417249.0,3833.0,21,R,7412769,7412989,222,1350.8,724.1,4170,right
43,1,continuous,21,5,fixationCross,7413416.0,7417249.0,3833.0,21,R,7413149,7413325,178,943.0,579.4,4358,NA
43,1,continuous,21,5,trial,7413416.0,7417249.0,3833.0,21,R,7413335,7413547,214,965.1,597.1,4426,NA
43,1,continuous,21,5,trial,7413416.0,7417249.0,3833.0,21,R,7413587,7413799,214,608.5,595.2,4230,left
43,1,continuous,21,5,trial,7413416.0,7417249.0,3833.0,21,R,7413821,7414141,322,499.8,627.2,3704,left
43,1,continuous,21,5,trial,7413416.0,7417249.0,3833.0,21,R,7414163,7414425,264,410.9,605.8,3404,left
43,1,continuous,21,5,trial,7413416.0,7417249.0,3833.0,21,R,7414447,7414763,318,489.8,544.9,3363,left
43,1,continuous,21,5,trial,7413416.0,7417249.0,3833.0,21,R,7414785,7414975,192,417.3,586.5,3454,left
43,1,continuous,21,5,trial,7413416.0,7417249.0,3833.0,21,R,7414999,7415213,216,551.5,590.8,3498,left
43,1,continuous,21,5,trial,7413416.0,7417249.0,3833.0,21,R,7415275,7415529,256,1471.8,587.2,3420,right
43,1,continuous,21,5,trial,7413416.0,7417249.0,3833.0,21,R,7415553,7415685,134,1375.8,532.7,3441,right
43,1,continuous,21,5,trial,7413416.0,7417249.0,3833.0,21,R,7415709,7415997,290,1499.8,563.5,3497,right
43,1,continuous,21,5,trial,7413416.0,7417249.0,3833.0,21,R,7416183,7416205,24,1629.5,619.2,3535,right
43,1,continuous,21,5,trial,7413416.0,7417249.0,3833.0,21,R,7416283,7416477,196,696.5,642.3,3689,left
43,1,continuous,21,5,trial,7413416.0,7417249.0,3833.0,21,R,7416515,7416823,310,478.7,584.2,3714,left
43,1,continuous,21,5,trial,7413416.0,7417249.0,3833.0,21,R,7416845,7417079,236,493.4,693.1,3644,left
43,1,continuous,21,5,postResponse,7413416.0,7417249.0,3833.0,21,R,7417115,7417583,470,530.6,497.4,3656,left
43,1,continuous,22,4,fixationCross,7418133.0,7422167.0,4034.0,22,R,7417657,7417695,40,536.5,490.2,3477,left
43,1,continuous,22,4,trial,7418133.0,7422167.0,4034.0,22,R,7417739,7418167,430,970.3,486.4,3551,NA
43,1,continuous,22,4,trial,7418133.0,7422167.0,4034.0,22,R,7418209,7418363,156,651.7,545.5,3866,left
43,1,continuous,22,4,trial,7418133.0,7422167.0,4034.0,22,R,7418393,7418541,150,488.7,548.4,3953,left
43,1,continuous,22,4,trial,7418133.0,7422167.0,4034.0,22,R,7418565,7418709,146,585.3,614.1,3833,left
43,1,continuous,22,4,trial,7418133.0,7422167.0,4034.0,22,R,7418733,7419353,622,484.3,617.2,3754,left
43,1,continuous,22,4,trial,7418133.0,7422167.0,4034.0,22,R,7419363,7419669,308,526.9,615.7,3651,left
43,1,continuous,22,4,trial,7418133.0,7422167.0,4034.0,22,R,7419731,7419875,146,1386.7,528.3,3560,right
43,1,continuous,22,4,trial,7418133.0,7422167.0,4034.0,22,R,7420031,7420251,222,479.4,612.2,3742,left
43,1,continuous,22,4,trial,7418133.0,7422167.0,4034.0,22,R,7420311,7420491,182,1352.9,595.1,3889,right
43,1,continuous,22,4,trial,7418133.0,7422167.0,4034.0,22,R,7420509,7420671,164,1408.0,587.6,3865,right
43,1,continuous,22,4,trial,7418133.0,7422167.0,4034.0,22,R,7420697,7420935,240,1416.1,457.1,3703,right
43,1,continuous,22,4,trial,7418133.0,7422167.0,4034.0,22,R,7420959,7421033,76,1404.3,370.9,3662,right
43,1,continuous,22,4,trial,7418133.0,7422167.0,4034.0,22,R,7421161,7421283,124,475.3,698.4,3912,left
43,1,continuous,22,4,trial,7418133.0,7422167.0,4034.0,22,R,7421315,7421583,270,581.5,647.1,4038,left
43,1,continuous,22,4,trial,7418133.0,7422167.0,4034.0,22,R,7421595,7421775,182,605.8,655.3,4071,left
43,1,continuous,22,4,trial,7418133.0,7422167.0,4034.0,22,R,7421787,7422151,366,644.2,643.2,4060,left
43,1,continuous,22,4,postResponse,7418133.0,7422167.0,4034.0,22,R,7422179,7422515,338,497.9,634.9,3931,left
43,1,continuous,23,92,fixationCross,7423300.0,7426266.0,2966.0,23,R,7422615,7422927,314,499.5,634.6,3947,left
43,1,continuous,23,92,fixationCross,7423300.0,7426266.0,2966.0,23,R,7422969,7423215,248,881.2,600.8,4107,NA
43,1,continuous,23,92,trial,7423300.0,7426266.0,2966.0,23,R,7423261,7423469,210,509.4,586.1,4262,left
43,1,continuous,23,92,trial,7423300.0,7426266.0,2966.0,23,R,7423491,7423655,166,456.5,538.9,4292,left
43,1,continuous,23,92,trial,7423300.0,7426266.0,2966.0,23,R,7423667,7423815,150,494.4,515.8,3930,left
43,1,continuous,23,92,trial,7423300.0,7426266.0,2966.0,23,R,7423847,7424109,264,291.0,536.2,3605,left
43,1,continuous,23,92,trial,7423300.0,7426266.0,2966.0,23,R,7424153,7424317,166,601.3,617.2,3491,left
43,1,continuous,23,92,trial,7423300.0,7426266.0,2966.0,23,R,7424329,7424443,116,641.8,625.2,3452,left
43,1,continuous,23,92,trial,7423300.0,7426266.0,2966.0,23,R,7424503,7424689,188,1507.4,577.0,3366,right
43,1,continuous,23,92,trial,7423300.0,7426266.0,2966.0,23,R,7424709,7425335,628,1444.1,535.9,3226,right
43,1,continuous,23,92,trial,7423300.0,7426266.0,2966.0,23,R,7425351,7425577,228,1509.6,533.9,3071,right
43,1,continuous,23,92,postResponse,7423300.0,7426266.0,2966.0,23,R,7425591,7426599,1010,1445.1,533.9,3307,right
43,1,continuous,24,86,fixationCross,7427433.0,7430500.0,3067.0,24,R,7426673,7427113,442,1423.8,545.3,3835,right
43,1,continuous,24,86,trial,7427433.0,7430500.0,3067.0,24,R,7427159,7427579,422,955.8,568.1,4097,NA
43,1,continuous,24,86,trial,7427433.0,7430500.0,3067.0,24,R,7427623,7427733,112,559.5,578.1,4137,left
43,1,continuous,24,86,trial,7427433.0,7430500.0,3067.0,24,R,7427759,7427971,214,399.9,485.5,3916,left
43,1,continuous,24,86,trial,7427433.0,7430500.0,3067.0,24,R,7428129,7428379,252,429.3,636.1,3596,left
43,1,continuous,24,86,trial,7427433.0,7430500.0,3067.0,24,R,7428395,7428553,160,447.0,597.6,3652,left
43,1,continuous,24,86,trial,7427433.0,7430500.0,3067.0,24,R,7428619,7428867,250,1488.9,506.8,3456,right
43,1,continuous,24,86,trial,7427433.0,7430500.0,3067.0,24,R,7428885,7429097,214,1410.3,494.8,3438,right
43,1,continuous,24,86,trial,7427433.0,7430500.0,3067.0,24,R,7429109,7429461,354,1388.6,478.3,3371,right
43,1,continuous,24,86,trial,7427433.0,7430500.0,3067.0,24,R,7429483,7429909,428,1355.3,541.5,3365,right
43,1,continuous,24,86,trial,7427433.0,7430500.0,3067.0,24,R,7429937,7430043,108,1504.9,626.3,3495,right
43,1,continuous,24,86,trial,7427433.0,7430500.0,3067.0,24,R,7430159,7430189,32,1535.9,685.3,3694,right
43,1,continuous,24,86,trial,7427433.0,7430500.0,3067.0,24,R,7430289,7430315,28,1529.1,687.5,3804,right
43,1,continuous,25,95,fixationCross,7431534.0,7434499.0,2965.0,25,R,7430907,7431259,354,1072.9,589.9,4180,NA
43,1,continuous,25,95,trial,7431534.0,7434499.0,2965.0,25,R,7431285,7431611,328,968.3,589.1,4330,NA
43,1,continuous,25,95,trial,7431534.0,7434499.0,2965.0,25,R,7431653,7431893,242,604.7,587.3,4289,left
43,1,continuous,25,95,trial,7431534.0,7434499.0,2965.0,25,R,7431915,7432433,520,571.6,501.7,3868,left
43,1,continuous,25,95,trial,7431534.0,7434499.0,2965.0,25,R,7432497,7432759,264,1509.5,495.2,3850,right
43,1,continuous,25,95,trial,7431534.0,7434499.0,2965.0,25,R,7432773,7432983,212,1487.3,535.8,3948,right
43,1,continuous,25,95,trial,7431534.0,7434499.0,2965.0,25,R,7433023,7433151,130,1300.7,749.6,4007,NA
43,1,continuous,25,95,trial,7431534.0,7434499.0,2965.0,25,R,7433435,7433973,540,1494.8,520.4,3806,right
43,1,continuous,25,95,trial,7431534.0,7434499.0,2965.0,25,R,7434039,7434205,168,1308.3,728.5,4020,right
43,1,continuous,25,95,trial,7431534.0,7434499.0,2965.0,25,R,7434409,7434509,102,1300.0,713.9,4115,right
43,1,continuous,25,95,trial,7431534.0,7434499.0,2965.0,25,R,7434681,7434731,52,1295.0,710.7,4094,right
43,1,continuous,26,94,fixationCross,7459883.0,7462517.0,2634.0,26,R,7459286,7459502,218,115.0,80.6,3720,NA
43,1,continuous,26,94,trial,7459883.0,7462517.0,2634.0,26,R,7459562,7460086,526,953.8,549.7,3748,NA
43,1,continuous,26,94,trial,7459883.0,7462517.0,2634.0,26,R,7460126,7460730,606,583.2,557.5,3422,left
43,1,continuous,26,94,trial,7459883.0,7462517.0,2634.0,26,R,7460788,7461018,232,1404.0,519.1,3217,right
43,1,continuous,26,94,trial,7459883.0,7462517.0,2634.0,26,R,7461040,7461232,194,1358.3,477.2,3232,right
43,1,continuous,26,94,trial,7459883.0,7462517.0,2634.0,26,R,7461246,7461466,222,1408.5,488.0,3179,right
43,1,continuous,26,94,postResponse,7459883.0,7462517.0,2634.0,26,R,7461488,7462846,1360,1407.8,547.4,3366,right
43,1,continuous,27,1,fixationCross,7464317.0,7466817.0,2500.0,27,R,7462940,7463098,160,1024.0,568.7,3777,NA
43,1,continuous,27,1,fixationCross,7464317.0,7466817.0,2500.0,27,R,7463142,7463286,146,667.1,555.4,3935,left
43,1,continuous,27,1,fixationCross,7464317.0,7466817.0,2500.0,27,R,7463316,7463704,390,832.4,547.9,3994,NA
43,1,continuous,27,1,fixationCross,7464317.0,7466817.0,2500.0,27,R,7463738,7463996,260,675.4,553.8,4111,left
43,1,continuous,27,1,trial,7464317.0,7466817.0,2500.0,27,R,7464030,7464476,448,932.8,571.8,3988,NA
43,1,continuous,27,1,trial,7464317.0,7466817.0,2500.0,27,R,7464518,7464702,186,600.2,565.2,3942,left
43,1,continuous,27,1,trial,7464317.0,7466817.0,2500.0,27,R,7464728,7464966,240,464.1,526.3,3693,left
43,1,continuous,27,1,trial,7464317.0,7466817.0,2500.0,27,R,7465024,7465260,238,1339.7,533.2,3436,right
43,1,continuous,27,1,trial,7464317.0,7466817.0,2500.0,27,R,7465286,7465508,224,1512.1,589.1,3371,right
43,1,continuous,27,1,trial,7464317.0,7466817.0,2500.0,27,R,7465538,7465772,236,1538.3,439.1,3448,right
43,1,continuous,27,1,trial,7464317.0,7466817.0,2500.0,27,R,7465812,7465884,74,1232.1,427.3,3551,right
43,1,continuous,27,1,trial,7464317.0,7466817.0,2500.0,27,R,7465936,7466116,182,622.3,539.8,3683,left
43,1,continuous,27,1,trial,7464317.0,7466817.0,2500.0,27,R,7466132,7466350,220,668.4,525.1,3655,left
43,1,continuous,27,1,trial,7464317.0,7466817.0,2500.0,27,R,7466400,7466756,358,456.8,959.7,3689,NA
43,1,continuous,27,1,trial,7464317.0,7466817.0,2500.0,27,R,7466768,7466854,88,472.0,939.2,3650,NA
43,1,continuous,27,1,postResponse,7464317.0,7466817.0,2500.0,27,R,7466900,7467152,254,494.2,489.8,3564,left
43,1,continuous,28,1,fixationCross,7467917.0,7470500.0,2583.0,28,R,7467228,7467286,60,489.2,489.0,3545,left
43,1,continuous,28,1,fixationCross,7467917.0,7470500.0,2583.0,28,R,7467460,7467484,26,641.7,566.4,3724,left
43,1,continuous,28,1,fixationCross,7467917.0,7470500.0,2583.0,28,R,7467534,7467558,26,637.0,580.3,3776,left
43,1,continuous,28,1,trial,7467917.0,7470500.0,2583.0,28,R,7468110,7468162,54,606.1,534.5,4058,left
43,1,continuous,28,1,trial,7467917.0,7470500.0,2583.0,28,R,7468214,7468240,28,607.4,527.7,4014,left
43,1,continuous,28,1,trial,7467917.0,7470500.0,2583.0,28,R,7468272,7468562,292,436.7,466.2,3784,left
43,1,continuous,28,1,trial,7467917.0,7470500.0,2583.0,28,R,7468582,7468820,240,417.2,388.8,3496,left
43,1,continuous,28,1,trial,7467917.0,7470500.0,2583.0,28,R,7468886,7469108,224,1437.6,525.8,3337,right
43,1,continuous,28,1,trial,7467917.0,7470500.0,2583.0,28,R,7469120,7469370,252,1390.6,505.4,3408,right
43,1,continuous,28,1,trial,7467917.0,7470500.0,2583.0,28,R,7469436,7469722,288,412.0,504.4,3642,left
43,1,continuous,28,1,trial,7467917.0,7470500.0,2583.0,28,R,7469748,7470052,306,440.7,395.7,3664,left
43,1,continuous,28,1,postResponse,7467917.0,7470500.0,2583.0,28,R,7470060,7470830,772,433.1,382.8,3551,left
43,1,continuous,29,100,fixationCross,7472800.0,7476067.0,3267.0,29,R,7470906,7471250,346,432.6,389.1,3633,left
43,1,continuous,29,100,fixationCross,7472800.0,7476067.0,3267.0,29,R,7471294,7471552,260,815.9,456.0,3744,NA
43,1,continuous,29,100,fixationCross,7472800.0,7476067.0,3267.0,29,R,7471590,7472180,592,541.4,452.2,3964,left
43,1,continuous,29,100,fixationCross,7472800.0,7476067.0,3267.0,29,R,7472196,7472484,290,481.0,448.4,4004,left
43,1,continuous,29,100,fixationCross,7472800.0,7476067.0,3267.0,29,R,7472528,7472688,162,897.4,497.3,3876,NA
43,1,continuous,29,100,trial,7472800.0,7476067.0,3267.0,29,R,7472698,7472854,158,908.9,508.9,3867,NA
43,1,continuous,29,100,trial,7472800.0,7476067.0,3267.0,29,R,7472866,7472948,84,947.6,531.1,3912,NA
43,1,continuous,29,100,trial,7472800.0,7476067.0,3267.0,29,R,7473000,7473190,192,504.2,508.8,3970,left
43,1,continuous,29,100,trial,7472800.0,7476067.0,3267.0,29,R,7473216,7473346,132,406.3,559.9,3710,left
43,1,continuous,29,100,trial,7472800.0,7476067.0,3267.0,29,R,7473358,7473626,270,427.5,580.1,3455,left
43,1,continuous,29,100,trial,7472800.0,7476067.0,3267.0,29,R,7473796,7474342,548,1378.7,474.7,3043,right
43,1,continuous,29,100,trial,7472800.0,7476067.0,3267.0,29,R,7474368,7474616,250,1514.1,529.4,3169,right
43,1,continuous,29,100,trial,7472800.0,7476067.0,3267.0,29,R,7474642,7474744,104,1352.6,497.7,3205,right
43,1,continuous,29,100,trial,7472800.0,7476067.0,3267.0,29,R,7474810,7474952,144,479.1,519.5,3262,left
43,1,continuous,29,100,trial,7472800.0,7476067.0,3267.0,29,R,7474976,7475428,454,411.6,581.8,3426,left
43,1,continuous,29,100,trial,7472800.0,7476067.0,3267.0,29,R,7475454,7475670,218,562.4,690.4,3403,left
43,1,continuous,29,100,trial,7472800.0,7476067.0,3267.0,29,R,7475722,7475854,134,1168.7,749.6,3484,likertHorizontal
43,1,continuous,29,100,postResponse,7472800.0,7476067.0,3267.0,29,R,7475936,7476400,466,1346.8,565.2,3721,right
43,1,continuous,30,1,fixationCross,7477051.0,7479284.0,2233.0,30,R,7476476,7476750,276,1337.0,567.7,3878,right
43,1,continuous,30,1,trial,7477051.0,7479284.0,2233.0,30,R,7476796,7477178,384,879.4,543.0,3972,NA
43,1,continuous,30,1,trial,7477051.0,7479284.0,2233.0,30,R,7477216,7477322,108,564.6,531.6,3970,left
43,1,continuous,30,1,trial,7477051.0,7479284.0,2233.0,30,R,7477350,7477536,188,426.1,580.4,3915,left
43,1,continuous,30,1,trial,7477051.0,7479284.0,2233.0,30,R,7477602,7477778,178,1455.3,523.1,3647,right
43,1,continuous,30,1,trial,7477051.0,7479284.0,2233.0,30,R,7477800,7478364,566,1476.4,571.6,3465,right
43,1,continuous,30,1,trial,7477051.0,7479284.0,2233.0,30,R,7478434,7478592,160,458.6,566.3,3336,left
43,1,continuous,30,1,trial,7477051.0,7479284.0,2233.0,30,R,7478608,7478980,374,401.7,573.8,3324,left
43,1,continuous,30,1,postResponse,7477051.0,7479284.0,2233.0,30,R,7479020,7479616,598,579.4,456.5,3450,left
43,1,continuous,31,100,fixationCross,7480417.0,7483267.0,2850.0,31,R,7479690,7479956,268,576.4,465.4,3715,left
43,1,continuous,31,100,fixationCross,7480417.0,7483267.0,2850.0,31,R,7480014,7480160,148,1116.4,525.8,3733,NA
43,1,continuous,31,100,trial,7480417.0,7483267.0,2850.0,31,R,7480190,7480500,312,952.3,543.0,3742,NA
43,1,continuous,31,100,trial,7480417.0,7483267.0,2850.0,31,R,7480558,7480730,174,511.3,541.3,3813,left
43,1,continuous,31,100,trial,7480417.0,7483267.0,2850.0,31,R,7480754,7480994,242,440.4,570.5,3720,left
43,1,continuous,31,100,trial,7480417.0,7483267.0,2850.0,31,R,7481150,7481288,140,1451.3,479.3,3319,right
43,1,continuous,31,100,trial,7480417.0,7483267.0,2850.0,31,R,7481304,7481500,198,1403.7,449.0,3286,right
43,1,continuous,31,100,trial,7480417.0,7483267.0,2850.0,31,R,7481526,7481714,190,1514.7,533.9,3198,right
43,1,continuous,31,100,trial,7480417.0,7483267.0,2850.0,31,R,7481730,7481912,184,1450.1,520.8,3167,right
43,1,continuous,31,100,trial,7480417.0,7483267.0,2850.0,31,R,7481926,7482446,522,1396.1,505.6,3172,right
43,1,continuous,31,100,trial,7480417.0,7483267.0,2850.0,31,R,7482458,7483014,558,1416.0,517.5,3576,right
43,1,continuous,31,100,postResponse,7480417.0,7483267.0,2850.0,31,R,7483030,7483602,574,1470.4,554.2,3660,right
43,1,continuous,32,3,fixationCross,7484901.0,7487334.0,2433.0,32,R,7483704,7484016,314,1462.5,560.9,3763,right
43,1,continuous,32,3,fixationCross,7484901.0,7487334.0,2433.0,32,R,7484060,7484188,130,1009.0,571.1,4028,NA
43,1,continuous,32,3,fixationCross,7484901.0,7487334.0,2433.0,32,R,7484360,7484754,396,591.1,508.8,4285,left
43,1,continuous,32,3,trial,7484901.0,7487334.0,2433.0,32,R,7484796,7485042,248,943.2,574.3,4234,NA
43,1,continuous,32,3,trial,7484901.0,7487334.0,2433.0,32,R,7485092,7485330,240,528.9,596.8,4015,left
43,1,continuous,32,3,trial,7484901.0,7487334.0,2433.0,32,R,7485370,7485524,156,322.3,424.6,3747,left
43,1,continuous,32,3,trial,7484901.0,7487334.0,2433.0,32,R,7485536,7485850,316,329.0,396.5,3582,left
43,1,continuous,32,3,trial,7484901.0,7487334.0,2433.0,32,R,7485874,7485956,84,327.7,494.2,3550,left
43,1,continuous,32,3,trial,7484901.0,7487334.0,2433.0,32,R,7486022,7486046,26,1370.8,460.9,3527,right
43,1,continuous,32,3,trial,7484901.0,7487334.0,2433.0,32,R,7486140,7486170,32,1340.5,475.5,3532,right
43,1,continuous,32,3,trial,7484901.0,7487334.0,2433.0,32,R,7486292,7486410,120,1623.8,588.0,3642,right
43,1,continuous,32,3,trial,7484901.0,7487334.0,2433.0,32,R,7486432,7486470,40,1615.5,585.4,3667,right
43,1,continuous,32,3,trial,7484901.0,7487334.0,2433.0,32,R,7486544,7486590,48,1590.0,591.8,3673,right
43,1,continuous,32,3,trial,7484901.0,7487334.0,2433.0,32,R,7486668,7487010,344,498.2,635.7,3689,left
43,1,continuous,32,3,trial,7484901.0,7487334.0,2433.0,32,R,7487042,7487178,138,329.0,522.4,3624,left
43,1,continuous,32,3,trial,7484901.0,7487334.0,2433.0,32,R,7487190,7487374,186,333.5,488.6,3590,left
43,1,continuous,32,3,trial,7484901.0,7487334.0,2433.0,32,R,7487398,7487580,184,336.0,386.7,3618,left
43,1,continuous,32,3,postResponse,7484901.0,7487334.0,2433.0,32,R,7487636,7487668,34,538.3,853.5,3701,NA
43,1,continuous,33,100,fixationCross,7488584.0,7490884.0,2300.0,33,R,7487768,7487952,186,531.1,846.3,3779,NA
43,1,continuous,33,100,fixationCross,7488584.0,7490884.0,2300.0,33,R,7488004,7488290,288,910.0,643.0,3934,NA
43,1,continuous,33,100,trial,7488584.0,7490884.0,2300.0,33,R,7488314,7488604,292,973.1,564.2,3970,NA
43,1,continuous,33,100,trial,7488584.0,7490884.0,2300.0,33,R,7488766,7488966,202,552.1,583.3,4076,left
43,1,continuous,33,100,trial,7488584.0,7490884.0,2300.0,33,R,7488994,7489286,294,488.6,473.5,3846,left
43,1,continuous,33,100,trial,7488584.0,7490884.0,2300.0,33,R,7489304,7489390,88,564.3,467.3,3555,left
43,1,continuous,33,100,trial,7488584.0,7490884.0,2300.0,33,R,7489448,7489744,298,1414.5,564.6,3366,right
43,1,continuous,33,100,trial,7488584.0,7490884.0,2300.0,33,R,7489772,7489928,158,1578.8,556.0,3227,right
43,1,continuous,33,100,trial,7488584.0,7490884.0,2300.0,33,R,7489944,7490190,248,1647.4,556.0,3138,right
43,1,continuous,33,100,postResponse,7488584.0,7490884.0,2300.0,33,R,7490228,7491216,990,1425.2,513.0,3200,right
43,1,continuous,34,1,fixationCross,7494067.0,7496884.0,2817.0,34,R,7491316,7491578,264,1406.5,532.9,3699,right
43,1,continuous,34,1,fixationCross,7494067.0,7496884.0,2817.0,34,R,7491716,7492118,404,757.5,551.9,4091,NA
43,1,continuous,34,1,fixationCross,7494067.0,7496884.0,2817.0,34,R,7492158,7492690,534,499.8,500.5,4123,left
43,1,continuous,34,1,fixationCross,7494067.0,7496884.0,2817.0,34,R,7492726,7493076,352,638.4,477.6,3996,left
43,1,continuous,34,1,fixationCross,7494067.0,7496884.0,2817.0,34,R,7493102,7493736,636,520.5,471.9,4097,left
43,1,continuous,34,1,fixationCross,7494067.0,7496884.0,2817.0,34,R,7493784,7494036,254,929.7,538.3,4024,NA
43,1,continuous,34,1,trial,7494067.0,7496884.0,2817.0,34,R,7494046,7494376,332,955.6,548.1,4015,NA
43,1,continuous,34,1,trial,7494067.0,7496884.0,2817.0,34,R,7494418,7494582,166,1297.1,524.2,3858,right
43,1,continuous,34,1,trial,7494067.0,7496884.0,2817.0,34,R,7494652,7494832,182,1348.4,478.7,3661,right
43,1,continuous,34,1,trial,7494067.0,7496884.0,2817.0,34,R,7494858,7494910,54,1357.2,471.4,3474,right
43,1,continuous,34,1,trial,7494067.0,7496884.0,2817.0,34,R,7494934,7495082,150,1364.4,469.3,3379,right
43,1,continuous,34,1,trial,7494067.0,7496884.0,2817.0,34,R,7495140,7495284,146,604.2,449.2,3309,left
43,1,continuous,34,1,trial,7494067.0,7496884.0,2817.0,34,R,7495298,7495424,128,568.5,431.5,3269,left
43,1,continuous,34,1,trial,7494067.0,7496884.0,2817.0,34,R,7495460,7495634,176,359.6,579.3,3310,left
43,1,continuous,34,1,trial,7494067.0,7496884.0,2817.0,34,R,7495646,7496158,514,410.8,582.8,3398,left
43,1,continuous,34,1,trial,7494067.0,7496884.0,2817.0,34,R,7496174,7496632,460,360.3,593.8,3608,left
43,1,continuous,34,1,postResponse,7494067.0,7496884.0,2817.0,34,R,7496644,7497218,576,409.1,601.4,3827,left
43,1,continuous,35,9,fixationCross,7498284.0,7500867.0,2583.0,35,R,7497292,7497790,500,404.9,595.3,3832,left
43,1,continuous,35,9,fixationCross,7498284.0,7500867.0,2583.0,35,R,7497814,7497950,138,282.9,572.5,4044,left
43,1,continuous,35,9,trial,7498284.0,7500867.0,2583.0,35,R,7498002,7498432,432,964.6,566.1,4060,NA
43,1,continuous,35,9,trial,7498284.0,7500867.0,2583.0,35,R,7498536,7498586,52,561.1,574.0,4206,left
43,1,continuous,35,9,trial,7498284.0,7500867.0,2583.0,35,R,7498620,7499002,384,336.7,584.4,3956,left
43,1,continuous,35,9,trial,7498284.0,7500867.0,2583.0,35,R,7499030,7499186,158,526.9,563.3,3817,left
43,1,continuous,35,9,trial,7498284.0,7500867.0,2583.0,35,R,7499250,7499538,290,1425.1,566.1,3709,right
43,1,continuous,35,9,trial,7498284.0,7500867.0,2583.0,35,R,7499562,7499892,332,1280.8,591.6,3732,right
43,1,continuous,35,9,trial,7498284.0,7500867.0,2583.0,35,R,7499946,7500176,232,625.9,509.4,3788,left
43,1,continuous,35,9,trial,7498284.0,7500867.0,2583.0,35,R,7500210,7500512,304,349.6,592.5,4013,left
43,1,continuous,35,9,trial,7498284.0,7500867.0,2583.0,35,R,7500536,7500674,140,459.8,616.6,4017,left
43,1,continuous,35,9,trial,7498284.0,7500867.0,2583.0,35,R,7500686,7501130,446,492.6,614.9,3930,left
43,1,continuous,36,100,fixationCross,7502001.0,7504068.0,2067.0,36,R,7501382,7501506,126,578.6,529.9,3883,left
43,1,continuous,36,100,fixationCross,7502001.0,7504068.0,2067.0,36,R,7501718,7501986,270,939.0,551.9,4024,NA
43,1,continuous,36,100,trial,7502001.0,7504068.0,2067.0,36,R,7502030,7502212,184,534.6,542.0,4072,left
43,1,continuous,36,100,trial,7502001.0,7504068.0,2067.0,36,R,7502272,7502922,652,1427.4,488.8,3360,right
43,1,continuous,36,100,trial,7502001.0,7504068.0,2067.0,36,R,7502980,7503178,200,621.6,525.9,3124,left
43,1,continuous,36,100,trial,7502001.0,7504068.0,2067.0,36,R,7503210,7503442,234,399.6,577.1,3181,left
43,1,continuous,36,100,trial,7502001.0,7504068.0,2067.0,36,R,7503504,7503726,224,1344.4,518.0,3293,right
43,1,continuous,36,100,trial,7502001.0,7504068.0,2067.0,36,R,7503744,7504262,520,1430.6,531.7,3457,right
43,1,continuous,37,1,fixationCross,7505517.0,7508051.0,2534.0,37,R,7504476,7504790,316,546.3,605.9,3763,left
43,1,continuous,37,1,fixationCross,7505517.0,7508051.0,2534.0,37,R,7504826,7505224,400,844.8,556.2,3770,NA
43,1,continuous,37,1,fixationCross,7505517.0,7508051.0,2534.0,37,R,7505248,7505434,188,933.7,534.6,3790,NA
43,1,continuous,37,1,trial,7505517.0,7508051.0,2534.0,37,R,7505444,7505652,210,951.8,545.9,3959,NA
43,1,continuous,37,1,trial,7505517.0,7508051.0,2534.0,37,R,7505696,7505842,148,557.3,570.2,4145,left
43,1,continuous,37,1,trial,7505517.0,7508051.0,2534.0,37,R,7505862,7506324,464,510.0,600.0,3954,left
43,1,continuous,37,1,trial,7505517.0,7508051.0,2534.0,37,R,7506386,7506646,262,1470.4,545.3,3757,right
43,1,continuous,37,1,trial,7505517.0,7508051.0,2534.0,37,R,7506670,7506962,294,1393.2,631.6,3611,right
43,1,continuous,37,1,trial,7505517.0,7508051.0,2534.0,37,R,7506990,7507216,228,1451.7,522.1,3565,right
43,1,continuous,37,1,trial,7505517.0,7508051.0,2534.0,37,R,7507278,7507468,192,557.5,578.8,3769,left
43,1,continuous,37,1,postResponse,7505517.0,7508051.0,2534.0,37,R,7507490,7508386,898,518.4,604.3,3922,left
43,1,continuous,38,1,fixationCross,7509100.0,7511751.0,2651.0,38,R,7508460,7508772,314,514.1,610.3,3961,left
43,1,continuous,38,1,fixationCross,7509100.0,7511751.0,2651.0,38,R,7508816,7509006,192,962.2,578.8,3935,NA
43,1,continuous,38,1,trial,7509100.0,7511751.0,2651.0,38,R,7509018,7509216,200,940.4,555.3,3927,NA
43,1,continuous,38,1,trial,7509100.0,7511751.0,2651.0,38,R,7509266,7509390,126,506.4,564.8,4023,left
43,1,continuous,38,1,trial,7509100.0,7511751.0,2651.0,38,R,7509414,7509684,272,423.9,463.7,3821,left
43,1,continuous,38,1,trial,7509100.0,7511751.0,2651.0,38,R,7509702,7509876,176,371.6,465.7,3474,left
43,1,continuous,38,1,trial,7509100.0,7511751.0,2651.0,38,R,7509948,7510090,144,1437.8,565.7,3263,right
43,1,continuous,38,1,trial,7509100.0,7511751.0,2651.0,38,R,7510104,7510412,310,1409.7,533.5,3222,right
43,1,continuous,38,1,trial,7509100.0,7511751.0,2651.0,38,R,7510438,7510458,22,1547.7,576.5,3339,right
43,1,continuous,38,1,trial,7509100.0,7511751.0,2651.0,38,R,7510490,7510604,116,1545.2,583.2,3408,right
43,1,continuous,38,1,trial,7509100.0,7511751.0,2651.0,38,R,7510670,7510886,218,463.4,448.0,3695,left
43,1,continuous,38,1,trial,7509100.0,7511751.0,2651.0,38,R,7510898,7511080,184,435.6,424.1,3659,left
43,1,continuous,38,1,postResponse,7509100.0,7511751.0,2651.0,38,R,7511092,7512084,994,444.3,405.1,3579,left
43,1,continuous,39,100,fixationCross,7513001.0,7515085.0,2084.0,39,R,7512158,7512608,452,445.6,425.8,3907,left
43,1,continuous,39,100,fixationCross,7513001.0,7515085.0,2084.0,39,R,7512650,7512764,116,863.9,513.8,3947,NA
43,1,continuous,39,100,fixationCross,7513001.0,7515085.0,2084.0,39,R,7512786,7512844,60,965.0,559.2,3987,NA
43,1,continuous,39,100,fixationCross,7513001.0,7515085.0,2084.0,39,R,7512892,7512968,78,958.2,564.0,4044,NA
43,1,continuous,39,100,trial,7513001.0,7515085.0,2084.0,39,R,7513012,7513192,182,953.0,575.6,4158,NA
43,1,continuous,39,100,trial,7513001.0,7515085.0,2084.0,39,R,7513236,7513504,270,512.9,595.4,4154,left
43,1,continuous,39,100,trial,7513001.0,7515085.0,2084.0,39,R,7513520,7513760,242,475.1,601.0,3806,left
43,1,continuous,39,100,trial,7513001.0,7515085.0,2084.0,39,R,7513770,7513960,192,497.0,596.7,3560,left
43,1,continuous,39,100,trial,7513001.0,7515085.0,2084.0,39,R,7514028,7514214,188,1536.0,457.3,3321,right
43,1,continuous,39,100,trial,7513001.0,7515085.0,2084.0,39,R,7514232,7514566,336,1500.3,408.8,3386,right
43,1,continuous,39,100,trial,7513001.0,7515085.0,2084.0,39,R,7515056,7515078,24,1422.1,676.0,3836,right
43,1,continuous,39,100,trial,7513001.0,7515085.0,2084.0,39,R,7515244,7515266,24,1420.3,674.1,3873,right
43,1,continuous,40,91,fixationCross,7516417.0,7518934.0,2517.0,40,R,7515526,7515530,6,1394.1,654.6,3760,right
43,1,continuous,40,91,fixationCross,7516417.0,7518934.0,2517.0,40,R,7515720,7516084,366,483.9,523.1,3895,left
43,1,continuous,40,91,fixationCross,7516417.0,7518934.0,2517.0,40,R,7516128,7516244,118,871.8,547.5,4033,NA
43,1,continuous,40,91,trial,7516417.0,7518934.0,2517.0,40,R,7516264,7516546,284,954.3,547.7,3899,NA
43,1,continuous,40,91,trial,7516417.0,7518934.0,2517.0,40,R,7516598,7516700,104,523.0,523.4,3950,left
43,1,continuous,40,91,trial,7516417.0,7518934.0,2517.0,40,R,7516722,7517002,282,441.0,458.4,3729,left
43,1,continuous,40,91,trial,7516417.0,7518934.0,2517.0,40,R,7517030,7517274,246,455.8,572.4,3569,left
43,1,continuous,40,91,trial,7516417.0,7518934.0,2517.0,40,R,7517332,7517596,266,1310.1,555.6,3479,right
43,1,continuous,40,91,trial,7516417.0,7518934.0,2517.0,40,R,7517622,7517886,266,1471.0,556.7,3418,right
43,1,continuous,40,91,trial,7516417.0,7518934.0,2517.0,40,R,7517896,7518022,128,1442.5,551.1,3360,right
43,1,continuous,40,91,trial,7516417.0,7518934.0,2517.0,40,R,7518048,7518298,252,1291.2,612.5,3393,right
43,1,continuous,40,91,trial,7516417.0,7518934.0,2517.0,40,R,7518308,7518570,264,1272.7,623.4,3458,right
43,1,continuous,40,91,postResponse,7516417.0,7518934.0,2517.0,40,R,7518594,7519268,676,1401.3,579.4,3421,right
43,1,continuous,41,1,fixationCross,7520001.0,7522401.0,2400.0,41,R,7519368,7519676,310,1392.0,581.8,3591,right
43,1,continuous,41,1,trial,7520001.0,7522401.0,2400.0,41,R,7519724,7520304,582,968.6,570.4,3939,NA
43,1,continuous,41,1,trial,7520001.0,7522401.0,2400.0,41,R,7520350,7520492,144,513.7,576.5,3936,left
43,1,continuous,41,1,trial,7520001.0,7522401.0,2400.0,41,R,7520518,7520826,310,381.2,537.9,3820,left
43,1,continuous,41,1,trial,7520001.0,7522401.0,2400.0,41,R,7520854,7521288,436,606.5,595.9,3670,left
43,1,continuous,41,1,trial,7520001.0,7522401.0,2400.0,41,R,7521346,7521742,398,1393.4,626.4,3660,right
43,1,continuous,41,1,trial,7520001.0,7522401.0,2400.0,41,R,7521762,7521896,136,1362.7,590.0,3642,right
43,1,continuous,41,1,trial,7520001.0,7522401.0,2400.0,41,R,7521920,7521986,68,1254.6,615.9,3623,right
43,1,continuous,41,1,postResponse,7520001.0,7522401.0,2400.0,41,R,7522042,7522734,694,507.4,616.7,3655,left
43,1,continuous,42,99,fixationCross,7523484.0,7526201.0,2717.0,42,R,7523016,7523146,132,489.5,585.7,3851,left
43,1,continuous,42,99,trial,7523484.0,7526201.0,2717.0,42,R,7523190,7523510,322,933.2,561.6,3872,NA
43,1,continuous,42,99,trial,7523484.0,7526201.0,2717.0,42,R,7523554,7523764,212,542.0,533.5,3767,left
43,1,continuous,42,99,trial,7523484.0,7526201.0,2717.0,42,R,7523788,7524200,414,437.1,591.6,3706,left
43,1,continuous,42,99,trial,7523484.0,7526201.0,2717.0,42,R,7524210,7524424,216,458.0,600.9,3659,left
43,1,continuous,42,99,trial,7523484.0,7526201.0,2717.0,42,R,7524668,7524786,120,1455.5,538.2,3528,right
43,1,continuous,42,99,trial,7523484.0,7526201.0,2717.0,42,R,7524806,7524996,192,1433.4,482.9,3566,right
43,1,continuous,42,99,trial,7523484.0,7526201.0,2717.0,42,R,7525030,7525076,48,1620.6,634.9,3613,right
43,1,continuous,42,99,trial,7523484.0,7526201.0,2717.0,42,R,7525210,7525324,116,1643.0,605.9,3479,right
43,1,continuous,42,99,trial,7523484.0,7526201.0,2717.0,42,R,7525360,7525396,38,1640.1,605.7,3455,right
43,1,continuous,42,99,postResponse,7523484.0,7526201.0,2717.0,42,R,7525428,7526536,1110,1643.3,611.5,3605,right
43,1,continuous,43,90,fixationCross,7527568.0,7530034.0,2466.0,43,R,7526610,7526694,86,1631.4,624.2,3893,right
43,1,continuous,43,90,fixationCross,7527568.0,7530034.0,2466.0,43,R,7526738,7526888,152,1629.7,624.1,3907,right
43,1,continuous,43,90,fixationCross,7527568.0,7530034.0,2466.0,43,R,7526970,7527054,86,1627.0,626.2,3965,right
43,1,continuous,43,90,fixationCross,7527568.0,7530034.0,2466.0,43,R,7527090,7527122,34,1624.5,634.2,3999,right
43,1,continuous,43,90,fixationCross,7527568.0,7530034.0,2466.0,43,R,7527154,7527232,80,1619.6,633.7,4032,right
43,1,continuous,43,90,fixationCross,7527568.0,7530034.0,2466.0,43,R,7527290,7527468,180,973.6,572.5,4157,NA
43,1,continuous,43,90,trial,7527568.0,7530034.0,2466.0,43,R,7527480,7527606,128,947.4,577.3,4200,NA
43,1,continuous,43,90,trial,7527568.0,7530034.0,2466.0,43,R,7527728,7527770,44,571.9,574.6,4323,left
43,1,continuous,43,90,trial,7527568.0,7530034.0,2466.0,43,R,7527814,7527860,48,570.8,583.6,4301,left
43,1,continuous,43,90,trial,7527568.0,7530034.0,2466.0,43,R,7527886,7528152,268,479.3,526.9,4016,left
43,1,continuous,43,90,trial,7527568.0,7530034.0,2466.0,43,R,7528168,7528260,94,457.3,491.3,3767,left
43,1,continuous,43,90,trial,7527568.0,7530034.0,2466.0,43,R,7528326,7528492,168,1513.0,534.1,3544,right
43,1,continuous,43,90,trial,7527568.0,7530034.0,2466.0,43,R,7528516,7528804,290,1489.2,596.4,3535,right
43,1,continuous,43,90,trial,7527568.0,7530034.0,2466.0,43,R,7528822,7529140,320,1456.1,560.8,3626,right
43,1,continuous,43,90,trial,7527568.0,7530034.0,2466.0,43,R,7529154,7529200,48,1487.8,582.4,3726,right
43,1,continuous,43,90,trial,7527568.0,7530034.0,2466.0,43,R,7529246,7529286,42,1489.9,585.1,3784,right
43,1,continuous,43,90,trial,7527568.0,7530034.0,2466.0,43,R,7529370,7529754,386,1479.2,581.3,3888,right
43,1,continuous,43,90,trial,7527568.0,7530034.0,2466.0,43,R,7529776,7529862,88,1483.8,598.9,3916,right
43,1,continuous,43,90,trial,7527568.0,7530034.0,2466.0,43,R,7529884,7529956,74,1484.6,602.4,3920,right
43,1,continuous,43,90,trial,7527568.0,7530034.0,2466.0,43,R,7529984,7530008,26,1485.3,603.2,3924,right
43,1,continuous,43,90,trial,7527568.0,7530034.0,2466.0,43,R,7530032,7530094,64,1412.6,712.2,3956,right
43,1,continuous,43,90,trial,7527568.0,7530034.0,2466.0,43,R,7530196,7530320,126,1413.7,708.5,3933,right
43,1,continuous,44,91,fixationCross,7531068.0,7534152.0,3084.0,44,R,7530454,7530460,8,1411.8,707.4,3930,right
43,1,continuous,44,91,fixationCross,7531068.0,7534152.0,3084.0,44,R,7530496,7530582,88,1334.6,615.9,3921,right
43,1,continuous,44,91,fixationCross,7531068.0,7534152.0,3084.0,44,R,7530630,7530672,44,1331.6,621.7,3961,right
43,1,continuous,44,91,fixationCross,7531068.0,7534152.0,3084.0,44,R,7530786,7530894,110,884.2,554.3,4102,NA
43,1,continuous,44,91,trial,7531068.0,7534152.0,3084.0,44,R,7530994,7531168,176,885.1,559.1,4136,NA
43,1,continuous,44,91,trial,7531068.0,7534152.0,3084.0,44,R,7531228,7531364,138,545.7,562.6,4162,left
43,1,continuous,44,91,trial,7531068.0,7534152.0,3084.0,44,R,7531386,7532334,950,486.4,574.3,3801,left
43,1,continuous,44,91,trial,7531068.0,7534152.0,3084.0,44,R,7532396,7532538,144,1380.5,516.8,3561,right
43,1,continuous,44,91,trial,7531068.0,7534152.0,3084.0,44,R,7532558,7532740,184,1449.6,483.4,3527,right
43,1,continuous,44,91,trial,7531068.0,7534152.0,3084.0,44,R,7532762,7533008,248,1369.6,461.8,3494,right
43,1,continuous,44,91,trial,7531068.0,7534152.0,3084.0,44,R,7533038,7533230,194,1310.7,599.1,3543,right
43,1,continuous,44,91,postResponse,7531068.0,7534152.0,3084.0,44,R,7533332,7534484,1154,1314.4,606.2,3760,right
43,1,continuous,45,93,fixationCross,7535068.0,7537885.0,2817.0,45,R,7534558,7534734,178,1299.0,614.4,3862,right
43,1,continuous,45,93,trial,7535068.0,7537885.0,2817.0,45,R,7534780,7535100,322,994.1,543.1,4013,NA
43,1,continuous,45,93,trial,7535068.0,7537885.0,2817.0,45,R,7535172,7535212,42,563.8,556.6,4151,left
43,1,continuous,45,93,trial,7535068.0,7537885.0,2817.0,45,R,7535310,7535562,254,410.2,586.1,4077,left
43,1,continuous,45,93,trial,7535068.0,7537885.0,2817.0,45,R,7535576,7535702,128,405.9,541.9,3840,left
43,1,continuous,45,93,trial,7535068.0,7537885.0,2817.0,45,R,7535764,7535912,150,1377.7,507.8,3580,right
43,1,continuous,45,93,trial,7535068.0,7537885.0,2817.0,45,R,7535932,7536164,234,1456.5,528.9,3494,right
43,1,continuous,45,93,trial,7535068.0,7537885.0,2817.0,45,R,7536194,7536414,222,1470.3,707.6,3585,right
43,1,continuous,45,93,trial,7535068.0,7537885.0,2817.0,45,R,7536444,7536678,236,1347.6,578.9,3640,right
43,1,continuous,45,93,trial,7535068.0,7537885.0,2817.0,45,R,7536716,7536930,216,1353.1,570.0,3624,right
43,1,continuous,45,93,trial,7535068.0,7537885.0,2817.0,45,R,7536952,7537088,138,1460.8,572.7,3575,right
43,1,continuous,45,93,trial,7535068.0,7537885.0,2817.0,45,R,7537110,7537148,40,1457.2,572.2,3597,right
43,1,continuous,45,93,trial,7535068.0,7537885.0,2817.0,45,R,7537172,7537454,284,1319.0,580.0,3718,right
43,1,continuous,45,93,trial,7535068.0,7537885.0,2817.0,45,R,7537490,7537532,44,1315.0,584.9,3842,right
43,1,continuous,45,93,trial,7535068.0,7537885.0,2817.0,45,R,7537574,7537804,232,1314.0,588.3,3850,right
43,1,continuous,45,93,trial,7535068.0,7537885.0,2817.0,45,R,7537838,7537890,54,1314.0,590.4,3857,right
43,1,continuous,45,93,trial,7535068.0,7537885.0,2817.0,45,R,7537998,7538156,160,1305.7,590.8,3902,right
43,1,continuous,46,1,fixationCross,7539784.0,7542601.0,2817.0,46,R,7538330,7538352,24,1303.8,587.1,3934,right
43,1,continuous,46,1,fixationCross,7539784.0,7542601.0,2817.0,46,R,7538460,7538616,158,1299.6,593.7,3974,right
43,1,continuous,46,1,fixationCross,7539784.0,7542601.0,2817.0,46,R,7538726,7538768,44,1300.7,596.7,4038,right
43,1,continuous,46,1,fixationCross,7539784.0,7542601.0,2817.0,46,R,7538812,7538844,34,1294.6,601.0,4070,right
43,1,continuous,46,1,fixationCross,7539784.0,7542601.0,2817.0,46,R,7538944,7539038,96,1292.4,600.1,4128,right
43,1,continuous,46,1,fixationCross,7539784.0,7542601.0,2817.0,46,R,7539060,7539188,130,1292.2,605.7,4169,right
43,1,continuous,46,1,fixationCross,7539784.0,7542601.0,2817.0,46,R,7539226,7539448,224,1294.6,608.0,4157,right
43,1,continuous,46,1,fixationCross,7539784.0,7542601.0,2817.0,46,R,7539492,7539660,170,911.3,587.1,4164,NA
43,1,continuous,46,1,fixationCross,7539784.0,7542601.0,2817.0,46,R,7539686,7539718,34,910.4,579.5,4124,NA
43,1,continuous,46,1,trial,7539784.0,7542601.0,2817.0,46,R,7539730,7539906,178,941.6,574.0,4080,NA
43,1,continuous,46,1,trial,7539784.0,7542601.0,2817.0,46,R,7539946,7540180,236,572.8,571.6,4051,left
43,1,continuous,46,1,trial,7539784.0,7542601.0,2817.0,46,R,7540192,7540672,482,604.0,546.6,3735,left
43,1,continuous,46,1,trial,7539784.0,7542601.0,2817.0,46,R,7540726,7541076,352,1302.8,556.2,3628,right
43,1,continuous,46,1,trial,7539784.0,7542601.0,2817.0,46,R,7541106,7541612,508,1516.5,564.5,3588,right
43,1,continuous,46,1,trial,7539784.0,7542601.0,2817.0,46,R,7541672,7541794,124,724.5,559.3,3639,left
43,1,continuous,46,1,trial,7539784.0,7542601.0,2817.0,46,R,7541818,7541942,126,554.0,583.7,3639,left
43,1,continuous,46,1,trial,7539784.0,7542601.0,2817.0,46,R,7541972,7542490,520,379.2,654.8,3803,left
43,1,continuous,46,1,postResponse,7539784.0,7542601.0,2817.0,46,R,7542518,7542934,418,583.2,596.2,3817,left
43,1,continuous,47,2,fixationCross,7543668.0,7546069.0,2401.0,47,R,7543144,7543234,92,1066.1,582.8,3864,NA
43,1,continuous,47,2,fixationCross,7543668.0,7546069.0,2401.0,47,R,7543282,7543316,36,1060.1,585.4,3868,NA
43,1,continuous,47,2,trial,7543668.0,7546069.0,2401.0,47,R,7543362,7543796,436,966.8,565.6,3947,NA
43,1,continuous,47,2,trial,7543668.0,7546069.0,2401.0,47,R,7543848,7544008,162,489.0,548.4,4025,left
43,1,continuous,47,2,trial,7543668.0,7546069.0,2401.0,47,R,7544034,7544302,270,427.2,598.2,3813,left
43,1,continuous,47,2,trial,7543668.0,7546069.0,2401.0,47,R,7544368,7544524,158,1444.8,519.9,3505,right
43,1,continuous,47,2,trial,7543668.0,7546069.0,2401.0,47,R,7544546,7544998,454,1497.9,454.8,3414,right
43,1,continuous,47,2,trial,7543668.0,7546069.0,2401.0,47,R,7545070,7545438,370,467.7,607.8,3641,left
43,1,continuous,47,2,postResponse,7543668.0,7546069.0,2401.0,47,R,7545454,7546404,952,410.8,576.1,3567,left
43,1,continuous,48,87,fixationCross,7547385.0,7550368.0,2983.0,48,R,7546478,7546744,268,407.7,579.8,3680,left
43,1,continuous,48,87,fixationCross,7547385.0,7550368.0,2983.0,48,R,7546764,7547072,310,491.1,586.7,3825,left
43,1,continuous,48,87,trial,7547385.0,7550368.0,2983.0,48,R,7547120,7547518,400,964.7,560.9,3843,NA
43,1,continuous,48,87,trial,7547385.0,7550368.0,2983.0,48,R,7547564,7547814,252,522.1,564.9,3891,left
43,1,continuous,48,87,trial,7547385.0,7550368.0,2983.0,48,R,7547832,7548138,308,606.0,542.9,3492,left
43,1,continuous,48,87,trial,7547385.0,7550368.0,2983.0,48,R,7548148,7548330,184,637.2,549.0,3297,left
43,1,continuous,48,87,trial,7547385.0,7550368.0,2983.0,48,R,7548366,7548396,32,881.7,551.0,3250,NA
43,1,continuous,48,87,trial,7547385.0,7550368.0,2983.0,48,R,7548448,7548832,386,1462.6,567.1,3127,right
43,1,continuous,48,87,trial,7547385.0,7550368.0,2983.0,48,R,7548842,7549892,1052,1472.3,581.6,3069,right
43,1,continuous,48,87,trial,7547385.0,7550368.0,2983.0,48,R,7549988,7550020,34,1462.5,589.4,3222,right
43,1,continuous,48,87,trial,7547385.0,7550368.0,2983.0,48,R,7550116,7550214,100,1464.6,591.9,3285,right
43,1,continuous,48,87,trial,7547385.0,7550368.0,2983.0,48,R,7550330,7550380,52,1458.2,595.5,3312,right
43,1,continuous,48,87,trial,7547385.0,7550368.0,2983.0,48,R,7550550,7550598,50,1461.6,594.2,3285,right
43,1,continuous,48,87,postResponse,7547385.0,7550368.0,2983.0,48,R,7550630,7550700,72,1456.0,595.9,3309,right
43,1,continuous,49,93,fixationCross,7551718.0,7555184.0,3466.0,49,R,7550952,7550982,32,1445.4,609.9,3573,right
43,1,continuous,49,93,fixationCross,7551718.0,7555184.0,3466.0,49,R,7551158,7551178,22,1273.2,596.8,3752,right
43,1,continuous,49,93,fixationCross,7551718.0,7555184.0,3466.0,49,R,7551414,7551560,148,996.7,546.0,3836,NA
43,1,continuous,49,93,trial,7551718.0,7555184.0,3466.0,49,R,7551574,7551848,276,953.2,560.9,3884,NA
43,1,continuous,49,93,trial,7551718.0,7555184.0,3466.0,49,R,7551890,7552128,240,577.0,556.4,3809,left
43,1,continuous,49,93,trial,7551718.0,7555184.0,3466.0,49,R,7552166,7552372,208,411.9,436.8,3512,left
43,1,continuous,49,93,trial,7551718.0,7555184.0,3466.0,49,R,7552404,7552562,160,394.7,678.4,3438,left
43,1,continuous,49,93,trial,7551718.0,7555184.0,3466.0,49,R,7552574,7552752,180,433.5,711.5,3445,left
43,1,continuous,49,93,trial,7551718.0,7555184.0,3466.0,49,R,7552806,7552924,120,1176.4,591.0,3469,NA
43,1,continuous,49,93,trial,7551718.0,7555184.0,3466.0,49,R,7552958,7553082,126,1330.2,562.1,3488,right
43,1,continuous,49,93,trial,7551718.0,7555184.0,3466.0,49,R,7553102,7553328,228,1421.6,572.7,3608,right
43,1,continuous,49,93,trial,7551718.0,7555184.0,3466.0,49,R,7553346,7553570,226,1495.8,576.0,3708,right
43,1,continuous,49,93,trial,7551718.0,7555184.0,3466.0,49,R,7553590,7553806,218,1413.9,561.3,3636,right
43,1,continuous,49,93,trial,7551718.0,7555184.0,3466.0,49,R,7553826,7554088,264,1424.5,617.9,3567,right
43,1,continuous,49,93,trial,7551718.0,7555184.0,3466.0,49,R,7554470,7554748,280,1480.5,647.5,3674,right
43,1,continuous,49,93,trial,7551718.0,7555184.0,3466.0,49,R,7554790,7554870,82,1462.2,644.7,3763,right
43,1,continuous,49,93,trial,7551718.0,7555184.0,3466.0,49,R,7554920,7554956,38,1478.0,656.4,3831,right
43,1,continuous,49,93,trial,7551718.0,7555184.0,3466.0,49,R,7554998,7555148,152,1480.4,659.2,3900,right
43,1,continuous,49,93,trial,7551718.0,7555184.0,3466.0,49,R,7555186,7555224,40,1486.2,665.3,3959,right
43,1,continuous,49,93,trial,7551718.0,7555184.0,3466.0,49,R,7555296,7555330,36,1485.1,667.7,3994,right
43,1,continuous,49,93,trial,7551718.0,7555184.0,3466.0,49,R,7555382,7555418,38,1486.9,671.5,4009,right
43,1,continuous,50,91,fixationCross,7556518.0,7559584.0,3066.0,50,R,7555620,7555666,48,1483.9,674.7,4043,right
43,1,continuous,50,91,fixationCross,7556518.0,7559584.0,3066.0,50,R,7555776,7556192,418,1153.9,706.1,4169,NA
43,1,continuous,50,91,fixationCross,7556518.0,7559584.0,3066.0,50,R,7556232,7556256,26,888.1,597.4,4260,NA
43,1,continuous,50,91,fixationCross,7556518.0,7559584.0,3066.0,50,R,7556278,7556300,24,884.9,592.4,4252,NA
43,1,continuous,50,91,fixationCross,7556518.0,7559584.0,3066.0,50,R,7556344,7556464,122,886.1,597.2,4289,NA
43,1,continuous,50,91,trial,7556518.0,7559584.0,3066.0,50,R,7556480,7556726,248,964.5,589.7,4266,NA
43,1,continuous,50,91,trial,7556518.0,7559584.0,3066.0,50,R,7556784,7556812,30,530.9,575.8,4316,left
43,1,continuous,50,91,trial,7556518.0,7559584.0,3066.0,50,R,7556834,7557122,290,521.3,572.6,3996,left
43,1,continuous,50,91,trial,7556518.0,7559584.0,3066.0,50,R,7557154,7557448,296,397.0,520.7,3537,left
43,1,continuous,50,91,trial,7556518.0,7559584.0,3066.0,50,R,7557470,7557828,360,478.0,496.3,3336,left
43,1,continuous,50,91,trial,7556518.0,7559584.0,3066.0,50,R,7557846,7557974,130,456.5,447.7,3178,left
43,1,continuous,50,91,trial,7556518.0,7559584.0,3066.0,50,R,7558042,7558280,240,1470.4,545.4,2999,right
43,1,continuous,50,91,trial,7556518.0,7559584.0,3066.0,50,R,7558302,7558608,308,1377.6,518.5,3071,right
43,1,continuous,50,91,trial,7556518.0,7559584.0,3066.0,50,R,7558634,7559112,480,1454.9,496.0,3465,right
43,1,continuous,50,91,postResponse,7556518.0,7559584.0,3066.0,50,R,7559136,7559918,784,1348.0,560.3,3839,right
43,2,binary,1,2,fixationCross,7646169.0,7649219.0,3050.0,51,R,7645424,7645654,232,1162.3,596.5,3947,NA
43,2,binary,1,2,fixationCross,7646169.0,7649219.0,3050.0,51,R,7645682,7645862,182,1351.4,598.5,3944,right
43,2,binary,1,2,trial,7646169.0,7649219.0,3050.0,51,R,7645902,7646388,488,969.9,546.7,4058,NA
43,2,binary,1,2,trial,7646169.0,7649219.0,3050.0,51,R,7646440,7646690,252,536.8,546.2,3938,left
43,2,binary,1,2,trial,7646169.0,7649219.0,3050.0,51,R,7646740,7646852,114,733.5,873.2,3778,NA
43,2,binary,1,2,trial,7646169.0,7649219.0,3050.0,51,R,7646888,7647382,496,464.8,1010.7,3916,NA
43,2,binary,1,2,trial,7646169.0,7649219.0,3050.0,51,R,7647404,7647698,296,467.0,938.3,4162,NA
43,2,binary,1,2,trial,7646169.0,7649219.0,3050.0,51,R,7647748,7647958,212,479.2,660.2,4079,left
43,2,binary,1,2,trial,7646169.0,7649219.0,3050.0,51,R,7647996,7648302,308,494.0,520.1,3885,left
43,2,binary,1,2,trial,7646169.0,7649219.0,3050.0,51,R,7648324,7648376,54,578.9,490.8,3753,left
43,2,binary,1,2,trial,7646169.0,7649219.0,3050.0,51,R,7648440,7648600,162,1528.9,558.9,3602,right
43,2,binary,1,2,trial,7646169.0,7649219.0,3050.0,51,R,7648618,7649000,384,1425.5,564.3,3671,right
43,2,binary,1,2,postResponse,7646169.0,7649219.0,3050.0,51,R,7649024,7649554,532,1459.8,631.7,4006,right
43,2,binary,2,1,fixationCross,7650536.0,7653036.0,2500.0,52,R,7649630,7649688,60,1453.8,633.8,4075,right
43,2,binary,2,1,fixationCross,7650536.0,7653036.0,2500.0,52,R,7649730,7650134,406,1093.5,575.5,4189,NA
43,2,binary,2,1,trial,7650536.0,7653036.0,2500.0,52,R,7650256,7650672,418,959.0,538.0,4354,NA
43,2,binary,2,1,trial,7650536.0,7653036.0,2500.0,52,R,7650714,7650862,150,545.2,603.0,4417,left
43,2,binary,2,1,trial,7650536.0,7653036.0,2500.0,52,R,7650890,7651152,264,404.6,638.7,3923,left
43,2,binary,2,1,trial,7650536.0,7653036.0,2500.0,52,R,7651170,7651310,142,404.2,554.6,3605,left
43,2,binary,2,1,trial,7650536.0,7653036.0,2500.0,52,R,7651332,7651530,200,385.9,624.2,3461,left
43,2,binary,2,1,trial,7650536.0,7653036.0,2500.0,52,R,7651554,7651872,320,379.1,507.7,3329,left
43,2,binary,2,1,trial,7650536.0,7653036.0,2500.0,52,R,7651882,7652566,686,395.5,485.1,3237,left
43,2,binary,2,1,trial,7650536.0,7653036.0,2500.0,52,R,7652620,7652786,168,1138.6,492.3,3519,NA
43,2,binary,2,1,trial,7650536.0,7653036.0,2500.0,52,R,7652828,7652986,160,1510.6,563.9,3659,right
43,2,binary,2,1,postResponse,7650536.0,7653036.0,2500.0,52,R,7653142,7653380,240,1462.9,578.9,3827,right
43,2,binary,3,2,fixationCross,7654119.0,7656536.0,2417.0,53,R,7653480,7653532,54,1455.8,583.0,3945,right
43,2,binary,3,2,fixationCross,7654119.0,7656536.0,2417.0,53,R,7653574,7653806,234,1188.4,555.3,4020,right
43,2,binary,3,2,fixationCross,7654119.0,7656536.0,2417.0,53,R,7653838,7654004,168,973.8,555.7,4143,NA
43,2,binary,3,2,trial,7654119.0,7656536.0,2417.0,53,R,7654014,7654280,268,954.6,556.2,4228,NA
43,2,binary,3,2,trial,7654119.0,7656536.0,2417.0,53,R,7654328,7654772,446,495.0,570.4,3900,left
43,2,binary,3,2,trial,7654119.0,7656536.0,2417.0,53,R,7654836,7654968,134,1398.0,434.7,3169,right
43,2,binary,3,2,trial,7654119.0,7656536.0,2417.0,53,R,7654990,7655150,162,1289.8,385.9,3042,right
43,2,binary,3,2,trial,7654119.0,7656536.0,2417.0,53,R,7655188,7655416,230,1528.3,514.6,3070,right
43,2,binary,3,2,trial,7654119.0,7656536.0,2417.0,53,R,7655428,7655718,292,1526.7,489.4,3322,right
43,2,binary,3,2,trial,7654119.0,7656536.0,2417.0,53,R,7655736,7656170,436,1419.7,496.4,3543,right
43,2,binary,3,2,trial,7654119.0,7656536.0,2417.0,53,R,7656194,7656370,178,1341.2,569.3,3604,right
43,2,binary,3,2,trial,7654119.0,7656536.0,2417.0,53,R,7656396,7656558,164,1269.9,465.1,3713,right
43,2,binary,3,2,postResponse,7654119.0,7656536.0,2417.0,53,R,7656582,7656870,290,1268.2,392.0,3699,right
43,2,binary,4,2,fixationCross,7658486.0,7661253.0,2767.0,54,R,7656944,7656968,26,1267.0,390.1,3709,right
43,2,binary,4,2,fixationCross,7658486.0,7661253.0,2767.0,54,R,7657030,7657206,178,823.7,532.0,3926,NA
43,2,binary,4,2,fixationCross,7658486.0,7661253.0,2767.0,54,R,7657246,7658008,764,514.3,554.9,3958,left
43,2,binary,4,2,fixationCross,7658486.0,7661253.0,2767.0,54,R,7658048,7658168,122,839.1,533.8,3884,NA
43,2,binary,4,2,trial,7658486.0,7661253.0,2767.0,54,R,7658190,7658686,498,963.9,533.9,3859,NA
43,2,binary,4,2,trial,7658486.0,7661253.0,2767.0,54,R,7658732,7659044,314,511.7,533.3,3805,left
43,2,binary,4,2,trial,7658486.0,7661253.0,2767.0,54,R,7659060,7659724,666,459.6,533.6,3369,left
43,2,binary,4,2,trial,7658486.0,7661253.0,2767.0,54,R,7659788,7660044,258,1502.7,508.1,3117,right
43,2,binary,4,2,postResponse,7658486.0,7661253.0,2767.0,54,R,7660060,7661602,1544,1424.2,562.9,3500,right
43,2,binary,5,1,fixationCross,7662920.0,7666003.0,3083.0,55,R,7661676,7661694,20,1409.2,567.9,3666,right
43,2,binary,5,1,fixationCross,7662920.0,7666003.0,3083.0,55,R,7661740,7661958,220,1056.6,553.5,3877,NA
43,2,binary,5,1,fixationCross,7662920.0,7666003.0,3083.0,55,R,7661998,7662182,186,791.1,549.1,4138,NA
43,2,binary,5,1,fixationCross,7662920.0,7666003.0,3083.0,55,R,7662224,7662742,520,487.5,561.4,4251,left
43,2,binary,5,1,trial,7662920.0,7666003.0,3083.0,55,R,7662784,7662938,156,885.8,557.1,4187,NA
43,2,binary,5,1,trial,7662920.0,7666003.0,3083.0,55,R,7662956,7663102,148,959.1,558.4,4104,NA
43,2,binary,5,1,trial,7662920.0,7666003.0,3083.0,55,R,7663144,7663418,276,594.9,554.6,4015,left
43,2,binary,5,1,trial,7662920.0,7666003.0,3083.0,55,R,7663454,7663736,284,368.6,624.7,3579,left
43,2,binary,5,1,trial,7662920.0,7666003.0,3083.0,55,R,7663774,7664200,428,594.2,523.2,3238,left
43,2,binary,5,1,trial,7662920.0,7666003.0,3083.0,55,R,7664256,7664398,144,1368.1,498.6,3125,right
43,2,binary,5,1,trial,7662920.0,7666003.0,3083.0,55,R,7664412,7664922,512,1379.8,465.8,3265,right
43,2,binary,5,1,trial,7662920.0,7666003.0,3083.0,55,R,7664980,7665224,246,610.7,529.8,3485,left
43,2,binary,5,1,postResponse,7662920.0,7666003.0,3083.0,55,R,7665234,7666336,1104,582.6,531.0,3600,left
43,2,binary,6,2,fixationCross,7667353.0,7670670.0,3317.0,56,R,7666410,7667030,622,586.4,538.7,3708,left
43,2,binary,6,2,fixationCross,7667353.0,7670670.0,3317.0,56,R,7667072,7667264,194,946.6,546.6,3943,NA
43,2,binary,6,2,trial,7667353.0,7670670.0,3317.0,56,R,7667276,7667660,386,969.9,551.8,4060,NA
43,2,binary,6,2,trial,7667353.0,7670670.0,3317.0,56,R,7667700,7667850,152,1364.6,496.7,3874,right
43,2,binary,6,2,trial,7667353.0,7670670.0,3317.0,56,R,7667866,7668086,222,1376.7,458.5,3779,right
43,2,binary,6,2,trial,7667353.0,7670670.0,3317.0,56,R,7668110,7668846,738,1461.1,534.9,3749,right
43,2,binary,6,2,trial,7667353.0,7670670.0,3317.0,56,R,7668866,7669102,238,1531.5,571.3,3873,right
43,2,binary,6,2,trial,7667353.0,7670670.0,3317.0,56,R,7669112,7669378,268,1491.2,570.8,3925,right
43,2,binary,6,2,trial,7667353.0,7670670.0,3317.0,56,R,7669402,7669628,228,1383.2,517.4,3970,right
43,2,binary,6,2,trial,7667353.0,7670670.0,3317.0,56,R,7669688,7669940,254,542.8,622.8,4217,left
43,2,binary,6,2,trial,7667353.0,7670670.0,3317.0,56,R,7669956,7670126,172,491.5,630.0,4243,left
43,2,binary,6,2,trial,7667353.0,7670670.0,3317.0,56,R,7670162,7670240,80,468.4,457.0,4136,left
43,2,binary,6,2,trial,7667353.0,7670670.0,3317.0,56,R,7670384,7670544,162,1528.8,543.6,3977,right
43,2,binary,6,2,postResponse,7667353.0,7670670.0,3317.0,56,R,7670564,7671004,442,1520.0,599.3,4089,right
43,2,binary,7,2,fixationCross,7672269.0,7674520.0,2251.0,57,R,7671078,7671356,280,1524.7,591.4,4037,right
43,2,binary,7,2,fixationCross,7672269.0,7674520.0,2251.0,57,R,7671382,7671958,578,1361.8,524.5,4137,right
43,2,binary,7,2,trial,7672269.0,7674520.0,2251.0,57,R,7672004,7672458,456,955.7,570.2,4345,NA
43,2,binary,7,2,trial,7672269.0,7674520.0,2251.0,57,R,7672504,7673096,594,541.4,568.8,4077,left
43,2,binary,7,2,trial,7672269.0,7674520.0,2251.0,57,R,7673156,7673300,146,1409.7,539.1,3895,right
43,2,binary,7,2,trial,7672269.0,7674520.0,2251.0,57,R,7673316,7673470,156,1466.4,548.7,3875,right
43,2,binary,7,2,postResponse,7672269.0,7674520.0,2251.0,57,R,7673482,7674854,1374,1430.7,512.0,3598,right
43,2,binary,8,2,fixationCross,7675836.0,7678653.0,2817.0,58,R,7674954,7675504,552,1422.5,515.3,3932,right
43,2,binary,8,2,fixationCross,7675836.0,7678653.0,2817.0,58,R,7675554,7675664,112,997.4,544.1,4144,NA
43,2,binary,8,2,trial,7675836.0,7678653.0,2817.0,58,R,7675674,7675986,314,970.5,554.1,4143,NA
43,2,binary,8,2,trial,7675836.0,7678653.0,2817.0,58,R,7676032,7676246,216,552.9,573.5,4039,left
43,2,binary,8,2,trial,7675836.0,7678653.0,2817.0,58,R,7676264,7676484,222,476.9,568.5,3758,left
43,2,binary,8,2,trial,7675836.0,7678653.0,2817.0,58,R,7676508,7676692,186,412.1,649.9,3578,left
43,2,binary,8,2,trial,7675836.0,7678653.0,2817.0,58,R,7676704,7677070,368,443.7,665.0,3528,left
43,2,binary,8,2,trial,7675836.0,7678653.0,2817.0,58,R,7677086,7677336,252,428.7,704.7,3665,left
43,2,binary,8,2,trial,7675836.0,7678653.0,2817.0,58,R,7677444,7677648,206,1509.4,524.3,3778,right
43,2,binary,8,2,trial,7675836.0,7678653.0,2817.0,58,R,7677670,7677848,180,1401.1,547.3,3852,right
43,2,binary,8,2,trial,7675836.0,7678653.0,2817.0,58,R,7677864,7678094,232,1460.4,573.0,3738,right
43,2,binary,8,2,trial,7675836.0,7678653.0,2817.0,58,R,7678124,7678360,238,1330.6,445.3,3575,right
43,2,binary,8,2,postResponse,7675836.0,7678653.0,2817.0,58,R,7678388,7678988,602,1519.4,426.0,3487,right
43,2,binary,9,2,fixationCross,7679836.0,7682770.0,2934.0,59,R,7679104,7679246,144,1329.3,575.0,3671,right
43,2,binary,9,2,fixationCross,7679836.0,7682770.0,2934.0,59,R,7679338,7679476,140,478.2,588.9,3934,left
43,2,binary,9,2,trial,7679836.0,7682770.0,2934.0,59,R,7679618,7680062,446,980.5,549.1,3981,NA
43,2,binary,9,2,trial,7679836.0,7682770.0,2934.0,59,R,7680114,7680968,856,537.6,579.8,3544,left
43,2,binary,9,2,trial,7679836.0,7682770.0,2934.0,59,R,7681020,7681040,22,901.7,540.4,3461,NA
43,2,binary,9,2,trial,7679836.0,7682770.0,2934.0,59,R,7681090,7681286,198,1361.0,508.0,3427,right
43,2,binary,9,2,trial,7679836.0,7682770.0,2934.0,59,R,7681304,7681508,206,1422.0,535.7,3455,right
43,2,binary,9,2,trial,7679836.0,7682770.0,2934.0,59,R,7681520,7681848,330,1389.1,559.8,3490,right
43,2,binary,9,2,postResponse,7679836.0,7682770.0,2934.0,59,R,7681858,7683120,1264,1417.7,546.2,3416,right
43,2,binary,10,2,fixationCross,7684320.0,7687303.0,2983.0,60,R,7683220,7683428,210,1419.2,532.7,3504,right
43,2,binary,10,2,fixationCross,7684320.0,7687303.0,2983.0,60,R,7683452,7683988,538,1306.7,518.2,3708,right
43,2,binary,10,2,trial,7684320.0,7687303.0,2983.0,60,R,7684032,7684534,504,967.1,548.8,3791,NA
43,2,binary,10,2,trial,7684320.0,7687303.0,2983.0,60,R,7684578,7684746,170,540.5,589.6,3656,left
43,2,binary,10,2,trial,7684320.0,7687303.0,2983.0,60,R,7684760,7684898,140,498.1,598.0,3514,left
43,2,binary,10,2,trial,7684320.0,7687303.0,2983.0,60,R,7685052,7685412,362,485.2,573.5,3387,left
43,2,binary,10,2,trial,7684320.0,7687303.0,2983.0,60,R,7685476,7685630,156,1458.7,478.9,3357,right
43,2,binary,10,2,trial,7684320.0,7687303.0,2983.0,60,R,7685650,7685874,226,1483.3,405.7,3285,right
43,2,binary,10,2,trial,7684320.0,7687303.0,2983.0,60,R,7685904,7686154,252,1624.2,549.4,3172,right
43,2,binary,10,2,trial,7684320.0,7687303.0,2983.0,60,R,7686176,7686372,198,1659.0,491.0,3100,right
43,2,binary,10,2,trial,7684320.0,7687303.0,2983.0,60,R,7686406,7686628,224,1382.2,445.1,3102,right
43,2,binary,10,2,trial,7684320.0,7687303.0,2983.0,60,R,7686666,7687004,340,1651.2,487.3,3123,right
43,2,binary,10,2,trial,7684320.0,7687303.0,2983.0,60,R,7687016,7687338,324,1687.7,504.7,3267,right
43,2,binary,10,2,postResponse,7684320.0,7687303.0,2983.0,60,R,7687368,7687636,270,1443.9,437.5,3362,right
43,2,binary,11,1,fixationCross,7688437.0,7691137.0,2700.0,61,R,7687754,7687972,220,944.0,524.2,3529,NA
43,2,binary,11,1,fixationCross,7688437.0,7691137.0,2700.0,61,R,7688014,7688228,216,588.0,554.8,3716,left
43,2,binary,11,1,trial,7688437.0,7691137.0,2700.0,61,R,7688270,7688634,366,979.8,533.4,3797,NA
43,2,binary,11,1,trial,7688437.0,7691137.0,2700.0,61,R,7688680,7688856,178,513.1,574.6,3788,left
43,2,binary,11,1,trial,7688437.0,7691137.0,2700.0,61,R,7688878,7689084,208,474.0,600.3,3702,left
43,2,binary,11,1,trial,7688437.0,7691137.0,2700.0,61,R,7689096,7690184,1090,472.8,619.8,3523,left
43,2,binary,11,1,trial,7688437.0,7691137.0,2700.0,61,R,7690250,7690526,278,1448.1,503.8,3611,right
43,2,binary,11,1,trial,7688437.0,7691137.0,2700.0,61,R,7690540,7690816,278,1450.0,454.4,3570,right
43,2,binary,11,1,postResponse,7688437.0,7691137.0,2700.0,61,R,7690878,7691468,592,534.5,537.4,3517,left
43,2,binary,12,1,fixationCross,7692303.0,7695303.0,3000.0,62,R,7691542,7691968,428,540.2,536.8,3483,left
43,2,binary,12,1,trial,7692303.0,7695303.0,3000.0,62,R,7692012,7692528,518,972.3,534.8,3596,NA
43,2,binary,12,1,trial,7692303.0,7695303.0,3000.0,62,R,7692572,7692886,316,536.6,591.5,3671,left
43,2,binary,12,1,trial,7692303.0,7695303.0,3000.0,62,R,7692920,7693234,316,375.7,549.9,3404,left
43,2,binary,12,1,trial,7692303.0,7695303.0,3000.0,62,R,7693296,7693468,174,1343.4,512.8,3295,right
43,2,binary,12,1,trial,7692303.0,7695303.0,3000.0,62,R,7693488,7693646,160,1404.8,489.4,3398,right
43,2,binary,12,1,trial,7692303.0,7695303.0,3000.0,62,R,7693662,7694288,628,1432.4,474.5,3665,right
43,2,binary,12,1,trial,7692303.0,7695303.0,3000.0,62,R,7694460,7694718,260,419.6,558.2,3773,left
43,2,binary,12,1,trial,7692303.0,7695303.0,3000.0,62,R,7694740,7694932,194,505.2,570.6,3698,left
43,2,binary,12,1,trial,7692303.0,7695303.0,3000.0,62,R,7694952,7695168,218,450.8,593.0,3484,left
43,2,binary,12,1,postResponse,7692303.0,7695303.0,3000.0,62,R,7695194,7695636,444,603.1,566.3,3425,left
43,2,binary,13,2,fixationCross,7696370.0,7698787.0,2417.0,63,R,7695736,7696050,316,661.3,539.5,3551,left
43,2,binary,13,2,fixationCross,7696370.0,7698787.0,2417.0,63,R,7696086,7696204,120,944.1,536.5,3743,NA
43,2,binary,13,2,trial,7696370.0,7698787.0,2417.0,63,R,7696216,7696622,408,980.7,542.4,3858,NA
43,2,binary,13,2,trial,7696370.0,7698787.0,2417.0,63,R,7696676,7696888,214,505.0,557.2,3808,left
43,2,binary,13,2,trial,7696370.0,7698787.0,2417.0,63,R,7696908,7697076,170,507.5,499.5,3633,left
43,2,binary,13,2,trial,7696370.0,7698787.0,2417.0,63,R,7697142,7697290,150,1444.5,487.3,3413,right
43,2,binary,13,2,trial,7696370.0,7698787.0,2417.0,63,R,7697304,7698038,736,1356.7,485.4,3556,right
43,2,binary,13,2,trial,7696370.0,7698787.0,2417.0,63,R,7698066,7698384,320,1506.6,503.6,3669,right
43,2,binary,13,2,postResponse,7696370.0,7698787.0,2417.0,63,R,7698408,7699128,722,1352.2,489.3,3650,right
43,2,binary,14,1,fixationCross,7699687.0,7702220.0,2533.0,64,R,7699202,7699288,88,1352.5,492.0,3700,right
43,2,binary,14,1,fixationCross,7699687.0,7702220.0,2533.0,64,R,7699334,7699590,258,959.4,493.6,3750,NA
43,2,binary,14,1,trial,7699687.0,7702220.0,2533.0,64,R,7699626,7699842,218,768.9,500.2,3703,NA
43,2,binary,14,1,trial,7699687.0,7702220.0,2533.0,64,R,7699876,7700296,422,551.3,539.0,3638,left
43,2,binary,14,1,trial,7699687.0,7702220.0,2533.0,64,R,7700314,7700636,324,543.3,586.4,3523,left
43,2,binary,14,1,trial,7699687.0,7702220.0,2533.0,64,R,7700660,7701028,370,439.8,539.7,3492,left
43,2,binary,14,1,trial,7699687.0,7702220.0,2533.0,64,R,7701088,7701112,26,1108.2,515.8,3489,NA
43,2,binary,14,1,trial,7699687.0,7702220.0,2533.0,64,R,7701148,7701360,214,1418.9,517.2,3467,right
43,2,binary,14,1,trial,7699687.0,7702220.0,2533.0,64,R,7701374,7701610,238,1471.7,503.4,3462,right
43,2,binary,14,1,trial,7699687.0,7702220.0,2533.0,64,R,7701670,7702042,374,571.3,612.9,3507,left
43,2,binary,14,1,postResponse,7699687.0,7702220.0,2533.0,64,R,7702070,7702554,486,447.0,495.4,3568,left
43,2,binary,15,2,fixationCross,7703504.0,7705804.0,2300.0,65,R,7702654,7702854,202,448.6,498.5,3688,left
43,2,binary,15,2,fixationCross,7703504.0,7705804.0,2300.0,65,R,7702882,7703188,308,590.1,519.3,3689,left
43,2,binary,15,2,fixationCross,7703504.0,7705804.0,2300.0,65,R,7703228,7703354,128,949.1,528.7,3691,NA
43,2,binary,15,2,trial,7703504.0,7705804.0,2300.0,65,R,7703364,7703714,352,969.6,540.1,3742,NA
43,2,binary,15,2,trial,7703504.0,7705804.0,2300.0,65,R,7703758,7703996,240,549.0,539.1,3762,left
43,2,binary,15,2,trial,7703504.0,7705804.0,2300.0,65,R,7704014,7704624,612,524.4,475.4,3542,left
43,2,binary,15,2,trial,7703504.0,7705804.0,2300.0,65,R,7704684,7704892,210,1389.2,501.3,3544,right
43,2,binary,15,2,postResponse,7703504.0,7705804.0,2300.0,65,R,7704912,7706138,1228,1452.6,515.3,3492,right
43,2,binary,16,1,fixationCross,7707004.0,7709170.0,2166.0,66,R,7706238,7706506,270,1455.3,511.5,3450,right
43,2,binary,16,1,fixationCross,7707004.0,7709170.0,2166.0,66,R,7706522,7706552,32,1384.8,497.3,3495,right
43,2,binary,16,1,fixationCross,7707004.0,7709170.0,2166.0,66,R,7706592,7706712,122,1063.4,523.7,3607,NA
43,2,binary,16,1,trial,7707004.0,7709170.0,2166.0,66,R,7706732,7707144,414,972.6,546.2,3719,NA
43,2,binary,16,1,trial,7707004.0,7709170.0,2166.0,66,R,7707186,7707410,226,566.0,576.9,3811,left
43,2,binary,16,1,trial,7707004.0,7709170.0,2166.0,66,R,7707436,7707558,124,463.0,493.6,3582,left
43,2,binary,16,1,trial,7707004.0,7709170.0,2166.0,66,R,7707578,7707900,324,397.0,448.7,3386,left
43,2,binary,16,1,trial,7707004.0,7709170.0,2166.0,66,R,7707970,7708120,152,1537.8,543.6,3319,right
43,2,binary,16,1,trial,7707004.0,7709170.0,2166.0,66,R,7708146,7708424,280,1639.1,491.5,3356,right
43,2,binary,16,1,trial,7707004.0,7709170.0,2166.0,66,R,7708498,7708930,434,522.5,555.4,3604,left
43,2,binary,16,1,trial,7707004.0,7709170.0,2166.0,66,R,7708946,7709084,140,535.2,597.7,3539,left
43,2,binary,16,1,postResponse,7707004.0,7709170.0,2166.0,66,R,7709102,7709518,418,525.0,641.8,3532,left
43,2,binary,17,1,fixationCross,7710204.0,7711820.0,1616.0,67,R,7709592,7709674,84,524.6,647.3,3681,left
43,2,binary,17,1,fixationCross,7710204.0,7711820.0,1616.0,67,R,7709698,7709892,196,558.0,593.2,3761,left
43,2,binary,17,1,trial,7710204.0,7711820.0,1616.0,67,R,7709936,7710406,472,969.5,548.5,3771,NA
43,2,binary,17,1,trial,7710204.0,7711820.0,1616.0,67,R,7710448,7710662,216,569.7,575.5,3746,left
43,2,binary,17,1,trial,7710204.0,7711820.0,1616.0,67,R,7710688,7710918,232,487.3,490.9,3564,left
43,2,binary,17,1,trial,7710204.0,7711820.0,1616.0,67,R,7710944,7711088,146,371.9,562.6,3465,left
43,2,binary,17,1,trial,7710204.0,7711820.0,1616.0,67,R,7711158,7711392,236,1456.0,516.3,3370,right
43,2,binary,17,1,trial,7710204.0,7711820.0,1616.0,67,R,7711416,7711592,178,1580.8,495.6,3406,right
43,2,binary,17,1,postResponse,7710204.0,7711820.0,1616.0,67,R,7711602,7712156,556,1611.9,493.4,3423,right
43,2,binary,18,2,fixationCross,7713103.0,7715287.0,2184.0,68,R,7712256,7712318,64,1608.6,494.0,3466,right
43,2,binary,18,2,fixationCross,7713103.0,7715287.0,2184.0,68,R,7712372,7712400,30,923.3,515.8,3588,NA
43,2,binary,18,2,fixationCross,7713103.0,7715287.0,2184.0,68,R,7712424,7712788,366,710.0,536.6,3678,left
43,2,binary,18,2,trial,7713103.0,7715287.0,2184.0,68,R,7712824,7713224,402,964.6,555.8,3781,NA
43,2,binary,18,2,trial,7713103.0,7715287.0,2184.0,68,R,7713268,7713406,140,555.1,563.1,3862,left
43,2,binary,18,2,trial,7713103.0,7715287.0,2184.0,68,R,7713552,7713848,298,453.7,547.1,3458,left
43,2,binary,18,2,trial,7713103.0,7715287.0,2184.0,68,R,7713864,7714162,300,520.8,545.5,3331,left
43,2,binary,18,2,trial,7713103.0,7715287.0,2184.0,68,R,7714170,7714498,330,536.1,520.4,3187,left
43,2,binary,18,2,postResponse,7713103.0,7715287.0,2184.0,68,R,7714560,7715622,1064,1454.7,512.0,3223,right
43,2,binary,19,2,fixationCross,7716370.0,7718004.0,1634.0,69,R,7715710,7716038,330,1214.0,499.5,3445,right
43,2,binary,19,2,trial,7716370.0,7718004.0,1634.0,69,R,7716072,7716526,456,974.5,546.8,3789,NA
43,2,binary,19,2,trial,7716370.0,7718004.0,1634.0,69,R,7716574,7716752,180,533.8,556.6,3797,left
43,2,binary,19,2,trial,7716370.0,7718004.0,1634.0,69,R,7716776,7716896,122,454.1,609.2,3603,left
43,2,binary,19,2,trial,7716370.0,7718004.0,1634.0,69,R,7716920,7717036,118,575.1,534.0,3450,left
43,2,binary,19,2,trial,7716370.0,7718004.0,1634.0,69,R,7717094,7717344,252,1460.3,502.0,3252,right
43,2,binary,19,2,postResponse,7716370.0,7718004.0,1634.0,69,R,7717370,7718350,982,1467.7,637.3,3440,right
43,2,binary,20,2,fixationCross,7719087.0,7722053.0,2966.0,70,R,7718426,7718752,328,1465.8,637.8,3531,right
43,2,binary,20,2,fixationCross,7719087.0,7722053.0,2966.0,70,R,7718796,7718908,114,1037.3,575.7,3715,NA
43,2,binary,20,2,trial,7719087.0,7722053.0,2966.0,70,R,7718924,7719264,342,974.7,560.0,3750,NA
43,2,binary,20,2,trial,7719087.0,7722053.0,2966.0,70,R,7719308,7719568,262,607.7,541.0,3709,left
43,2,binary,20,2,trial,7719087.0,7722053.0,2966.0,70,R,7719602,7719762,162,423.4,545.6,3674,left
43,2,binary,20,2,trial,7719087.0,7722053.0,2966.0,70,R,7719774,7720314,542,411.2,508.8,3674,left
43,2,binary,20,2,trial,7719087.0,7722053.0,2966.0,70,R,7720466,7720568,104,1535.2,505.4,3724,right
43,2,binary,20,2,postResponse,7719087.0,7722053.0,2966.0,70,R,7720588,7722390,1804,1436.9,523.9,3769,right
43,2,binary,21,2,fixationCross,7723137.0,7725187.0,2050.0,71,R,7722490,7722556,68,1437.0,530.2,3877,right
43,2,binary,21,2,fixationCross,7723137.0,7725187.0,2050.0,71,R,7722582,7722806,226,1317.4,510.2,3942,right
43,2,binary,21,2,fixationCross,7723137.0,7725187.0,2050.0,71,R,7722844,7722988,146,1004.5,553.5,4029,NA
43,2,binary,21,2,trial,7723137.0,7725187.0,2050.0,71,R,7723000,7723274,276,961.0,566.7,4058,NA
43,2,binary,21,2,trial,7723137.0,7725187.0,2050.0,71,R,7723328,7723518,192,519.6,592.6,3954,left
43,2,binary,21,2,trial,7723137.0,7725187.0,2050.0,71,R,7723536,7723750,216,466.0,591.9,3534,left
43,2,binary,21,2,trial,7723137.0,7725187.0,2050.0,71,R,7723816,7724016,202,1325.2,517.9,3225,right
43,2,binary,21,2,trial,7723137.0,7725187.0,2050.0,71,R,7724036,7724250,216,1413.8,517.7,3182,right
43,2,binary,21,2,trial,7723137.0,7725187.0,2050.0,71,R,7724264,7724524,262,1478.4,528.2,3130,right
43,2,binary,21,2,trial,7723137.0,7725187.0,2050.0,71,R,7724544,7724868,326,1410.6,520.0,3073,right
43,2,binary,21,2,trial,7723137.0,7725187.0,2050.0,71,R,7724894,7724974,82,1266.4,502.4,3177,right
43,2,binary,21,2,postResponse,7723137.0,7725187.0,2050.0,71,R,7724996,7725522,528,1368.7,489.3,3283,right
43,2,binary,22,2,fixationCross,7726254.0,7728271.0,2017.0,72,R,7725622,7725820,200,1101.0,507.3,3512,NA
43,2,binary,22,2,fixationCross,7726254.0,7728271.0,2017.0,72,R,7725846,7725958,114,1252.9,515.4,3617,right
43,2,binary,22,2,trial,7726254.0,7728271.0,2017.0,72,R,7725994,7726414,422,979.5,540.3,3779,NA
43,2,binary,22,2,trial,7726254.0,7728271.0,2017.0,72,R,7726464,7726624,162,590.8,587.9,3858,left
43,2,binary,22,2,trial,7726254.0,7728271.0,2017.0,72,R,7726650,7726898,250,423.7,602.7,3607,left
43,2,binary,22,2,trial,7726254.0,7728271.0,2017.0,72,R,7726924,7727108,186,621.0,511.9,3331,left
43,2,binary,22,2,trial,7726254.0,7728271.0,2017.0,72,R,7727168,7727382,216,1439.5,491.5,3197,right
43,2,binary,22,2,trial,7726254.0,7728271.0,2017.0,72,R,7727406,7727794,390,1494.5,452.0,3234,right
43,2,binary,22,2,postResponse,7726254.0,7728271.0,2017.0,72,R,7727822,7728616,796,1340.3,562.3,3530,right
43,2,binary,23,2,fixationCross,7729404.0,7731103.0,1699.0,73,R,7728692,7728706,16,1342.7,567.4,3736,right
43,2,binary,23,2,fixationCross,7729404.0,7731103.0,1699.0,73,R,7728764,7728910,148,876.6,541.7,3791,NA
43,2,binary,23,2,fixationCross,7729404.0,7731103.0,1699.0,73,R,7728944,7729148,206,663.9,540.8,3719,left
43,2,binary,23,2,trial,7729404.0,7731103.0,1699.0,73,R,7729184,7729580,398,964.7,542.0,3684,NA
43,2,binary,23,2,trial,7729404.0,7731103.0,1699.0,73,R,7729624,7729998,376,561.1,540.8,3731,left
43,2,binary,23,2,trial,7729404.0,7731103.0,1699.0,73,R,7730058,7730490,434,1445.0,523.8,3554,right
43,2,binary,23,2,trial,7729404.0,7731103.0,1699.0,73,R,7730512,7730922,412,1363.1,517.5,3497,right
43,2,binary,23,2,trial,7729404.0,7731103.0,1699.0,73,R,7730946,7731320,376,1497.6,495.0,3411,right
43,2,binary,23,2,postResponse,7729404.0,7731103.0,1699.0,73,R,7731408,7731438,32,582.0,551.7,3513,left
43,2,binary,24,2,fixationCross,7731987.0,7734171.0,2184.0,74,R,7731512,7731670,160,590.2,554.3,3561,left
43,2,binary,24,2,fixationCross,7731987.0,7734171.0,2184.0,74,R,7731716,7731846,132,943.2,510.1,3642,NA
43,2,binary,24,2,trial,7731987.0,7734171.0,2184.0,74,R,7731862,7732128,268,984.9,542.8,3656,NA
43,2,binary,24,2,trial,7731987.0,7734171.0,2184.0,74,R,7732168,7732472,306,635.0,573.8,3793,left
43,2,binary,24,2,trial,7731987.0,7734171.0,2184.0,74,R,7732488,7732762,276,647.4,525.3,3613,left
43,2,binary,24,2,trial,7731987.0,7734171.0,2184.0,74,R,7732820,7733006,188,1463.6,475.8,3376,right
43,2,binary,24,2,trial,7731987.0,7734171.0,2184.0,74,R,7733034,7734478,1446,1645.3,567.9,3414,right
43,2,binary,25,1,fixationCross,7735287.0,7736637.0,1350.0,75,R,7734578,7734998,422,1091.1,538.5,3689,NA
43,2,binary,25,1,trial,7735287.0,7736637.0,1350.0,75,R,7735022,7735434,414,966.0,551.7,3804,NA
43,2,binary,25,1,trial,7735287.0,7736637.0,1350.0,75,R,7735478,7735764,288,600.3,583.2,3785,left
43,2,binary,25,1,trial,7735287.0,7736637.0,1350.0,75,R,7735848,7736088,242,1430.1,526.8,3371,right
43,2,binary,25,1,trial,7735287.0,7736637.0,1350.0,75,R,7736102,7736438,338,1471.5,526.1,3272,right
43,2,binary,25,1,trial,7735287.0,7736637.0,1350.0,75,R,7736496,7736654,160,783.4,496.9,3292,NA
43,2,binary,25,1,postResponse,7735287.0,7736637.0,1350.0,75,R,7736682,7736970,290,613.7,527.4,3405,left
43,2,binary,26,1,fixationCross,7761671.0,7764071.0,2400.0,76,R,7761059,7761369,312,775.9,485.1,3222,NA
43,2,binary,26,1,trial,7761671.0,7764071.0,2400.0,76,R,7761399,7762005,608,987.9,553.1,3544,NA
