participantNo,block,task,blockTrial,response,trialStage,trialStartTime,trialFinishTime,rt,trial,eye,fixStart,fixEnd,fixLength,fixPosX,fixPosY,dilation,aoi
12,1,binary,1,1,fixationCross,9341622.0,9345338.0,3716.0,1,R,9340900,9341106,208,899.6,875.7,4055,likertHorizontal
12,1,binary,1,1,fixationCross,9341622.0,9345338.0,3716.0,1,R,9341154,9341340,188,1063.1,489.2,3992,NA
12,1,binary,1,1,trial,9341622.0,9345338.0,3716.0,1,R,9341362,9341796,436,970.1,565.6,3959,NA
12,1,binary,1,1,trial,9341622.0,9345338.0,3716.0,1,R,9341842,9342046,206,1335.2,524.1,3766,right
12,1,binary,1,1,trial,9341622.0,9345338.0,3716.0,1,R,9342072,9342232,162,1449.4,550.5,3418,right
12,1,binary,1,1,trial,9341622.0,9345338.0,3716.0,1,R,9342298,9342560,264,577.3,543.6,3305,left
12,1,binary,1,1,trial,9341622.0,9345338.0,3716.0,1,R,9342578,9342886,310,514.6,573.4,3228,left
12,1,binary,1,1,trial,9341622.0,9345338.0,3716.0,1,R,9342936,9343150,216,459.1,989.2,3203,NA
12,1,binary,1,1,trial,9341622.0,9345338.0,3716.0,1,R,9343172,9343444,274,500.7,1017.8,3377,NA
12,1,binary,1,1,trial,9341622.0,9345338.0,3716.0,1,R,9343494,9343624,132,1078.7,982.5,3676,likertHorizontal
12,1,binary,1,1,trial,9341622.0,9345338.0,3716.0,1,R,9343648,9343922,276,987.1,989.6,3764,likertHorizontal
12,1,binary,1,1,trial,9341622.0,9345338.0,3716.0,1,R,9343936,9344248,314,954.2,965.2,3754,likertHorizontal
12,1,binary,1,1,trial,9341622.0,9345338.0,3716.0,1,R,9344292,9344744,454,1409.2,934.0,3651,NA
12,1,binary,1,1,trial,9341622.0,9345338.0,3716.0,1,R,9344804,9344968,166,561.4,962.1,3983,NA
12,1,binary,1,1,trial,9341622.0,9345338.0,3716.0,1,R,9344982,9345196,216,496.7,978.1,3946,NA
12,1,binary,1,1,trial,9341622.0,9345338.0,3716.0,1,R,9345268,9345360,94,1296.0,719.4,3807,right
12,1,binary,1,1,postResponse,9341622.0,9345338.0,3716.0,1,R,9345418,9345704,288,533.5,941.6,3764,NA
12,1,binary,2,2,fixationCross,9346622.0,9348972.0,2350.0,2,R,9345802,9346090,290,540.9,938.2,4007,NA
12,1,binary,2,2,fixationCross,9346622.0,9348972.0,2350.0,2,R,9346168,9346306,140,1329.4,680.9,4006,right
12,1,binary,2,2,fixationCross,9346622.0,9348972.0,2350.0,2,R,9346348,9346556,210,984.6,541.8,4012,NA
12,1,binary,2,2,trial,9346622.0,9348972.0,2350.0,2,R,9346568,9346862,296,961.1,547.5,3932,NA
12,1,binary,2,2,trial,9346622.0,9348972.0,2350.0,2,R,9346908,9347044,138,577.4,577.2,3820,left
12,1,binary,2,2,trial,9346622.0,9348972.0,2350.0,2,R,9347088,9347200,114,534.9,960.6,3585,NA
12,1,binary,2,2,trial,9346622.0,9348972.0,2350.0,2,R,9347220,9347338,120,465.4,999.9,3441,NA
12,1,binary,2,2,trial,9346622.0,9348972.0,2350.0,2,R,9347406,9347518,114,1465.9,669.9,3244,right
12,1,binary,2,2,trial,9346622.0,9348972.0,2350.0,2,R,9347540,9347774,236,1427.8,574.0,3174,right
12,1,binary,2,2,trial,9346622.0,9348972.0,2350.0,2,R,9347840,9348092,254,495.7,558.3,3038,left
12,1,binary,2,2,trial,9346622.0,9348972.0,2350.0,2,R,9348106,9348294,190,506.1,597.7,2998,left
12,1,binary,2,2,trial,9346622.0,9348972.0,2350.0,2,R,9348322,9348444,124,684.8,555.7,2990,left
12,1,binary,2,2,trial,9346622.0,9348972.0,2350.0,2,R,9348504,9348710,208,1347.4,930.3,2893,NA
12,1,binary,2,2,trial,9346622.0,9348972.0,2350.0,2,R,9348734,9348846,114,1462.5,927.9,2900,NA
12,1,binary,2,2,postResponse,9346622.0,9348972.0,2350.0,2,R,9348894,9349334,442,1519.1,472.3,3050,right
12,1,binary,3,1,fixationCross,9350055.0,9352738.0,2683.0,3,R,9349410,9349726,318,1512.1,474.7,3106,right
12,1,binary,3,1,fixationCross,9350055.0,9352738.0,2683.0,3,R,9349778,9349986,210,914.6,532.8,3414,NA
12,1,binary,3,1,trial,9350055.0,9352738.0,2683.0,3,R,9350000,9350212,214,957.7,548.5,3412,NA
12,1,binary,3,1,trial,9350055.0,9352738.0,2683.0,3,R,9350258,9350468,212,569.2,567.6,3341,left
12,1,binary,3,1,trial,9350055.0,9352738.0,2683.0,3,R,9350546,9350732,188,1377.3,554.2,2989,right
12,1,binary,3,1,trial,9350055.0,9352738.0,2683.0,3,R,9350748,9350902,156,1349.9,581.3,2902,right
12,1,binary,3,1,trial,9350055.0,9352738.0,2683.0,3,R,9350922,9351128,208,1415.2,633.5,2839,right
12,1,binary,3,1,trial,9350055.0,9352738.0,2683.0,3,R,9351196,9351426,232,566.1,630.0,2941,left
12,1,binary,3,1,trial,9350055.0,9352738.0,2683.0,3,R,9351448,9351704,258,511.2,695.3,2958,left
12,1,binary,3,1,trial,9350055.0,9352738.0,2683.0,3,R,9351716,9351898,184,526.7,717.9,2910,left
12,1,binary,3,1,trial,9350055.0,9352738.0,2683.0,3,R,9351958,9352366,410,1305.5,665.9,2796,right
12,1,binary,3,1,trial,9350055.0,9352738.0,2683.0,3,R,9352430,9352950,522,508.5,994.2,2897,NA
12,1,binary,3,1,postResponse,9350055.0,9352738.0,2683.0,3,R,9353036,9353078,44,1238.1,509.1,2992,right
12,1,binary,4,1,fixationCross,9353855.0,9356621.0,2766.0,4,R,9353180,9353542,364,1231.0,518.1,3198,right
12,1,binary,4,1,trial,9353855.0,9356621.0,2766.0,4,R,9353582,9354020,440,956.3,563.4,3458,NA
12,1,binary,4,1,trial,9353855.0,9356621.0,2766.0,4,R,9354064,9354238,176,522.0,552.6,3440,left
12,1,binary,4,1,trial,9353855.0,9356621.0,2766.0,4,R,9354296,9354478,184,1363.2,548.6,3148,right
12,1,binary,4,1,trial,9353855.0,9356621.0,2766.0,4,R,9354500,9354696,198,1409.0,615.7,3073,right
12,1,binary,4,1,trial,9353855.0,9356621.0,2766.0,4,R,9354718,9354866,150,1343.3,639.1,3076,right
12,1,binary,4,1,trial,9353855.0,9356621.0,2766.0,4,R,9354932,9355194,264,488.5,569.2,3243,left
12,1,binary,4,1,trial,9353855.0,9356621.0,2766.0,4,R,9355218,9355338,122,502.1,479.9,3316,left
12,1,binary,4,1,trial,9353855.0,9356621.0,2766.0,4,R,9355394,9355556,164,448.6,948.8,3401,NA
12,1,binary,4,1,trial,9353855.0,9356621.0,2766.0,4,R,9355606,9355876,272,486.9,520.1,3462,left
12,1,binary,4,1,trial,9353855.0,9356621.0,2766.0,4,R,9355892,9356076,186,522.0,484.0,3501,left
12,1,binary,4,1,trial,9353855.0,9356621.0,2766.0,4,R,9356136,9356396,262,1347.3,515.6,3242,right
12,1,binary,4,1,postResponse,9353855.0,9356621.0,2766.0,4,R,9356424,9356998,576,1390.1,629.3,3155,right
12,1,binary,5,2,fixationCross,9357789.0,9360122.0,2333.0,5,R,9357100,9357240,142,1388.2,629.6,3286,right
12,1,binary,5,2,fixationCross,9357789.0,9360122.0,2333.0,5,R,9357288,9357498,212,1028.8,722.9,3551,NA
12,1,binary,5,2,trial,9357789.0,9360122.0,2333.0,5,R,9357528,9357950,424,945.5,556.6,3686,NA
12,1,binary,5,2,trial,9357789.0,9360122.0,2333.0,5,R,9358002,9358184,184,474.7,526.3,3624,left
12,1,binary,5,2,trial,9357789.0,9360122.0,2333.0,5,R,9358204,9358352,150,534.2,471.6,3339,left
12,1,binary,5,2,trial,9357789.0,9360122.0,2333.0,5,R,9358412,9358850,440,1359.9,463.3,2981,right
12,1,binary,5,2,trial,9357789.0,9360122.0,2333.0,5,R,9358922,9359050,130,476.4,707.6,3048,left
12,1,binary,5,2,trial,9357789.0,9360122.0,2333.0,5,R,9359084,9359290,208,439.2,505.7,3057,left
12,1,binary,5,2,trial,9357789.0,9360122.0,2333.0,5,R,9359312,9359572,262,522.0,454.8,2980,left
12,1,binary,5,2,trial,9357789.0,9360122.0,2333.0,5,R,9359632,9360052,422,1371.5,514.8,2826,right
12,1,binary,5,2,postResponse,9357789.0,9360122.0,2333.0,5,R,9360078,9360476,400,1390.9,689.9,2964,right
12,1,binary,6,2,fixationCross,9361222.0,9362938.0,1716.0,6,R,9360550,9360912,364,1235.4,599.0,3089,right
12,1,binary,6,2,trial,9361222.0,9362938.0,1716.0,6,R,9360950,9361380,432,932.8,555.9,3439,NA
12,1,binary,6,2,trial,9361222.0,9362938.0,1716.0,6,R,9361424,9361706,284,479.3,525.4,3412,left
12,1,binary,6,2,trial,9361222.0,9362938.0,1716.0,6,R,9361732,9361842,112,380.6,479.7,3118,left
12,1,binary,6,2,trial,9361222.0,9362938.0,1716.0,6,R,9361906,9362116,212,1363.8,518.3,2936,right
12,1,binary,6,2,trial,9361222.0,9362938.0,1716.0,6,R,9362136,9362438,304,1404.4,562.7,2941,right
12,1,binary,6,2,trial,9361222.0,9362938.0,1716.0,6,R,9362450,9362770,322,1388.4,579.6,3117,right
12,1,binary,6,2,postResponse,9361222.0,9362938.0,1716.0,6,R,9362840,9363286,448,486.9,574.8,3205,left
12,1,binary,7,1,fixationCross,9364005.0,9365572.0,1567.0,7,R,9363360,9363632,274,502.2,572.8,3104,left
12,1,binary,7,1,fixationCross,9364005.0,9365572.0,1567.0,7,R,9363708,9363870,164,992.3,527.5,3132,NA
12,1,binary,7,1,trial,9364005.0,9365572.0,1567.0,7,R,9363890,9364172,284,937.4,553.5,3171,NA
12,1,binary,7,1,trial,9364005.0,9365572.0,1567.0,7,R,9364220,9364434,216,497.8,557.5,3245,left
12,1,binary,7,1,trial,9364005.0,9365572.0,1567.0,7,R,9364448,9364538,92,506.8,607.5,3101,left
12,1,binary,7,1,trial,9364005.0,9365572.0,1567.0,7,R,9364600,9364840,242,1372.0,503.2,2891,right
12,1,binary,7,1,trial,9364005.0,9365572.0,1567.0,7,R,9364858,9365058,202,1433.9,541.3,2785,right
12,1,binary,7,1,trial,9364005.0,9365572.0,1567.0,7,R,9365132,9365418,288,565.6,812.8,2942,NA
12,1,binary,7,1,trial,9364005.0,9365572.0,1567.0,7,R,9365446,9365538,94,459.1,902.1,3006,NA
12,1,binary,7,1,postResponse,9364005.0,9365572.0,1567.0,7,R,9365582,9365922,342,482.0,566.5,2984,left
12,1,binary,8,2,fixationCross,9366472.0,9369255.0,2783.0,8,R,9365996,9366400,406,887.8,554.5,2940,NA
12,1,binary,8,2,trial,9366472.0,9369255.0,2783.0,8,R,9366420,9366678,260,955.1,567.3,3171,NA
12,1,binary,8,2,trial,9366472.0,9369255.0,2783.0,8,R,9366726,9366872,148,617.2,547.4,3301,left
12,1,binary,8,2,trial,9366472.0,9369255.0,2783.0,8,R,9366992,9367176,186,525.7,559.5,3079,left
12,1,binary,8,2,trial,9366472.0,9369255.0,2783.0,8,R,9367236,9367478,244,1383.7,521.4,2997,right
12,1,binary,8,2,trial,9366472.0,9369255.0,2783.0,8,R,9367496,9367770,276,1378.7,565.5,3129,right
12,1,binary,8,2,trial,9366472.0,9369255.0,2783.0,8,R,9367838,9368238,402,546.3,575.5,3384,left
12,1,binary,8,2,trial,9366472.0,9369255.0,2783.0,8,R,9368260,9368418,160,568.5,659.1,3233,left
12,1,binary,8,2,trial,9366472.0,9369255.0,2783.0,8,R,9368446,9368640,196,573.9,498.6,3195,left
12,1,binary,8,2,trial,9366472.0,9369255.0,2783.0,8,R,9368702,9369012,312,1369.6,610.8,3155,right
12,1,binary,8,2,trial,9366472.0,9369255.0,2783.0,8,R,9369028,9369262,236,1390.7,573.5,3234,right
12,1,binary,8,2,postResponse,9366472.0,9369255.0,2783.0,8,R,9369280,9369606,328,1326.2,554.9,3314,right
12,1,binary,9,2,fixationCross,9370455.0,9371939.0,1484.0,9,R,9369706,9370102,398,1324.5,553.1,3365,right
12,1,binary,9,2,trial,9370455.0,9371939.0,1484.0,9,R,9370146,9370608,464,999.1,558.3,3480,NA
12,1,binary,9,2,trial,9370455.0,9371939.0,1484.0,9,R,9370656,9370788,134,533.3,535.4,3489,left
12,1,binary,9,2,trial,9370455.0,9371939.0,1484.0,9,R,9370810,9370982,174,476.2,466.6,3282,left
12,1,binary,9,2,trial,9370455.0,9371939.0,1484.0,9,R,9371042,9371236,196,1351.6,500.4,3002,right
12,1,binary,9,2,trial,9370455.0,9371939.0,1484.0,9,R,9371256,9371388,134,1423.9,450.8,2914,right
12,1,binary,9,2,trial,9370455.0,9371939.0,1484.0,9,R,9371410,9371852,444,1501.4,457.2,2927,right
12,1,binary,9,2,postResponse,9370455.0,9371939.0,1484.0,9,R,9371926,9372284,360,522.9,502.7,3128,left
12,1,binary,10,1,fixationCross,9373005.0,9375155.0,2150.0,10,R,9372384,9372698,316,532.5,500.0,3170,left
12,1,binary,10,1,trial,9373005.0,9375155.0,2150.0,10,R,9372738,9373182,446,971.1,558.9,3169,NA
12,1,binary,10,1,trial,9373005.0,9375155.0,2150.0,10,R,9373226,9373394,170,560.2,596.2,3202,left
12,1,binary,10,1,trial,9373005.0,9375155.0,2150.0,10,R,9373412,9373574,164,523.7,639.5,3071,left
12,1,binary,10,1,trial,9373005.0,9375155.0,2150.0,10,R,9373634,9373934,302,1329.3,508.1,2833,right
12,1,binary,10,1,trial,9373005.0,9375155.0,2150.0,10,R,9373952,9374076,126,1395.4,484.5,2788,right
12,1,binary,10,1,trial,9373005.0,9375155.0,2150.0,10,R,9374222,9374448,228,468.9,638.7,3161,left
12,1,binary,10,1,trial,9373005.0,9375155.0,2150.0,10,R,9374470,9374658,190,550.8,660.9,3418,left
12,1,binary,10,1,trial,9373005.0,9375155.0,2150.0,10,R,9374716,9375154,440,1323.2,546.4,3022,right
12,1,binary,10,1,trial,9373005.0,9375155.0,2150.0,10,R,9375178,9375268,92,1387.6,471.8,2934,right
12,1,binary,10,1,postResponse,9373005.0,9375155.0,2150.0,10,R,9375314,9375500,188,900.0,509.7,3082,NA
12,1,binary,11,1,fixationCross,9376539.0,9378356.0,1817.0,11,R,9375600,9375882,284,898.8,520.9,3263,NA
12,1,binary,11,1,fixationCross,9376539.0,9378356.0,1817.0,11,R,9375920,9376336,418,1189.2,505.7,3296,right
12,1,binary,11,1,trial,9376539.0,9378356.0,1817.0,11,R,9376370,9376698,330,916.9,561.3,3293,NA
12,1,binary,11,1,trial,9376539.0,9378356.0,1817.0,11,R,9376746,9376878,134,414.1,507.0,3274,left
12,1,binary,11,1,trial,9376539.0,9378356.0,1817.0,11,R,9376898,9377040,144,391.5,453.4,3145,left
12,1,binary,11,1,trial,9376539.0,9378356.0,1817.0,11,R,9377104,9377314,212,1367.2,455.6,2936,right
12,1,binary,11,1,trial,9376539.0,9378356.0,1817.0,11,R,9377336,9377730,396,1474.1,476.3,2849,right
12,1,binary,11,1,trial,9376539.0,9378356.0,1817.0,11,R,9377748,9377884,138,1376.4,508.6,2867,right
12,1,binary,11,1,trial,9376539.0,9378356.0,1817.0,11,R,9377956,9378250,296,464.1,546.0,2969,left
12,1,binary,11,1,postResponse,9376539.0,9378356.0,1817.0,11,R,9378314,9378702,390,1415.4,443.4,2970,right
12,1,binary,12,1,fixationCross,9379522.0,9381622.0,2100.0,12,R,9378776,9378812,38,1419.3,443.3,2960,right
12,1,binary,12,1,fixationCross,9379522.0,9381622.0,2100.0,12,R,9378838,9379176,340,1357.3,496.3,3086,right
12,1,binary,12,1,fixationCross,9379522.0,9381622.0,2100.0,12,R,9379236,9379436,202,964.9,532.8,3328,NA
12,1,binary,12,1,trial,9379522.0,9381622.0,2100.0,12,R,9379446,9379752,308,945.5,541.9,3412,NA
12,1,binary,12,1,trial,9379522.0,9381622.0,2100.0,12,R,9379800,9379968,170,549.6,517.4,3400,left
12,1,binary,12,1,trial,9379522.0,9381622.0,2100.0,12,R,9379988,9380276,290,595.5,503.8,3180,left
12,1,binary,12,1,trial,9379522.0,9381622.0,2100.0,12,R,9380336,9380566,232,1409.6,550.8,2993,right
12,1,binary,12,1,trial,9379522.0,9381622.0,2100.0,12,R,9380586,9380762,178,1442.8,609.8,2939,right
12,1,binary,12,1,trial,9379522.0,9381622.0,2100.0,12,R,9380770,9380938,170,1474.2,611.9,2928,right
12,1,binary,12,1,trial,9379522.0,9381622.0,2100.0,12,R,9381006,9381268,264,595.4,550.8,3008,left
12,1,binary,12,1,trial,9379522.0,9381622.0,2100.0,12,R,9381282,9381570,290,566.5,527.8,2987,left
12,1,binary,12,1,postResponse,9379522.0,9381622.0,2100.0,12,R,9381580,9381968,390,587.1,511.3,2963,left
12,1,binary,13,2,fixationCross,9382588.0,9383972.0,1384.0,13,R,9382044,9382268,226,599.4,507.4,3017,left
12,1,binary,13,2,trial,9382588.0,9383972.0,1384.0,13,R,9382322,9382590,270,1040.3,535.9,3065,NA
12,1,binary,13,2,trial,9382588.0,9383972.0,1384.0,13,R,9382612,9382774,164,944.8,552.2,3125,NA
12,1,binary,13,2,trial,9382588.0,9383972.0,1384.0,13,R,9382818,9383010,194,1360.8,500.5,3066,right
12,1,binary,13,2,trial,9382588.0,9383972.0,1384.0,13,R,9383028,9383088,62,1435.6,498.6,2939,right
12,1,binary,13,2,trial,9382588.0,9383972.0,1384.0,13,R,9383158,9383460,304,480.5,535.5,2937,left
12,1,binary,13,2,trial,9382588.0,9383972.0,1384.0,13,R,9383518,9383910,394,1315.3,535.0,2871,right
12,1,binary,13,2,postResponse,9382588.0,9383972.0,1384.0,13,R,9383980,9384318,340,499.0,541.9,2977,left
12,1,binary,14,1,fixationCross,9384905.0,9386706.0,1801.0,14,R,9384438,9384838,402,995.8,532.6,3058,NA
12,1,binary,14,1,trial,9384905.0,9386706.0,1801.0,14,R,9384854,9385076,224,948.1,548.4,3181,NA
12,1,binary,14,1,trial,9384905.0,9386706.0,1801.0,14,R,9385124,9385262,140,497.3,514.1,3305,left
12,1,binary,14,1,trial,9384905.0,9386706.0,1801.0,14,R,9385282,9385432,152,458.2,446.7,3151,left
12,1,binary,14,1,trial,9384905.0,9386706.0,1801.0,14,R,9385496,9385736,242,1382.7,492.2,2924,right
12,1,binary,14,1,trial,9384905.0,9386706.0,1801.0,14,R,9385758,9385986,230,1267.2,510.0,2913,right
12,1,binary,14,1,trial,9384905.0,9386706.0,1801.0,14,R,9386050,9386280,232,500.6,526.5,3093,left
12,1,binary,14,1,trial,9384905.0,9386706.0,1801.0,14,R,9386300,9386442,144,458.6,478.3,3132,left
12,1,binary,14,1,trial,9384905.0,9386706.0,1801.0,14,R,9386454,9386984,532,456.3,442.7,3005,left
12,1,binary,15,2,fixationCross,9387789.0,9389522.0,1733.0,15,R,9387128,9387508,382,898.1,449.9,2997,NA
12,1,binary,15,2,trial,9387789.0,9389522.0,1733.0,15,R,9387542,9387948,408,973.2,544.5,3103,NA
12,1,binary,15,2,trial,9387789.0,9389522.0,1733.0,15,R,9387996,9388320,326,479.2,517.1,3096,left
12,1,binary,15,2,trial,9387789.0,9389522.0,1733.0,15,R,9388386,9388674,290,1448.3,517.8,2865,right
12,1,binary,15,2,trial,9387789.0,9389522.0,1733.0,15,R,9388690,9388946,258,1464.2,557.7,2824,right
12,1,binary,15,2,trial,9387789.0,9389522.0,1733.0,15,R,9388960,9389136,178,1466.2,518.9,2818,right
12,1,binary,15,2,trial,9387789.0,9389522.0,1733.0,15,R,9389208,9389608,402,484.6,521.5,2958,left
12,1,binary,15,2,postResponse,9387789.0,9389522.0,1733.0,15,R,9389620,9389868,250,465.1,500.3,2954,left
12,1,binary,16,2,fixationCross,9390638.0,9391773.0,1135.0,16,R,9389970,9390350,382,818.6,480.2,3007,NA
12,1,binary,16,2,fixationCross,9390638.0,9391773.0,1135.0,16,R,9390374,9390608,236,960.2,561.3,3180,NA
12,1,binary,16,2,trial,9390638.0,9391773.0,1135.0,16,R,9390622,9390804,184,915.1,548.0,3284,NA
12,1,binary,16,2,trial,9390638.0,9391773.0,1135.0,16,R,9390850,9391054,206,519.8,552.2,3331,left
12,1,binary,16,2,trial,9390638.0,9391773.0,1135.0,16,R,9391116,9391340,226,1377.7,547.4,2978,right
12,1,binary,16,2,trial,9390638.0,9391773.0,1135.0,16,R,9391362,9391738,378,1380.8,621.3,2955,right
12,1,binary,16,2,postResponse,9390638.0,9391773.0,1135.0,16,R,9391752,9392122,372,1407.2,653.8,3209,right
12,1,binary,17,1,fixationCross,9392872.0,9394106.0,1234.0,17,R,9392198,9392214,18,1408.4,652.5,3395,right
12,1,binary,17,1,fixationCross,9392872.0,9394106.0,1234.0,17,R,9392238,9392562,326,1283.0,566.8,3538,right
12,1,binary,17,1,trial,9392872.0,9394106.0,1234.0,17,R,9392600,9393028,430,969.1,549.5,3656,NA
12,1,binary,17,1,trial,9392872.0,9394106.0,1234.0,17,R,9393074,9393250,178,517.9,552.2,3568,left
12,1,binary,17,1,trial,9392872.0,9394106.0,1234.0,17,R,9393270,9393366,98,504.9,481.8,3348,left
12,1,binary,17,1,trial,9392872.0,9394106.0,1234.0,17,R,9393430,9393622,194,1383.5,556.2,3051,right
12,1,binary,17,1,trial,9392872.0,9394106.0,1234.0,17,R,9393640,9393786,148,1437.7,569.8,2952,right
12,1,binary,17,1,trial,9392872.0,9394106.0,1234.0,17,R,9393860,9394066,208,599.3,854.7,3011,NA
12,1,binary,17,1,trial,9392872.0,9394106.0,1234.0,17,R,9394092,9394356,266,448.4,953.3,3066,NA
12,1,binary,18,2,fixationCross,9395156.0,9396156.0,1000.0,18,R,9394526,9394682,158,838.6,434.8,3432,NA
12,1,binary,18,2,trial,9395156.0,9396156.0,1000.0,18,R,9394866,9395328,464,930.9,612.9,3650,NA
12,1,binary,18,2,trial,9395156.0,9396156.0,1000.0,18,R,9395372,9395616,246,527.7,565.9,3573,left
12,1,binary,18,2,trial,9395156.0,9396156.0,1000.0,18,R,9395678,9396114,438,1432.1,535.3,3113,right
12,1,binary,18,2,postResponse,9395156.0,9396156.0,1000.0,18,R,9396130,9396504,376,1484.9,521.8,3117,right
12,1,binary,19,1,fixationCross,9397055.0,9398056.0,1001.0,19,R,9396636,9396956,322,970.6,540.3,3453,NA
12,1,binary,19,1,trial,9397055.0,9398056.0,1001.0,19,R,9396970,9397240,272,937.8,563.2,3547,NA
12,1,binary,19,1,trial,9397055.0,9398056.0,1001.0,19,R,9397286,9397480,196,523.8,588.2,3490,left
12,1,binary,19,1,trial,9397055.0,9398056.0,1001.0,19,R,9397498,9397634,138,470.2,633.0,3286,left
12,1,binary,19,1,trial,9397055.0,9398056.0,1001.0,19,R,9397698,9398044,348,1425.0,543.9,3040,right
12,1,binary,19,1,postResponse,9397055.0,9398056.0,1001.0,19,R,9398120,9398388,270,482.9,637.2,3079,left
12,1,binary,20,2,fixationCross,9399155.0,9400355.0,1200.0,20,R,9398488,9398830,344,498.3,630.3,3219,left
12,1,binary,20,2,trial,9399155.0,9400355.0,1200.0,20,R,9398868,9399332,466,922.8,549.1,3234,NA
12,1,binary,20,2,trial,9399155.0,9400355.0,1200.0,20,R,9399376,9399552,178,489.0,538.8,3287,left
12,1,binary,20,2,trial,9399155.0,9400355.0,1200.0,20,R,9399576,9399740,166,448.4,442.8,3091,left
12,1,binary,20,2,trial,9399155.0,9400355.0,1200.0,20,R,9399808,9400326,520,1432.2,515.4,2845,right
12,1,binary,20,2,postResponse,9399155.0,9400355.0,1200.0,20,R,9400402,9400704,304,476.5,491.1,3111,left
12,1,binary,21,2,fixationCross,9402256.0,9403539.0,1283.0,21,R,9400804,9400892,90,486.3,500.7,3115,left
12,1,binary,21,2,fixationCross,9402256.0,9403539.0,1283.0,21,R,9401036,9401740,706,659.7,475.9,3307,left
12,1,binary,21,2,fixationCross,9402256.0,9403539.0,1283.0,21,R,9401764,9401936,174,545.5,520.8,3364,left
12,1,binary,21,2,fixationCross,9402256.0,9403539.0,1283.0,21,R,9401978,9402208,232,894.5,534.9,3337,NA
12,1,binary,21,2,trial,9402256.0,9403539.0,1283.0,21,R,9402222,9402434,214,948.4,549.6,3355,NA
12,1,binary,21,2,trial,9402256.0,9403539.0,1283.0,21,R,9402474,9402638,166,637.3,550.9,3375,left
12,1,binary,21,2,trial,9402256.0,9403539.0,1283.0,21,R,9402696,9402926,232,1408.2,539.0,3092,right
12,1,binary,21,2,trial,9402256.0,9403539.0,1283.0,21,R,9402946,9403446,502,1496.3,505.1,2980,right
12,1,binary,21,2,trial,9402256.0,9403539.0,1283.0,21,R,9403488,9403802,316,1437.1,812.9,3227,NA
12,1,binary,22,2,fixationCross,9404789.0,9406189.0,1400.0,22,R,9403978,9404478,502,1299.4,463.4,3666,right
12,1,binary,22,2,trial,9404789.0,9406189.0,1400.0,22,R,9404522,9404954,434,955.6,532.3,3539,NA
12,1,binary,22,2,trial,9404789.0,9406189.0,1400.0,22,R,9404996,9405206,212,1304.2,480.2,3445,right
12,1,binary,22,2,trial,9404789.0,9406189.0,1400.0,22,R,9405266,9405596,332,608.5,621.6,3246,left
12,1,binary,22,2,trial,9404789.0,9406189.0,1400.0,22,R,9405656,9405854,200,1270.5,522.6,3130,right
12,1,binary,22,2,trial,9404789.0,9406189.0,1400.0,22,R,9405902,9406154,254,1419.4,932.1,3081,NA
12,1,binary,22,2,postResponse,9404789.0,9406189.0,1400.0,22,R,9406234,9406524,292,538.3,588.7,3307,left
12,1,binary,23,2,fixationCross,9407372.0,9408505.0,1133.0,23,R,9406624,9407022,400,550.9,586.2,3320,left
12,1,binary,23,2,fixationCross,9407372.0,9408505.0,1133.0,23,R,9407046,9407078,34,751.8,549.7,3271,NA
12,1,binary,23,2,trial,9407372.0,9408505.0,1133.0,23,R,9407108,9407530,424,950.7,532.9,3278,NA
12,1,binary,23,2,trial,9407372.0,9408505.0,1133.0,23,R,9407572,9407836,266,546.2,518.5,3447,left
12,1,binary,23,2,trial,9407372.0,9408505.0,1133.0,23,R,9407858,9408048,192,433.5,553.9,3262,left
12,1,binary,23,2,trial,9407372.0,9408505.0,1133.0,23,R,9408108,9408464,358,1316.6,575.5,3122,right
12,1,binary,23,2,postResponse,9407372.0,9408505.0,1133.0,23,R,9408512,9408856,346,1416.4,843.2,3174,NA
12,1,binary,24,2,fixationCross,9409605.0,9410805.0,1200.0,24,R,9408956,9409294,340,1245.7,672.5,3617,right
12,1,binary,24,2,trial,9409605.0,9410805.0,1200.0,24,R,9409332,9409760,430,953.9,556.2,3724,NA
12,1,binary,24,2,trial,9409605.0,9410805.0,1200.0,24,R,9409806,9409994,190,1423.0,503.6,3510,right
12,1,binary,24,2,trial,9409605.0,9410805.0,1200.0,24,R,9410010,9410186,178,1464.4,532.7,3244,right
12,1,binary,24,2,trial,9409605.0,9410805.0,1200.0,24,R,9410248,9410352,106,755.1,512.5,3148,NA
12,1,binary,24,2,trial,9409605.0,9410805.0,1200.0,24,R,9410378,9410886,510,573.1,542.6,3083,left
12,1,binary,24,2,postResponse,9409605.0,9410805.0,1200.0,24,R,9410944,9411152,210,1228.1,499.7,3115,right
12,1,binary,25,2,fixationCross,9411739.0,9412823.0,1084.0,25,R,9411252,9411630,380,1042.6,563.8,3394,NA
12,1,binary,25,2,trial,9411739.0,9412823.0,1084.0,25,R,9411652,9411910,260,924.2,558.1,3545,NA
12,1,binary,25,2,trial,9411739.0,9412823.0,1084.0,25,R,9411954,9412108,156,553.8,566.1,3463,left
12,1,binary,25,2,trial,9411739.0,9412823.0,1084.0,25,R,9412228,9412340,114,507.8,620.7,3204,left
12,1,binary,25,2,trial,9411739.0,9412823.0,1084.0,25,R,9412402,9412808,408,1398.5,532.0,3097,right
12,1,binary,25,2,postResponse,9411739.0,9412823.0,1084.0,25,R,9412826,9413170,346,1441.0,601.4,3094,right
12,1,binary,26,1,fixationCross,9438006.0,9441523.0,3517.0,26,R,9437203,9437477,276,162.5,33.0,3263,NA
12,1,binary,26,1,fixationCross,9438006.0,9441523.0,3517.0,26,R,9437529,9437629,102,521.4,182.1,3221,NA
12,1,binary,26,1,fixationCross,9438006.0,9441523.0,3517.0,26,R,9437679,9437829,152,871.7,589.2,3264,NA
12,1,binary,26,1,trial,9438006.0,9441523.0,3517.0,26,R,9437851,9438169,320,950.9,561.8,3412,NA
12,1,binary,26,1,trial,9438006.0,9441523.0,3517.0,26,R,9438215,9438409,196,1420.2,518.4,3505,right
12,1,binary,26,1,trial,9438006.0,9441523.0,3517.0,26,R,9438617,9438757,142,1446.3,1002.2,3107,NA
12,1,binary,26,1,trial,9438006.0,9441523.0,3517.0,26,R,9438805,9438957,154,950.0,970.1,3349,likertHorizontal
12,1,binary,26,1,trial,9438006.0,9441523.0,3517.0,26,R,9439003,9439217,216,1388.5,995.3,3557,NA
12,1,binary,26,1,trial,9438006.0,9441523.0,3517.0,26,R,9439229,9439355,128,1411.0,966.1,3729,NA
12,1,binary,26,1,trial,9438006.0,9441523.0,3517.0,26,R,9439423,9439545,124,540.9,953.9,3848,NA
12,1,binary,26,1,trial,9438006.0,9441523.0,3517.0,26,R,9439565,9439695,132,479.7,1001.2,3896,NA
12,1,binary,26,1,trial,9438006.0,9441523.0,3517.0,26,R,9439757,9439965,210,515.9,542.8,3923,left
12,1,binary,26,1,trial,9438006.0,9441523.0,3517.0,26,R,9440027,9440161,136,1383.6,718.2,3693,right
12,1,binary,26,1,trial,9438006.0,9441523.0,3517.0,26,R,9440211,9440369,160,1444.3,982.3,3591,NA
12,1,binary,26,1,trial,9438006.0,9441523.0,3517.0,26,R,9440423,9440689,268,1445.6,473.9,3511,right
12,1,binary,26,1,trial,9438006.0,9441523.0,3517.0,26,R,9440765,9441019,256,436.5,555.2,3572,left
12,1,binary,26,1,trial,9438006.0,9441523.0,3517.0,26,R,9441039,9441441,404,495.7,563.3,3468,left
12,1,binary,26,1,trial,9438006.0,9441523.0,3517.0,26,R,9441481,9441787,308,488.2,928.4,3729,NA
12,1,binary,27,1,fixationCross,9442639.0,9444039.0,1400.0,27,R,9441969,9442331,364,1097.7,619.8,3903,NA
12,1,binary,27,1,trial,9442639.0,9444039.0,1400.0,27,R,9442357,9442801,446,945.3,558.3,3642,NA
12,1,binary,27,1,trial,9442639.0,9444039.0,1400.0,27,R,9442827,9442923,98,1096.7,545.5,3455,NA
12,1,binary,27,1,trial,9442639.0,9444039.0,1400.0,27,R,9442965,9443105,142,1376.9,542.5,3286,right
12,1,binary,27,1,trial,9442639.0,9444039.0,1400.0,27,R,9443129,9443295,168,1434.3,434.2,3128,right
12,1,binary,27,1,trial,9442639.0,9444039.0,1400.0,27,R,9443321,9443457,138,1433.1,544.0,3054,right
12,1,binary,27,1,trial,9442639.0,9444039.0,1400.0,27,R,9443523,9443773,252,548.8,645.2,3090,left
12,1,binary,27,1,postResponse,9442639.0,9444039.0,1400.0,27,R,9443793,9444387,596,473.7,665.5,3053,left
12,1,binary,28,1,fixationCross,9445156.0,9446089.0,933.0,28,R,9444463,9444625,164,480.2,656.1,2952,left
12,1,binary,28,1,fixationCross,9445156.0,9446089.0,933.0,28,R,9444667,9444865,200,778.1,568.9,2960,NA
12,1,binary,28,1,trial,9445156.0,9446089.0,933.0,28,R,9444893,9445321,430,957.8,548.7,3060,NA
12,1,binary,28,1,trial,9445156.0,9446089.0,933.0,28,R,9445365,9445551,188,1356.9,486.6,3095,right
12,1,binary,28,1,trial,9445156.0,9446089.0,933.0,28,R,9445617,9445835,220,528.2,569.5,3051,left
12,1,binary,28,1,trial,9445156.0,9446089.0,933.0,28,R,9445861,9446349,490,361.3,589.1,3003,left
12,1,binary,29,2,fixationCross,9447006.0,9447939.0,933.0,29,R,9446521,9446599,80,775.4,540.6,3001,NA
12,1,binary,29,2,trial,9447006.0,9447939.0,933.0,29,R,9446627,9447177,552,985.7,565.4,3270,NA
12,1,binary,29,2,trial,9447006.0,9447939.0,933.0,29,R,9447215,9447283,70,1260.6,534.2,3475,right
12,1,binary,29,2,trial,9447006.0,9447939.0,933.0,29,R,9447333,9447491,160,687.9,566.2,3435,left
12,1,binary,29,2,trial,9447006.0,9447939.0,933.0,29,R,9447513,9447627,116,572.8,588.1,3290,left
12,1,binary,29,2,trial,9447006.0,9447939.0,933.0,29,R,9447685,9447867,184,1335.5,674.9,3165,right
12,1,binary,29,2,postResponse,9447006.0,9447939.0,933.0,29,R,9447895,9448269,376,1430.9,614.3,3110,right
12,1,binary,30,1,fixationCross,9449340.0,9450006.0,666.0,30,R,9448391,9449061,672,794.4,553.9,3297,NA
12,1,binary,30,1,trial,9449340.0,9450006.0,666.0,30,R,9449085,9449519,436,951.1,555.8,3345,NA
12,1,binary,30,1,trial,9449340.0,9450006.0,666.0,30,R,9449561,9449703,144,633.4,517.8,3352,left
12,1,binary,30,1,trial,9449340.0,9450006.0,666.0,30,R,9449723,9449927,206,646.4,445.6,3149,left
12,1,binary,30,1,postResponse,9449340.0,9450006.0,666.0,30,R,9449987,9450327,342,1401.9,568.5,2932,right
12,1,binary,31,1,fixationCross,9450923.0,9452273.0,1350.0,31,R,9450447,9450591,146,1138.4,584.9,3131,NA
12,1,binary,31,1,fixationCross,9450923.0,9452273.0,1350.0,31,R,9450615,9450859,246,971.1,538.8,3428,NA
12,1,binary,31,1,trial,9450923.0,9452273.0,1350.0,31,R,9450875,9451091,218,935.7,562.2,3524,NA
12,1,binary,31,1,trial,9450923.0,9452273.0,1350.0,31,R,9451143,9451385,244,1416.4,493.7,3277,right
12,1,binary,31,1,trial,9450923.0,9452273.0,1350.0,31,R,9451457,9451655,200,491.2,522.8,3162,left
12,1,binary,31,1,trial,9450923.0,9452273.0,1350.0,31,R,9451677,9452287,612,509.1,409.4,2974,left
12,1,binary,31,1,postResponse,9450923.0,9452273.0,1350.0,31,R,9452313,9452619,308,521.3,513.9,2969,left
12,1,binary,32,2,fixationCross,9453373.0,9454239.0,866.0,32,R,9452695,9453061,368,737.8,507.1,3044,NA
12,1,binary,32,2,trial,9453373.0,9454239.0,866.0,32,R,9453085,9453603,520,941.8,552.2,3144,NA
12,1,binary,32,2,trial,9453373.0,9454239.0,866.0,32,R,9453647,9453817,172,561.5,602.7,3259,left
12,1,binary,32,2,trial,9453373.0,9454239.0,866.0,32,R,9453877,9454263,388,1385.4,612.0,2985,right
12,1,binary,32,2,postResponse,9453373.0,9454239.0,866.0,32,R,9454275,9454587,314,1395.7,645.4,2992,right
12,1,binary,33,1,fixationCross,9455289.0,9456239.0,950.0,33,R,9454669,9454709,42,1149.9,536.4,2976,NA
12,1,binary,33,1,trial,9455289.0,9456239.0,950.0,33,R,9454969,9455475,508,874.1,565.6,3264,NA
12,1,binary,33,1,trial,9455289.0,9456239.0,950.0,33,R,9455513,9455627,116,560.3,560.5,3311,left
12,1,binary,33,1,trial,9455289.0,9456239.0,950.0,33,R,9455739,9456439,702,476.1,580.6,3043,left
12,1,binary,33,1,postResponse,9455289.0,9456239.0,950.0,33,R,9456475,9456573,100,683.4,566.3,3091,left
12,1,binary,34,2,fixationCross,9457306.0,9458006.0,700.0,34,R,9456647,9457005,360,697.5,573.3,3299,left
12,1,binary,34,2,trial,9457306.0,9458006.0,700.0,34,R,9457033,9457477,446,939.1,542.2,3476,NA
12,1,binary,34,2,trial,9457306.0,9458006.0,700.0,34,R,9457521,9457695,176,1324.8,518.1,3365,right
12,1,binary,34,2,trial,9457306.0,9458006.0,700.0,34,R,9457717,9458053,338,1289.4,602.4,3130,right
12,1,binary,34,2,postResponse,9457306.0,9458006.0,700.0,34,R,9458113,9458355,244,650.8,598.5,3139,left
12,1,binary,35,1,fixationCross,9459173.0,9459872.0,699.0,35,R,9458627,9458849,224,1472.0,500.8,3300,right
12,1,binary,35,1,fixationCross,9459173.0,9459872.0,699.0,35,R,9458901,9459041,142,973.2,524.3,3586,NA
12,1,binary,35,1,trial,9459173.0,9459872.0,699.0,35,R,9459055,9459345,292,938.1,551.6,3522,NA
12,1,binary,35,1,trial,9459173.0,9459872.0,699.0,35,R,9459387,9459605,220,560.7,558.4,3365,left
12,1,binary,35,1,postResponse,9459173.0,9459872.0,699.0,35,R,9459617,9460225,610,527.5,582.0,2997,left
12,1,binary,36,2,fixationCross,9460956.0,9461806.0,850.0,36,R,9460299,9460627,330,543.6,580.7,3127,left
12,1,binary,36,2,trial,9460956.0,9461806.0,850.0,36,R,9460665,9461165,502,922.2,538.0,3291,NA
12,1,binary,36,2,trial,9460956.0,9461806.0,850.0,36,R,9461213,9461369,158,511.8,516.3,3353,left
12,1,binary,36,2,trial,9460956.0,9461806.0,850.0,36,R,9461433,9461885,454,1365.1,535.8,3130,right
12,1,binary,36,2,postResponse,9460956.0,9461806.0,850.0,36,R,9461901,9462139,240,1338.0,510.4,3238,right
12,1,binary,37,1,fixationCross,9462940.0,9463439.0,499.0,37,R,9462373,9462647,276,763.3,503.2,3486,NA
12,1,binary,37,1,trial,9462940.0,9463439.0,499.0,37,R,9462685,9463001,318,928.9,532.5,3680,NA
12,1,binary,37,1,trial,9462940.0,9463439.0,499.0,37,R,9463025,9463145,122,801.4,578.8,3539,NA
12,1,binary,37,1,postResponse,9462940.0,9463439.0,499.0,37,R,9463185,9463773,590,547.1,664.1,3376,left
12,1,binary,38,2,fixationCross,9464555.0,9465273.0,718.0,38,R,9463849,9464067,220,552.5,662.2,3380,left
12,1,binary,38,2,fixationCross,9464555.0,9465273.0,718.0,38,R,9464091,9464259,170,695.4,543.5,3545,left
12,1,binary,38,2,trial,9464555.0,9465273.0,718.0,38,R,9464295,9464785,492,963.4,549.3,3497,NA
12,1,binary,38,2,trial,9464555.0,9465273.0,718.0,38,R,9464831,9465291,462,1357.7,476.8,3273,right
12,1,binary,38,2,trial,9464555.0,9465273.0,718.0,38,R,9465313,9465521,210,1279.9,407.5,3109,right
12,1,binary,39,1,fixationCross,9466423.0,9467073.0,650.0,39,R,9465785,9466143,360,1070.0,542.3,3300,NA
12,1,binary,39,1,trial,9466423.0,9467073.0,650.0,39,R,9466169,9466577,410,907.4,548.5,3396,NA
12,1,binary,39,1,trial,9466423.0,9467073.0,650.0,39,R,9466615,9467083,470,578.1,542.5,3115,left
12,1,binary,39,1,postResponse,9466423.0,9467073.0,650.0,39,R,9467103,9467407,306,472.9,556.5,3056,left
12,1,binary,40,1,fixationCross,9468840.0,9469873.0,1033.0,40,R,9467647,9468557,912,1118.3,531.7,3308,NA
12,1,binary,40,1,fixationCross,9468840.0,9469873.0,1033.0,40,R,9468581,9468761,182,972.3,550.8,3335,NA
12,1,binary,40,1,trial,9468840.0,9469873.0,1033.0,40,R,9468775,9469003,230,934.6,559.4,3385,NA
12,1,binary,40,1,trial,9468840.0,9469873.0,1033.0,40,R,9469047,9469311,266,1417.4,511.6,3263,right
12,1,binary,40,1,trial,9468840.0,9469873.0,1033.0,40,R,9469379,9469789,412,557.1,576.1,3119,left
12,1,binary,40,1,trial,9468840.0,9469873.0,1033.0,40,R,9469813,9470121,310,438.6,526.7,3097,left
12,1,binary,41,1,fixationCross,9471023.0,9471806.0,783.0,41,R,9470307,9470733,428,753.7,507.3,3325,NA
12,1,binary,41,1,trial,9471023.0,9471806.0,783.0,41,R,9470759,9471191,434,938.7,545.8,3449,NA
12,1,binary,41,1,trial,9471023.0,9471806.0,783.0,41,R,9471237,9471623,388,519.9,552.7,3322,left
12,1,binary,41,1,trial,9471023.0,9471806.0,783.0,41,R,9471663,9471699,38,765.7,627.8,3181,NA
12,1,binary,41,1,trial,9471023.0,9471806.0,783.0,41,R,9471733,9471877,146,1062.4,586.4,3153,NA
12,1,binary,41,1,postResponse,9471023.0,9471806.0,783.0,41,R,9471927,9472155,230,561.6,578.7,3175,left
12,1,binary,42,1,fixationCross,9473140.0,9474206.0,1066.0,42,R,9472409,9472839,432,1099.2,512.0,3329,NA
12,1,binary,42,1,trial,9473140.0,9474206.0,1066.0,42,R,9472865,9473329,466,936.0,587.3,3240,NA
12,1,binary,42,1,trial,9473140.0,9474206.0,1066.0,42,R,9473375,9473531,158,524.2,535.7,3122,left
12,1,binary,42,1,trial,9473140.0,9474206.0,1066.0,42,R,9473595,9473783,190,1411.6,525.2,2953,right
12,1,binary,42,1,trial,9473140.0,9474206.0,1066.0,42,R,9473855,9474157,304,511.3,549.5,3047,left
12,1,binary,42,1,postResponse,9473140.0,9474206.0,1066.0,42,R,9474181,9474523,344,527.1,402.8,3017,left
12,1,binary,43,2,fixationCross,9475356.0,9476506.0,1150.0,43,R,9474845,9475055,212,1131.4,466.3,2983,NA
12,1,binary,43,2,trial,9475356.0,9476506.0,1150.0,43,R,9475081,9475515,436,966.3,537.2,3187,NA
12,1,binary,43,2,trial,9475356.0,9476506.0,1150.0,43,R,9475563,9475733,172,541.0,526.9,3177,left
12,1,binary,43,2,trial,9475356.0,9476506.0,1150.0,43,R,9475749,9475865,118,519.7,556.2,3065,left
12,1,binary,43,2,trial,9475356.0,9476506.0,1150.0,43,R,9475931,9476177,248,1472.7,534.1,2871,right
12,1,binary,43,2,postResponse,9475356.0,9476506.0,1150.0,43,R,9476193,9476855,664,1429.3,573.4,2935,right
12,1,binary,44,2,fixationCross,9479673.0,9480806.0,1133.0,44,R,9476929,9477075,148,1428.8,567.3,3013,right
12,1,binary,44,2,fixationCross,9479673.0,9480806.0,1133.0,44,R,9477129,9477343,216,1111.1,507.6,3051,NA
12,1,binary,44,2,fixationCross,9479673.0,9480806.0,1133.0,44,R,9477585,9478197,614,793.6,559.6,3098,NA
12,1,binary,44,2,fixationCross,9479673.0,9480806.0,1133.0,44,R,9478223,9478491,270,636.5,588.1,3084,left
12,1,binary,44,2,fixationCross,9479673.0,9480806.0,1133.0,44,R,9478515,9479141,628,530.2,521.3,3193,left
12,1,binary,44,2,fixationCross,9479673.0,9480806.0,1133.0,44,R,9479167,9479421,256,741.5,531.4,3256,NA
12,1,binary,44,2,trial,9479673.0,9480806.0,1133.0,44,R,9479445,9479905,462,897.3,566.0,3302,NA
12,1,binary,44,2,trial,9479673.0,9480806.0,1133.0,44,R,9479947,9480095,150,533.9,550.4,3322,left
12,1,binary,44,2,trial,9479673.0,9480806.0,1133.0,44,R,9480119,9480245,128,426.6,447.5,3191,left
12,1,binary,44,2,postResponse,9479673.0,9480806.0,1133.0,44,R,9480373,9481153,782,1424.7,582.2,2930,right
12,1,binary,45,1,fixationCross,9481956.0,9482757.0,801.0,45,R,9481253,9481445,194,1392.9,583.2,3042,right
12,1,binary,45,1,fixationCross,9481956.0,9482757.0,801.0,45,R,9481485,9481671,188,1133.0,561.0,3223,NA
12,1,binary,45,1,trial,9481956.0,9482757.0,801.0,45,R,9481699,9482157,460,952.2,543.6,3349,NA
12,1,binary,45,1,trial,9481956.0,9482757.0,801.0,45,R,9482177,9482261,86,1040.0,515.1,3459,NA
12,1,binary,45,1,postResponse,9481956.0,9482757.0,801.0,45,R,9482311,9483091,782,554.9,550.3,3126,left
12,1,binary,46,2,fixationCross,9483873.0,9484674.0,801.0,46,R,9483191,9483541,352,573.3,547.4,3030,left
12,1,binary,46,2,trial,9483873.0,9484674.0,801.0,46,R,9483599,9484045,448,1016.5,536.8,3149,NA
12,1,binary,46,2,trial,9483873.0,9484674.0,801.0,46,R,9484073,9484259,188,1272.8,492.7,3207,right
12,1,binary,46,2,trial,9483873.0,9484674.0,801.0,46,R,9484317,9484427,112,581.9,574.3,3163,left
12,1,binary,46,2,postResponse,9483873.0,9484674.0,801.0,46,R,9484485,9485019,536,1358.7,535.2,3121,right
12,1,binary,47,1,fixationCross,9485623.0,9486890.0,1267.0,47,R,9485341,9485561,222,1055.4,547.9,3225,NA
12,1,binary,47,1,trial,9485623.0,9486890.0,1267.0,47,R,9485583,9485779,198,913.4,571.3,3384,NA
12,1,binary,47,1,trial,9485623.0,9486890.0,1267.0,47,R,9485819,9486007,190,596.2,569.7,3310,left
12,1,binary,47,1,trial,9485623.0,9486890.0,1267.0,47,R,9486071,9486341,272,1425.5,581.5,2876,right
12,1,binary,47,1,trial,9485623.0,9486890.0,1267.0,47,R,9486359,9486487,130,1490.6,553.6,2728,right
12,1,binary,47,1,trial,9485623.0,9486890.0,1267.0,47,R,9486511,9486621,112,1353.4,528.1,2719,right
12,1,binary,47,1,postResponse,9485623.0,9486890.0,1267.0,47,R,9486687,9487223,538,600.6,567.0,2879,left
12,1,binary,48,1,fixationCross,9487989.0,9489306.0,1317.0,48,R,9487297,9487677,382,607.2,557.9,2988,left
12,1,binary,48,1,trial,9487989.0,9489306.0,1317.0,48,R,9487723,9488169,448,953.9,542.7,3033,NA
12,1,binary,48,1,trial,9487989.0,9489306.0,1317.0,48,R,9488213,9488483,272,588.8,593.0,3057,left
12,1,binary,48,1,trial,9487989.0,9489306.0,1317.0,48,R,9488541,9488841,302,1365.0,571.1,2817,right
12,1,binary,48,1,trial,9487989.0,9489306.0,1317.0,48,R,9488929,9489529,602,517.5,613.8,2839,left
12,1,binary,49,2,fixationCross,9490206.0,9491440.0,1234.0,49,R,9489753,9490151,400,946.1,511.9,3109,NA
12,1,binary,49,2,trial,9490206.0,9491440.0,1234.0,49,R,9490167,9490391,226,939.2,565.8,3336,NA
12,1,binary,49,2,trial,9490206.0,9491440.0,1234.0,49,R,9490421,9490655,236,641.9,588.7,3170,left
12,1,binary,49,2,trial,9490206.0,9491440.0,1234.0,49,R,9490679,9490927,250,481.0,571.7,2936,left
12,1,binary,49,2,trial,9490206.0,9491440.0,1234.0,49,R,9490947,9491089,144,476.6,495.9,2860,left
12,1,binary,49,2,trial,9490206.0,9491440.0,1234.0,49,R,9491117,9491221,106,512.4,589.8,2844,left
12,1,binary,49,2,postResponse,9490206.0,9491440.0,1234.0,49,R,9491285,9491775,492,1382.4,589.8,2908,right
12,1,binary,50,2,fixationCross,9492590.0,9493706.0,1116.0,50,R,9491875,9492041,168,1381.3,586.6,3317,right
12,1,binary,50,2,fixationCross,9492590.0,9493706.0,1116.0,50,R,9492073,9492265,194,1156.8,546.3,3498,NA
12,1,binary,50,2,trial,9492590.0,9493706.0,1116.0,50,R,9492293,9492761,470,948.1,564.7,3477,NA
12,1,binary,50,2,trial,9492590.0,9493706.0,1116.0,50,R,9492803,9493013,212,580.2,578.0,3437,left
12,1,binary,50,2,trial,9492590.0,9493706.0,1116.0,50,R,9493027,9493057,32,541.9,589.9,3281,left
12,1,binary,50,2,trial,9492590.0,9493706.0,1116.0,50,R,9493113,9493315,204,1294.2,564.3,3058,right
12,1,binary,50,2,postResponse,9492590.0,9493706.0,1116.0,50,R,9493337,9494053,718,1412.9,593.0,2857,right
12,2,continuous,1,77,fixationCross,9561107.0,9565974.0,4867.0,51,R,9560401,9560587,188,1299.7,523.6,3202,right
12,2,continuous,1,77,fixationCross,9561107.0,9565974.0,4867.0,51,R,9560627,9560805,180,1072.6,835.1,3458,likertHorizontal
12,2,continuous,1,77,fixationCross,9561107.0,9565974.0,4867.0,51,R,9560847,9560989,144,965.7,513.0,3515,NA
12,2,continuous,1,77,trial,9561107.0,9565974.0,4867.0,51,R,9561009,9561333,326,963.0,566.7,3663,NA
12,2,continuous,1,77,trial,9561107.0,9565974.0,4867.0,51,R,9561377,9561605,230,1325.0,529.9,3523,right
12,2,continuous,1,77,trial,9561107.0,9565974.0,4867.0,51,R,9561669,9561875,208,578.6,535.8,3272,left
12,2,continuous,1,77,trial,9561107.0,9565974.0,4867.0,51,R,9561923,9562055,134,835.5,995.1,3205,likertHorizontal
12,2,continuous,1,77,trial,9561107.0,9565974.0,4867.0,51,R,9562077,9562251,176,942.8,1005.8,3158,likertHorizontal
12,2,continuous,1,77,trial,9561107.0,9565974.0,4867.0,51,R,9562299,9562553,256,481.9,994.5,3189,NA
12,2,continuous,1,77,trial,9561107.0,9565974.0,4867.0,51,R,9562599,9562949,352,546.6,552.6,3229,left
12,2,continuous,1,77,trial,9561107.0,9565974.0,4867.0,51,R,9563013,9563227,216,1413.3,578.7,3088,right
12,2,continuous,1,77,trial,9561107.0,9565974.0,4867.0,51,R,9563269,9563407,140,1292.2,982.6,3031,NA
12,2,continuous,1,77,trial,9561107.0,9565974.0,4867.0,51,R,9563431,9563629,200,1445.0,995.1,3028,NA
12,2,continuous,1,77,trial,9561107.0,9565974.0,4867.0,51,R,9563695,9563809,116,568.4,976.4,3359,NA
12,2,continuous,1,77,trial,9561107.0,9565974.0,4867.0,51,R,9563829,9564095,268,492.5,1013.1,3537,NA
12,2,continuous,1,77,trial,9561107.0,9565974.0,4867.0,51,R,9564137,9564259,124,701.1,990.7,3615,NA
12,2,continuous,1,77,trial,9561107.0,9565974.0,4867.0,51,R,9564289,9564475,188,887.6,976.8,3505,likertHorizontal
12,2,continuous,1,77,trial,9561107.0,9565974.0,4867.0,51,R,9564531,9564851,322,1348.1,560.5,3390,right
12,2,continuous,1,77,trial,9561107.0,9565974.0,4867.0,51,R,9564871,9565155,286,1389.5,528.1,3302,right
12,2,continuous,1,77,trial,9561107.0,9565974.0,4867.0,51,R,9565217,9565585,370,635.4,553.2,3352,left
12,2,continuous,1,77,trial,9561107.0,9565974.0,4867.0,51,R,9565639,9565829,192,1193.3,927.4,3269,NA
12,2,continuous,1,77,trial,9561107.0,9565974.0,4867.0,51,R,9565847,9566015,170,1231.7,973.9,3144,NA
12,2,continuous,1,77,postResponse,9561107.0,9565974.0,4867.0,51,R,9566069,9566323,256,699.2,702.9,3265,left
12,2,continuous,2,36,fixationCross,9567058.0,9570908.0,3850.0,52,R,9566397,9566753,358,703.3,695.4,3414,left
12,2,continuous,2,36,fixationCross,9567058.0,9570908.0,3850.0,52,R,9566787,9566979,194,960.0,539.7,3414,NA
12,2,continuous,2,36,trial,9567058.0,9570908.0,3850.0,52,R,9566991,9567235,246,940.3,556.7,3391,NA
12,2,continuous,2,36,trial,9567058.0,9570908.0,3850.0,52,R,9567289,9567563,276,1393.6,494.3,3350,right
12,2,continuous,2,36,trial,9567058.0,9570908.0,3850.0,52,R,9567635,9567861,228,482.4,502.2,3292,left
12,2,continuous,2,36,trial,9567058.0,9570908.0,3850.0,52,R,9567943,9568091,150,764.0,1025.1,3211,likertHorizontal
12,2,continuous,2,36,trial,9567058.0,9570908.0,3850.0,52,R,9568133,9568297,166,465.2,1014.4,3171,NA
12,2,continuous,2,36,trial,9567058.0,9570908.0,3850.0,52,R,9568345,9568485,142,977.0,961.8,3270,likertHorizontal
12,2,continuous,2,36,trial,9567058.0,9570908.0,3850.0,52,R,9568505,9568603,100,909.0,972.5,3338,likertHorizontal
12,2,continuous,2,36,trial,9567058.0,9570908.0,3850.0,52,R,9568661,9568829,170,445.4,512.1,3294,left
12,2,continuous,2,36,trial,9567058.0,9570908.0,3850.0,52,R,9568847,9569007,162,397.0,550.1,3280,left
12,2,continuous,2,36,trial,9567058.0,9570908.0,3850.0,52,R,9569077,9569267,192,1483.9,522.7,3082,right
12,2,continuous,2,36,trial,9567058.0,9570908.0,3850.0,52,R,9569291,9569801,512,1440.1,591.2,3023,right
12,2,continuous,2,36,trial,9567058.0,9570908.0,3850.0,52,R,9569869,9570051,184,722.4,799.7,3196,NA
12,2,continuous,2,36,trial,9567058.0,9570908.0,3850.0,52,R,9570097,9570353,258,405.7,536.3,3188,left
12,2,continuous,2,36,trial,9567058.0,9570908.0,3850.0,52,R,9570369,9570653,286,375.6,568.7,3083,left
12,2,continuous,2,36,trial,9567058.0,9570908.0,3850.0,52,R,9570679,9570869,192,408.7,665.7,3001,left
12,2,continuous,2,36,postResponse,9567058.0,9570908.0,3850.0,52,R,9570915,9571255,342,769.4,977.4,2987,likertHorizontal
12,2,continuous,3,43,fixationCross,9572040.0,9576508.0,4468.0,53,R,9571329,9571723,396,775.9,974.8,3300,likertHorizontal
12,2,continuous,3,43,fixationCross,9572040.0,9576508.0,4468.0,53,R,9571777,9571973,198,981.1,590.8,3615,NA
12,2,continuous,3,43,trial,9572040.0,9576508.0,4468.0,53,R,9571987,9572287,302,949.0,566.5,3591,NA
12,2,continuous,3,43,trial,9572040.0,9576508.0,4468.0,53,R,9572333,9572573,242,584.5,552.7,3325,left
12,2,continuous,3,43,trial,9572040.0,9576508.0,4468.0,53,R,9572639,9572843,206,1437.2,487.9,3061,right
12,2,continuous,3,43,trial,9572040.0,9576508.0,4468.0,53,R,9572861,9573089,230,1489.5,490.1,2993,right
12,2,continuous,3,43,trial,9572040.0,9576508.0,4468.0,53,R,9573157,9573345,190,597.6,560.0,3091,left
12,2,continuous,3,43,trial,9572040.0,9576508.0,4468.0,53,R,9573393,9573517,126,785.0,992.9,3079,likertHorizontal
12,2,continuous,3,43,trial,9572040.0,9576508.0,4468.0,53,R,9573545,9573831,288,945.5,988.5,3075,likertHorizontal
12,2,continuous,3,43,trial,9572040.0,9576508.0,4468.0,53,R,9573887,9574031,146,1479.3,444.2,3066,right
12,2,continuous,3,43,trial,9572040.0,9576508.0,4468.0,53,R,9574049,9574201,154,1482.4,492.0,3129,right
12,2,continuous,3,43,trial,9572040.0,9576508.0,4468.0,53,R,9574227,9574359,134,1279.9,644.1,3138,right
12,2,continuous,3,43,trial,9572040.0,9576508.0,4468.0,53,R,9574423,9574901,480,575.7,544.5,3211,left
12,2,continuous,3,43,trial,9572040.0,9576508.0,4468.0,53,R,9574921,9575103,184,645.5,506.1,3066,left
12,2,continuous,3,43,trial,9572040.0,9576508.0,4468.0,53,R,9575159,9575301,144,1299.9,503.9,2950,right
12,2,continuous,3,43,trial,9572040.0,9576508.0,4468.0,53,R,9575325,9575559,236,1508.5,477.5,2919,right
12,2,continuous,3,43,trial,9572040.0,9576508.0,4468.0,53,R,9575577,9575747,172,1491.7,515.6,2910,right
12,2,continuous,3,43,trial,9572040.0,9576508.0,4468.0,53,R,9575777,9575931,156,1311.5,670.1,2909,right
12,2,continuous,3,43,trial,9572040.0,9576508.0,4468.0,53,R,9575991,9576551,562,683.4,664.8,3024,left
12,2,continuous,3,43,postResponse,9572040.0,9576508.0,4468.0,53,R,9576587,9576857,272,852.4,948.8,3044,likertHorizontal
12,2,continuous,4,63,fixationCross,9577624.0,9579891.0,2267.0,54,R,9576957,9577301,346,854.2,951.9,3216,likertHorizontal
12,2,continuous,4,63,trial,9577624.0,9579891.0,2267.0,54,R,9577347,9577801,456,961.5,550.2,3416,NA
12,2,continuous,4,63,trial,9577624.0,9579891.0,2267.0,54,R,9577845,9578111,268,572.1,545.4,3237,left
12,2,continuous,4,63,trial,9577624.0,9579891.0,2267.0,54,R,9578173,9578807,636,1400.6,585.6,2838,right
12,2,continuous,4,63,trial,9577624.0,9579891.0,2267.0,54,R,9578827,9579221,396,1288.2,613.2,2884,right
12,2,continuous,4,63,trial,9577624.0,9579891.0,2267.0,54,R,9579273,9579409,138,1149.3,900.8,2918,likertHorizontal
12,2,continuous,4,63,trial,9577624.0,9579891.0,2267.0,54,R,9579427,9579561,136,1071.7,935.5,2917,likertHorizontal
12,2,continuous,4,63,postResponse,9577624.0,9579891.0,2267.0,54,R,9579579,9580225,648,1040.4,980.5,3016,likertHorizontal
12,2,continuous,5,32,fixationCross,9580991.0,9586141.0,5150.0,55,R,9580365,9580675,312,1091.2,661.2,3323,NA
12,2,continuous,5,32,trial,9580991.0,9586141.0,5150.0,55,R,9580701,9581157,458,946.9,547.4,3232,NA
12,2,continuous,5,32,trial,9580991.0,9586141.0,5150.0,55,R,9581199,9581345,148,582.2,553.9,3210,left
12,2,continuous,5,32,trial,9580991.0,9586141.0,5150.0,55,R,9581363,9581509,148,656.1,580.0,3105,left
12,2,continuous,5,32,trial,9580991.0,9586141.0,5150.0,55,R,9581565,9581847,284,1385.6,509.5,2893,right
12,2,continuous,5,32,trial,9580991.0,9586141.0,5150.0,55,R,9581865,9582187,324,1428.7,566.4,2890,right
12,2,continuous,5,32,trial,9580991.0,9586141.0,5150.0,55,R,9582201,9582395,196,1386.1,581.4,2883,right
12,2,continuous,5,32,trial,9580991.0,9586141.0,5150.0,55,R,9582479,9582939,462,933.8,979.5,2967,likertHorizontal
12,2,continuous,5,32,trial,9580991.0,9586141.0,5150.0,55,R,9582987,9583125,140,1416.7,963.1,2907,NA
12,2,continuous,5,32,trial,9580991.0,9586141.0,5150.0,55,R,9583171,9583381,212,1470.4,519.1,3052,right
12,2,continuous,5,32,trial,9580991.0,9586141.0,5150.0,55,R,9583399,9583581,184,1397.5,555.0,3033,right
12,2,continuous,5,32,trial,9580991.0,9586141.0,5150.0,55,R,9583599,9583825,228,1431.6,606.0,2937,right
12,2,continuous,5,32,trial,9580991.0,9586141.0,5150.0,55,R,9583891,9584371,482,643.3,580.3,2960,left
12,2,continuous,5,32,trial,9580991.0,9586141.0,5150.0,55,R,9584427,9585217,792,946.7,977.2,3046,likertHorizontal
12,2,continuous,5,32,trial,9580991.0,9586141.0,5150.0,55,R,9585247,9585409,164,743.5,907.6,3374,likertHorizontal
12,2,continuous,5,32,trial,9580991.0,9586141.0,5150.0,55,R,9585457,9585711,256,627.9,598.3,3344,left
12,2,continuous,5,32,trial,9580991.0,9586141.0,5150.0,55,R,9585725,9585865,142,648.0,578.7,3198,left
12,2,continuous,5,32,trial,9580991.0,9586141.0,5150.0,55,R,9585911,9586085,176,416.5,473.4,3087,left
12,2,continuous,5,32,trial,9580991.0,9586141.0,5150.0,55,R,9586097,9586429,334,441.5,463.4,2998,left
12,2,continuous,6,46,fixationCross,9587224.0,9589457.0,2233.0,56,R,9586647,9586911,266,1129.3,494.6,2922,NA
12,2,continuous,6,46,fixationCross,9587224.0,9589457.0,2233.0,56,R,9586939,9587141,204,960.4,594.1,3145,NA
12,2,continuous,6,46,trial,9587224.0,9589457.0,2233.0,56,R,9587153,9587385,234,943.6,562.2,3162,NA
12,2,continuous,6,46,trial,9587224.0,9589457.0,2233.0,56,R,9587427,9587627,202,599.7,513.0,3062,left
12,2,continuous,6,46,trial,9587224.0,9589457.0,2233.0,56,R,9587689,9587861,174,1407.3,524.5,2795,right
12,2,continuous,6,46,trial,9587224.0,9589457.0,2233.0,56,R,9587883,9588025,144,1527.9,524.4,2720,right
12,2,continuous,6,46,trial,9587224.0,9589457.0,2233.0,56,R,9588097,9588301,206,575.9,495.3,2789,left
12,2,continuous,6,46,trial,9587224.0,9589457.0,2233.0,56,R,9588317,9588469,154,607.3,455.9,2813,left
12,2,continuous,6,46,trial,9587224.0,9589457.0,2233.0,56,R,9588513,9588749,238,316.7,486.9,2883,left
12,2,continuous,6,46,trial,9587224.0,9589457.0,2233.0,56,R,9588757,9589015,260,338.0,492.0,2873,left
12,2,continuous,6,46,trial,9587224.0,9589457.0,2233.0,56,R,9589043,9589299,258,345.0,628.9,2852,left
12,2,continuous,6,46,trial,9587224.0,9589457.0,2233.0,56,R,9589349,9589417,70,505.4,922.3,2853,NA
12,2,continuous,6,46,postResponse,9587224.0,9589457.0,2233.0,56,R,9589481,9589805,326,1405.9,536.6,2790,right
12,2,continuous,7,78,fixationCross,9591291.0,9598241.0,6950.0,57,R,9590079,9590981,904,821.2,576.0,3162,NA
12,2,continuous,7,78,fixationCross,9591291.0,9598241.0,6950.0,57,R,9591005,9591175,172,1005.4,521.7,3008,NA
12,2,continuous,7,78,trial,9591291.0,9598241.0,6950.0,57,R,9591195,9591437,244,937.8,544.3,3029,NA
12,2,continuous,7,78,trial,9591291.0,9598241.0,6950.0,57,R,9591483,9591617,136,545.4,520.4,3050,left
12,2,continuous,7,78,trial,9591291.0,9598241.0,6950.0,57,R,9591639,9591821,184,559.3,581.4,2961,left
12,2,continuous,7,78,trial,9591291.0,9598241.0,6950.0,57,R,9591885,9592049,166,1392.0,581.4,2751,right
12,2,continuous,7,78,trial,9591291.0,9598241.0,6950.0,57,R,9592069,9592301,234,1326.9,623.4,2735,right
12,2,continuous,7,78,trial,9591291.0,9598241.0,6950.0,57,R,9592325,9592573,250,1535.0,607.3,2634,right
12,2,continuous,7,78,trial,9591291.0,9598241.0,6950.0,57,R,9592609,9592831,224,1300.4,571.7,2652,right
12,2,continuous,7,78,trial,9591291.0,9598241.0,6950.0,57,R,9592889,9593045,158,641.8,553.7,2810,left
12,2,continuous,7,78,trial,9591291.0,9598241.0,6950.0,57,R,9593065,9593279,216,560.2,574.6,2896,left
12,2,continuous,7,78,trial,9591291.0,9598241.0,6950.0,57,R,9593309,9593543,236,442.5,469.4,2951,left
12,2,continuous,7,78,trial,9591291.0,9598241.0,6950.0,57,R,9593571,9593897,328,539.0,585.7,2939,left
12,2,continuous,7,78,trial,9591291.0,9598241.0,6950.0,57,R,9593913,9595237,1326,476.8,554.7,2903,left
12,2,continuous,7,78,trial,9591291.0,9598241.0,6950.0,57,R,9595247,9595967,722,473.5,566.9,2978,left
12,2,continuous,7,78,trial,9591291.0,9598241.0,6950.0,57,R,9595981,9596117,138,524.6,567.5,3021,left
12,2,continuous,7,78,trial,9591291.0,9598241.0,6950.0,57,R,9596129,9596415,288,551.7,579.0,2983,left
12,2,continuous,7,78,trial,9591291.0,9598241.0,6950.0,57,R,9596431,9596729,300,484.5,550.1,2884,left
12,2,continuous,7,78,trial,9591291.0,9598241.0,6950.0,57,R,9596739,9597469,732,472.7,556.9,2879,left
12,2,continuous,7,78,trial,9591291.0,9598241.0,6950.0,57,R,9597487,9597655,170,426.8,508.2,2877,left
12,2,continuous,7,78,trial,9591291.0,9598241.0,6950.0,57,R,9597675,9597955,282,485.2,549.5,2912,left
12,2,continuous,7,78,trial,9591291.0,9598241.0,6950.0,57,R,9597965,9598245,282,467.9,559.6,2938,left
12,2,continuous,7,78,postResponse,9591291.0,9598241.0,6950.0,57,R,9598269,9598577,310,387.6,505.7,2931,left
12,2,continuous,8,23,fixationCross,9599175.0,9602291.0,3116.0,58,R,9598799,9599059,262,939.4,454.1,3082,NA
12,2,continuous,8,23,trial,9599175.0,9602291.0,3116.0,58,R,9599083,9599353,272,945.0,561.4,3319,NA
12,2,continuous,8,23,trial,9599175.0,9602291.0,3116.0,58,R,9599395,9599585,192,585.5,538.5,3244,left
12,2,continuous,8,23,trial,9599175.0,9602291.0,3116.0,58,R,9599597,9599783,188,556.3,523.3,2958,left
12,2,continuous,8,23,trial,9599175.0,9602291.0,3116.0,58,R,9599845,9600115,272,1401.7,525.5,2721,right
12,2,continuous,8,23,trial,9599175.0,9602291.0,3116.0,58,R,9600129,9600291,164,1419.4,568.9,2684,right
12,2,continuous,8,23,trial,9599175.0,9602291.0,3116.0,58,R,9600371,9600605,236,574.8,553.4,2826,left
12,2,continuous,8,23,trial,9599175.0,9602291.0,3116.0,58,R,9600629,9601033,406,499.2,628.4,2956,left
12,2,continuous,8,23,trial,9599175.0,9602291.0,3116.0,58,R,9601053,9601211,160,450.3,547.3,3123,left
12,2,continuous,8,23,trial,9599175.0,9602291.0,3116.0,58,R,9601233,9601483,252,522.6,484.5,3113,left
12,2,continuous,8,23,trial,9599175.0,9602291.0,3116.0,58,R,9601529,9601903,376,391.1,645.5,3106,left
12,2,continuous,8,23,trial,9599175.0,9602291.0,3116.0,58,R,9601925,9602231,308,508.3,609.1,3178,left
12,2,continuous,8,23,trial,9599175.0,9602291.0,3116.0,58,R,9602255,9602567,314,565.9,533.1,3140,left
12,2,continuous,9,55,fixationCross,9603491.0,9606291.0,2800.0,59,R,9602731,9602839,110,1191.7,577.3,2997,right
12,2,continuous,9,55,fixationCross,9603491.0,9606291.0,2800.0,59,R,9602895,9603157,264,934.3,868.7,3199,likertHorizontal
12,2,continuous,9,55,trial,9603491.0,9606291.0,2800.0,59,R,9603205,9603675,472,946.3,540.8,3297,NA
12,2,continuous,9,55,trial,9603491.0,9606291.0,2800.0,59,R,9603723,9603985,264,562.6,559.5,3091,left
12,2,continuous,9,55,trial,9603491.0,9606291.0,2800.0,59,R,9604005,9604073,70,571.1,488.6,2928,left
12,2,continuous,9,55,trial,9603491.0,9606291.0,2800.0,59,R,9604137,9604435,300,1432.8,580.0,2758,right
12,2,continuous,9,55,trial,9603491.0,9606291.0,2800.0,59,R,9604455,9605093,640,1381.6,556.8,2672,right
12,2,continuous,9,55,trial,9603491.0,9606291.0,2800.0,59,R,9605155,9605443,290,1046.9,974.1,2721,likertHorizontal
12,2,continuous,9,55,trial,9603491.0,9606291.0,2800.0,59,R,9605455,9606567,1114,992.6,995.5,3097,likertHorizontal
12,2,continuous,10,100,fixationCross,9607508.0,9611658.0,4150.0,60,R,9606739,9606877,140,1235.1,457.4,3347,right
12,2,continuous,10,100,fixationCross,9607508.0,9611658.0,4150.0,60,R,9607041,9607199,160,1179.9,527.1,3541,NA
12,2,continuous,10,100,fixationCross,9607508.0,9611658.0,4150.0,60,R,9607225,9607375,152,991.5,557.9,3680,NA
12,2,continuous,10,100,trial,9607508.0,9611658.0,4150.0,60,R,9607389,9607689,302,947.6,564.0,3620,NA
12,2,continuous,10,100,trial,9607508.0,9611658.0,4150.0,60,R,9607735,9607993,260,501.0,556.1,3289,left
12,2,continuous,10,100,trial,9607508.0,9611658.0,4150.0,60,R,9608059,9608313,256,1367.3,507.3,3024,right
12,2,continuous,10,100,trial,9607508.0,9611658.0,4150.0,60,R,9608381,9608615,236,473.0,574.3,3082,left
12,2,continuous,10,100,trial,9607508.0,9611658.0,4150.0,60,R,9608681,9608855,176,1269.3,919.0,3118,NA
12,2,continuous,10,100,trial,9607508.0,9611658.0,4150.0,60,R,9608901,9609089,190,1468.8,500.0,3136,right
12,2,continuous,10,100,trial,9607508.0,9611658.0,4150.0,60,R,9609113,9609585,474,1486.7,539.3,3228,right
12,2,continuous,10,100,trial,9607508.0,9611658.0,4150.0,60,R,9609665,9609885,222,463.6,556.8,3342,left
12,2,continuous,10,100,trial,9607508.0,9611658.0,4150.0,60,R,9609901,9610475,576,379.4,531.0,3088,left
12,2,continuous,10,100,trial,9607508.0,9611658.0,4150.0,60,R,9610549,9610675,128,1328.4,870.2,2783,NA
12,2,continuous,10,100,trial,9607508.0,9611658.0,4150.0,60,R,9610701,9610885,186,1401.3,953.4,2786,NA
12,2,continuous,10,100,trial,9607508.0,9611658.0,4150.0,60,R,9610905,9611169,266,1469.1,994.4,2961,NA
12,2,continuous,10,100,trial,9607508.0,9611658.0,4150.0,60,R,9611183,9611567,386,1445.9,965.7,3288,NA
12,2,continuous,10,100,postResponse,9607508.0,9611658.0,4150.0,60,R,9611609,9611989,382,1443.4,696.9,3379,right
12,2,continuous,11,26,fixationCross,9612774.0,9616892.0,4118.0,61,R,9612233,9612463,232,1137.6,597.1,3758,NA
12,2,continuous,11,26,trial,9612774.0,9616892.0,4118.0,61,R,9612487,9613011,526,960.0,559.8,3775,NA
12,2,continuous,11,26,trial,9612774.0,9616892.0,4118.0,61,R,9613061,9613319,260,479.1,588.6,3357,left
12,2,continuous,11,26,trial,9612774.0,9616892.0,4118.0,61,R,9613387,9613709,324,1450.9,556.1,3004,right
12,2,continuous,11,26,trial,9612774.0,9616892.0,4118.0,61,R,9613729,9613969,242,1385.3,621.9,2935,right
12,2,continuous,11,26,trial,9612774.0,9616892.0,4118.0,61,R,9614105,9614377,274,426.5,618.6,3074,left
12,2,continuous,11,26,trial,9612774.0,9616892.0,4118.0,61,R,9614397,9614691,296,484.4,592.1,3087,left
12,2,continuous,11,26,trial,9612774.0,9616892.0,4118.0,61,R,9614705,9614953,250,468.9,554.1,2933,left
12,2,continuous,11,26,trial,9612774.0,9616892.0,4118.0,61,R,9615017,9615257,242,1403.4,539.2,2757,right
12,2,continuous,11,26,trial,9612774.0,9616892.0,4118.0,61,R,9615277,9615523,248,1429.7,611.2,2726,right
12,2,continuous,11,26,trial,9612774.0,9616892.0,4118.0,61,R,9615537,9615793,258,1396.7,636.5,2718,right
12,2,continuous,11,26,trial,9612774.0,9616892.0,4118.0,61,R,9615865,9616529,666,475.4,561.8,2805,left
12,2,continuous,11,26,trial,9612774.0,9616892.0,4118.0,61,R,9616551,9616883,334,364.7,446.9,2767,left
12,2,continuous,11,26,postResponse,9612774.0,9616892.0,4118.0,61,R,9616943,9617239,298,739.0,937.0,2744,likertHorizontal
12,2,continuous,12,37,fixationCross,9617975.0,9620974.0,2999.0,62,R,9617489,9617687,200,1015.2,424.7,3068,NA
12,2,continuous,12,37,trial,9617975.0,9620974.0,2999.0,62,R,9617719,9618143,426,962.3,544.9,3325,NA
12,2,continuous,12,37,trial,9617975.0,9620974.0,2999.0,62,R,9618189,9618449,262,523.2,534.4,3097,left
12,2,continuous,12,37,trial,9617975.0,9620974.0,2999.0,62,R,9618473,9618637,166,412.5,463.9,2920,left
12,2,continuous,12,37,trial,9617975.0,9620974.0,2999.0,62,R,9618653,9619229,578,406.8,417.4,2826,left
12,2,continuous,12,37,trial,9617975.0,9620974.0,2999.0,62,R,9619305,9619461,158,1397.4,495.2,2675,right
12,2,continuous,12,37,trial,9617975.0,9620974.0,2999.0,62,R,9619481,9619835,356,1478.3,528.2,2648,right
12,2,continuous,12,37,trial,9617975.0,9620974.0,2999.0,62,R,9619857,9620031,176,1479.7,611.9,2680,right
12,2,continuous,12,37,trial,9617975.0,9620974.0,2999.0,62,R,9620091,9620503,414,929.1,965.4,2874,likertHorizontal
12,2,continuous,12,37,trial,9617975.0,9620974.0,2999.0,62,R,9620577,9620791,216,443.9,537.3,3021,left
12,2,continuous,12,37,trial,9617975.0,9620974.0,2999.0,62,R,9620813,9621263,452,418.2,423.8,3016,left
12,2,continuous,13,24,fixationCross,9622324.0,9625625.0,3301.0,63,R,9621503,9621805,304,518.3,362.8,2932,left
12,2,continuous,13,24,fixationCross,9622324.0,9625625.0,3301.0,63,R,9621851,9622047,198,849.7,494.0,3108,NA
12,2,continuous,13,24,trial,9622324.0,9625625.0,3301.0,63,R,9622071,9622491,422,958.8,565.9,3026,NA
12,2,continuous,13,24,trial,9622324.0,9625625.0,3301.0,63,R,9622539,9622765,228,486.8,538.7,3032,left
12,2,continuous,13,24,trial,9622324.0,9625625.0,3301.0,63,R,9622831,9623157,328,1438.5,506.2,2728,right
12,2,continuous,13,24,trial,9622324.0,9625625.0,3301.0,63,R,9623169,9623389,222,1450.3,479.8,2646,right
12,2,continuous,13,24,trial,9622324.0,9625625.0,3301.0,63,R,9623415,9623781,368,1576.2,555.8,2606,right
12,2,continuous,13,24,trial,9622324.0,9625625.0,3301.0,63,R,9623855,9624083,230,809.3,711.5,2788,NA
12,2,continuous,13,24,trial,9622324.0,9625625.0,3301.0,63,R,9624129,9624487,360,511.4,588.8,2909,left
12,2,continuous,13,24,trial,9622324.0,9625625.0,3301.0,63,R,9624539,9624669,132,690.5,916.3,3145,NA
12,2,continuous,13,24,trial,9622324.0,9625625.0,3301.0,63,R,9624693,9625231,540,762.9,979.0,3241,likertHorizontal
12,2,continuous,13,24,trial,9622324.0,9625625.0,3301.0,63,R,9625251,9625605,356,622.8,966.4,3403,NA
12,2,continuous,13,24,trial,9622324.0,9625625.0,3301.0,63,R,9625655,9625825,172,563.4,636.8,3458,left
12,2,continuous,13,24,postResponse,9622324.0,9625625.0,3301.0,63,R,9625951,9625975,26,2022.7,424.6,3151,NA
12,2,continuous,14,70,fixationCross,9626908.0,9629626.0,2718.0,64,R,9626051,9626207,158,2020.1,431.6,3132,NA
12,2,continuous,14,70,fixationCross,9626908.0,9629626.0,2718.0,64,R,9626383,9626597,216,1295.4,423.0,3209,right
12,2,continuous,14,70,trial,9626908.0,9629626.0,2718.0,64,R,9626643,9627071,430,981.6,548.5,3371,NA
12,2,continuous,14,70,trial,9626908.0,9629626.0,2718.0,64,R,9627113,9627307,196,1383.8,503.9,3173,right
12,2,continuous,14,70,trial,9626908.0,9629626.0,2718.0,64,R,9627323,9627615,294,1328.2,498.5,3009,right
12,2,continuous,14,70,trial,9626908.0,9629626.0,2718.0,64,R,9627671,9627939,270,688.7,528.3,3146,left
12,2,continuous,14,70,trial,9626908.0,9629626.0,2718.0,64,R,9627959,9628125,168,605.4,556.0,3186,left
12,2,continuous,14,70,trial,9626908.0,9629626.0,2718.0,64,R,9628189,9628685,498,1343.7,515.8,3004,right
12,2,continuous,14,70,trial,9626908.0,9629626.0,2718.0,64,R,9628747,9628861,116,1100.5,938.5,2907,likertHorizontal
12,2,continuous,14,70,trial,9626908.0,9629626.0,2718.0,64,R,9628921,9629119,200,574.6,545.7,2942,left
12,2,continuous,14,70,trial,9626908.0,9629626.0,2718.0,64,R,9629155,9629431,278,364.9,544.2,2955,left
12,2,continuous,14,70,trial,9626908.0,9629626.0,2718.0,64,R,9629465,9629625,162,697.1,548.3,2923,left
12,2,continuous,14,70,postResponse,9626908.0,9629626.0,2718.0,64,R,9629699,9629975,278,1224.4,1033.2,2772,NA
12,2,continuous,15,30,fixationCross,9630774.0,9632658.0,1884.0,65,R,9630255,9630475,222,1066.3,560.4,3123,NA
12,2,continuous,15,30,fixationCross,9630774.0,9632658.0,1884.0,65,R,9630499,9630765,268,932.9,584.7,3245,NA
12,2,continuous,15,30,trial,9630774.0,9632658.0,1884.0,65,R,9630781,9630951,172,957.3,559.1,3151,NA
12,2,continuous,15,30,trial,9630774.0,9632658.0,1884.0,65,R,9630995,9631157,164,531.3,529.6,3038,left
12,2,continuous,15,30,trial,9630774.0,9632658.0,1884.0,65,R,9631181,9631381,202,412.6,492.5,2844,left
12,2,continuous,15,30,trial,9630774.0,9632658.0,1884.0,65,R,9631451,9632081,632,1411.7,577.5,2626,right
12,2,continuous,15,30,trial,9630774.0,9632658.0,1884.0,65,R,9632103,9632281,180,1363.5,645.0,2599,right
12,2,continuous,15,30,trial,9630774.0,9632658.0,1884.0,65,R,9632343,9632599,258,743.8,948.3,2712,likertHorizontal
12,2,continuous,15,30,trial,9630774.0,9632658.0,1884.0,65,R,9632651,9632923,274,409.5,513.2,2740,left
12,2,continuous,16,58,fixationCross,9633775.0,9639308.0,5533.0,66,R,9633173,9633457,286,827.2,413.9,2779,NA
12,2,continuous,16,58,trial,9633775.0,9639308.0,5533.0,66,R,9633497,9633943,448,926.0,572.8,2863,NA
12,2,continuous,16,58,trial,9633775.0,9639308.0,5533.0,66,R,9633985,9634209,226,553.7,539.0,2872,left
12,2,continuous,16,58,trial,9633775.0,9639308.0,5533.0,66,R,9634267,9634565,300,1350.8,547.5,2812,right
12,2,continuous,16,58,trial,9633775.0,9639308.0,5533.0,66,R,9634587,9634943,358,1439.1,568.0,2918,right
12,2,continuous,16,58,trial,9633775.0,9639308.0,5533.0,66,R,9635007,9635129,124,642.8,560.4,3085,left
12,2,continuous,16,58,trial,9633775.0,9639308.0,5533.0,66,R,9635193,9635439,248,1486.9,557.6,2991,right
12,2,continuous,16,58,trial,9633775.0,9639308.0,5533.0,66,R,9635463,9635795,334,1563.8,603.5,2972,right
12,2,continuous,16,58,trial,9633775.0,9639308.0,5533.0,66,R,9635855,9636039,186,1032.9,993.9,3132,likertHorizontal
12,2,continuous,16,58,trial,9633775.0,9639308.0,5533.0,66,R,9636101,9636377,278,557.6,546.0,3190,left
12,2,continuous,16,58,trial,9633775.0,9639308.0,5533.0,66,R,9636447,9636651,206,1460.0,542.4,3031,right
12,2,continuous,16,58,trial,9633775.0,9639308.0,5533.0,66,R,9636675,9637033,360,1542.9,606.5,2901,right
12,2,continuous,16,58,trial,9633775.0,9639308.0,5533.0,66,R,9637045,9637143,100,1579.2,575.8,2827,right
12,2,continuous,16,58,trial,9633775.0,9639308.0,5533.0,66,R,9637167,9637569,404,1585.9,477.3,2817,right
12,2,continuous,16,58,trial,9633775.0,9639308.0,5533.0,66,R,9637605,9637841,238,1361.2,464.7,2892,right
12,2,continuous,16,58,trial,9633775.0,9639308.0,5533.0,66,R,9637861,9638085,226,1371.8,522.3,2891,right
12,2,continuous,16,58,trial,9633775.0,9639308.0,5533.0,66,R,9638151,9638611,462,626.6,572.9,2981,left
12,2,continuous,16,58,trial,9633775.0,9639308.0,5533.0,66,R,9638645,9638871,228,463.5,557.1,3068,left
12,2,continuous,16,58,trial,9633775.0,9639308.0,5533.0,66,R,9638935,9639093,160,1077.1,983.4,3013,likertHorizontal
12,2,continuous,16,58,postResponse,9633775.0,9639308.0,5533.0,66,R,9639111,9639625,516,1016.4,991.7,3074,likertHorizontal
12,2,continuous,17,96,fixationCross,9640425.0,9642308.0,1883.0,67,R,9639859,9640125,268,1041.1,420.1,3528,NA
12,2,continuous,17,96,trial,9640425.0,9642308.0,1883.0,67,R,9640147,9640591,446,940.3,542.3,3492,NA
12,2,continuous,17,96,trial,9640425.0,9642308.0,1883.0,67,R,9640635,9640879,246,533.0,524.6,3223,left
12,2,continuous,17,96,trial,9640425.0,9642308.0,1883.0,67,R,9640941,9641373,434,1392.2,551.8,2929,right
12,2,continuous,17,96,trial,9640425.0,9642308.0,1883.0,67,R,9641427,9641651,226,1211.2,951.2,3144,NA
12,2,continuous,17,96,trial,9640425.0,9642308.0,1883.0,67,R,9641719,9642017,300,491.3,581.2,3534,left
12,2,continuous,17,96,trial,9640425.0,9642308.0,1883.0,67,R,9642041,9642241,202,574.5,519.8,3401,left
12,2,continuous,17,96,postResponse,9640425.0,9642308.0,1883.0,67,R,9642319,9642643,326,1448.0,944.8,2983,NA
12,2,continuous,18,15,fixationCross,9643491.0,9645575.0,2084.0,68,R,9642717,9642955,240,1438.5,944.5,3149,NA
12,2,continuous,18,15,fixationCross,9643491.0,9645575.0,2084.0,68,R,9643033,9643177,146,1157.8,590.4,3511,NA
12,2,continuous,18,15,trial,9643491.0,9645575.0,2084.0,68,R,9643203,9643655,454,932.6,537.8,3434,NA
12,2,continuous,18,15,trial,9643491.0,9645575.0,2084.0,68,R,9643699,9643915,218,541.0,522.9,3262,left
12,2,continuous,18,15,trial,9643491.0,9645575.0,2084.0,68,R,9643979,9644251,274,1416.1,572.6,2927,right
12,2,continuous,18,15,trial,9643491.0,9645575.0,2084.0,68,R,9644267,9644473,208,1462.9,610.1,2818,right
12,2,continuous,18,15,trial,9643491.0,9645575.0,2084.0,68,R,9644511,9644641,132,1315.7,446.2,2813,right
12,2,continuous,18,15,trial,9643491.0,9645575.0,2084.0,68,R,9644701,9644913,214,582.7,554.5,2848,left
12,2,continuous,18,15,trial,9643491.0,9645575.0,2084.0,68,R,9644937,9645335,400,441.2,619.3,2812,left
12,2,continuous,18,15,trial,9643491.0,9645575.0,2084.0,68,R,9645373,9645545,174,528.6,892.2,2769,NA
12,2,continuous,18,15,trial,9643491.0,9645575.0,2084.0,68,R,9645565,9645825,262,563.1,980.2,2770,NA
12,2,continuous,19,50,fixationCross,9646708.0,9648309.0,1601.0,69,R,9646095,9646409,316,1199.5,439.2,3094,right
12,2,continuous,19,50,trial,9646708.0,9648309.0,1601.0,69,R,9646453,9646873,422,954.6,569.7,3262,NA
12,2,continuous,19,50,trial,9646708.0,9648309.0,1601.0,69,R,9646915,9647085,172,580.9,532.8,3049,left
12,2,continuous,19,50,trial,9646708.0,9648309.0,1601.0,69,R,9647109,9647251,144,470.1,568.3,2920,left
12,2,continuous,19,50,trial,9646708.0,9648309.0,1601.0,69,R,9647279,9647523,246,596.0,436.2,2829,left
12,2,continuous,19,50,trial,9646708.0,9648309.0,1601.0,69,R,9647585,9647825,242,1384.8,580.0,2691,right
12,2,continuous,19,50,trial,9646708.0,9648309.0,1601.0,69,R,9647845,9648135,292,1450.4,590.3,2700,right
12,2,continuous,19,50,trial,9646708.0,9648309.0,1601.0,69,R,9648203,9648543,342,598.6,542.5,2948,left
12,2,continuous,20,50,trial,9649242.0,9651758.0,2516.0,70,R,9648777,9649393,618,880.7,549.0,3112,NA
12,2,continuous,20,50,trial,9649242.0,9651758.0,2516.0,70,R,9649433,9649633,202,565.3,531.0,3091,left
12,2,continuous,20,50,trial,9649242.0,9651758.0,2516.0,70,R,9649657,9649679,24,503.7,572.3,2973,left
12,2,continuous,20,50,trial,9649242.0,9651758.0,2516.0,70,R,9649737,9649913,178,1291.3,573.6,2790,right
12,2,continuous,20,50,trial,9649242.0,9651758.0,2516.0,70,R,9649937,9650205,270,1426.2,556.2,2729,right
12,2,continuous,20,50,trial,9649242.0,9651758.0,2516.0,70,R,9650221,9650487,268,1461.7,531.4,2735,right
12,2,continuous,20,50,trial,9649242.0,9651758.0,2516.0,70,R,9650505,9650935,432,1424.0,590.6,2765,right
12,2,continuous,20,50,trial,9649242.0,9651758.0,2516.0,70,R,9650959,9651117,160,1452.8,503.8,2833,right
12,2,continuous,20,50,trial,9649242.0,9651758.0,2516.0,70,R,9651193,9651319,128,509.6,617.2,2980,left
12,2,continuous,20,50,trial,9649242.0,9651758.0,2516.0,70,R,9651355,9651525,172,297.7,652.3,2972,left
12,2,continuous,20,50,postResponse,9649242.0,9651758.0,2516.0,70,R,9651597,9652103,508,1314.7,579.5,2788,right
12,2,continuous,21,72,fixationCross,9653175.0,9655692.0,2517.0,71,R,9652203,9652413,212,1325.4,563.8,2881,right
12,2,continuous,21,72,fixationCross,9653175.0,9655692.0,2517.0,71,R,9652445,9652647,204,1144.3,635.0,3069,NA
12,2,continuous,21,72,fixationCross,9653175.0,9655692.0,2517.0,71,R,9652693,9652931,240,788.7,609.2,3275,NA
12,2,continuous,21,72,trial,9653175.0,9655692.0,2517.0,71,R,9652957,9653375,420,965.7,562.0,3168,NA
12,2,continuous,21,72,trial,9653175.0,9655692.0,2517.0,71,R,9653431,9653667,238,552.6,523.7,3116,left
12,2,continuous,21,72,trial,9653175.0,9655692.0,2517.0,71,R,9653681,9653993,314,494.8,500.9,3000,left
12,2,continuous,21,72,trial,9653175.0,9655692.0,2517.0,71,R,9654055,9654321,268,1340.0,512.8,2856,right
12,2,continuous,21,72,trial,9653175.0,9655692.0,2517.0,71,R,9654333,9654531,200,1367.7,535.1,2833,right
12,2,continuous,21,72,trial,9653175.0,9655692.0,2517.0,71,R,9654559,9654875,318,1340.5,657.5,2780,right
12,2,continuous,21,72,trial,9653175.0,9655692.0,2517.0,71,R,9654943,9655255,314,566.8,504.6,2819,left
12,2,continuous,21,72,trial,9653175.0,9655692.0,2517.0,71,R,9655271,9655569,300,501.3,519.6,2847,left
12,2,continuous,21,72,trial,9653175.0,9655692.0,2517.0,71,R,9655641,9655967,328,1296.7,806.0,2771,NA
12,2,continuous,22,51,fixationCross,9656775.0,9660459.0,3684.0,72,R,9656267,9656501,236,1086.2,533.0,3305,NA
12,2,continuous,22,51,trial,9656775.0,9660459.0,3684.0,72,R,9656523,9656933,412,931.9,561.7,3490,NA
12,2,continuous,22,51,trial,9656775.0,9660459.0,3684.0,72,R,9656977,9657141,166,526.1,544.1,3142,left
12,2,continuous,22,51,trial,9656775.0,9660459.0,3684.0,72,R,9657161,9657255,96,480.5,586.4,2967,left
12,2,continuous,22,51,trial,9656775.0,9660459.0,3684.0,72,R,9657321,9657489,170,1479.8,575.5,2742,right
12,2,continuous,22,51,trial,9656775.0,9660459.0,3684.0,72,R,9657511,9657709,200,1580.9,546.7,2678,right
12,2,continuous,22,51,trial,9656775.0,9660459.0,3684.0,72,R,9657723,9657955,234,1547.0,511.4,2661,right
12,2,continuous,22,51,trial,9656775.0,9660459.0,3684.0,72,R,9658041,9658255,216,515.6,561.2,2762,left
12,2,continuous,22,51,trial,9656775.0,9660459.0,3684.0,72,R,9658269,9658923,656,488.7,588.7,2781,left
12,2,continuous,22,51,trial,9656775.0,9660459.0,3684.0,72,R,9658947,9659125,180,574.8,528.6,2806,left
12,2,continuous,22,51,trial,9656775.0,9660459.0,3684.0,72,R,9659191,9659409,220,1518.7,502.8,2707,right
12,2,continuous,22,51,trial,9656775.0,9660459.0,3684.0,72,R,9659423,9659691,270,1571.6,493.8,2663,right
12,2,continuous,22,51,trial,9656775.0,9660459.0,3684.0,72,R,9659715,9659831,118,1618.8,566.1,2622,right
12,2,continuous,22,51,trial,9656775.0,9660459.0,3684.0,72,R,9659899,9660031,134,1037.5,952.4,2715,likertHorizontal
12,2,continuous,22,51,trial,9656775.0,9660459.0,3684.0,72,R,9660053,9660405,354,930.0,973.6,2853,likertHorizontal
12,2,continuous,22,51,trial,9656775.0,9660459.0,3684.0,72,R,9660463,9660663,202,550.3,571.5,3134,left
12,2,continuous,23,51,fixationCross,9661575.0,9663525.0,1950.0,73,R,9660913,9661273,362,799.5,472.6,3152,NA
12,2,continuous,23,51,trial,9661575.0,9663525.0,1950.0,73,R,9661293,9661729,438,904.8,554.6,3069,NA
12,2,continuous,23,51,trial,9661575.0,9663525.0,1950.0,73,R,9661767,9661899,134,554.9,550.0,2954,left
12,2,continuous,23,51,trial,9661575.0,9663525.0,1950.0,73,R,9661927,9662093,168,419.6,431.6,2845,left
12,2,continuous,23,51,trial,9661575.0,9663525.0,1950.0,73,R,9662107,9662175,70,397.2,457.9,2803,left
12,2,continuous,23,51,trial,9661575.0,9663525.0,1950.0,73,R,9662245,9662483,240,1419.9,528.6,2664,right
12,2,continuous,23,51,trial,9661575.0,9663525.0,1950.0,73,R,9662505,9662983,480,1448.1,440.4,2633,right
12,2,continuous,23,51,trial,9661575.0,9663525.0,1950.0,73,R,9663007,9663117,112,1410.7,572.0,2633,right
12,2,continuous,23,51,trial,9661575.0,9663525.0,1950.0,73,R,9663195,9663355,162,463.7,487.3,2739,left
12,2,continuous,23,51,trial,9661575.0,9663525.0,1950.0,73,R,9663371,9663723,354,409.0,462.8,2730,left
12,2,continuous,24,26,fixationCross,9664475.0,9666375.0,1900.0,74,R,9663971,9664395,426,966.3,489.4,2899,NA
12,2,continuous,24,26,trial,9664475.0,9666375.0,1900.0,74,R,9664415,9664631,218,917.9,551.1,3145,NA
12,2,continuous,24,26,trial,9664475.0,9666375.0,1900.0,74,R,9664675,9664829,156,538.0,541.8,3051,left
12,2,continuous,24,26,trial,9664475.0,9666375.0,1900.0,74,R,9664863,9665025,164,450.8,644.9,2875,left
12,2,continuous,24,26,trial,9664475.0,9666375.0,1900.0,74,R,9665085,9665329,246,1289.3,542.3,2691,right
12,2,continuous,24,26,trial,9664475.0,9666375.0,1900.0,74,R,9665357,9665709,354,1423.5,517.0,2572,right
12,2,continuous,24,26,trial,9664475.0,9666375.0,1900.0,74,R,9665783,9665897,116,755.9,1061.2,2721,likertHorizontal
12,2,continuous,24,26,trial,9664475.0,9666375.0,1900.0,74,R,9665919,9666225,308,727.8,968.7,2819,NA
12,2,continuous,24,26,trial,9664475.0,9666375.0,1900.0,74,R,9666267,9666521,256,516.0,680.2,3081,left
12,2,continuous,25,71,fixationCross,9667425.0,9668509.0,1084.0,75,R,9666823,9667233,412,918.5,439.5,3300,NA
12,2,continuous,25,71,trial,9667425.0,9668509.0,1084.0,75,R,9667269,9667661,394,961.7,593.6,3553,NA
12,2,continuous,25,71,trial,9667425.0,9668509.0,1084.0,75,R,9667703,9667827,126,1014.2,986.0,3423,likertHorizontal
12,2,continuous,25,71,trial,9667425.0,9668509.0,1084.0,75,R,9667883,9668177,296,1400.9,583.9,3067,right
12,2,continuous,25,71,trial,9667425.0,9668509.0,1084.0,75,R,9668247,9668439,194,504.6,514.0,3262,left
12,2,continuous,25,71,trial,9667425.0,9668509.0,1084.0,75,R,9668459,9668723,266,486.7,451.2,3247,left
12,2,continuous,26,1,fixationCross,9696158.0,9698475.0,2317.0,76,R,9695393,9695723,332,245.2,30.4,3063,NA
12,2,continuous,26,1,fixationCross,9696158.0,9698475.0,2317.0,76,R,9695889,9696047,160,897.6,501.7,3024,NA
12,2,continuous,26,1,trial,9696158.0,9698475.0,2317.0,76,R,9696063,9696431,370,947.0,551.0,3195,NA
12,2,continuous,26,1,trial,9696158.0,9698475.0,2317.0,76,R,9696485,9696603,120,895.1,960.8,3283,likertHorizontal
12,2,continuous,26,1,trial,9696158.0,9698475.0,2317.0,76,R,9696663,9696925,264,1406.1,528.6,3024,right
12,2,continuous,26,1,trial,9696158.0,9698475.0,2317.0,76,R,9696995,9697075,82,660.5,825.8,3107,NA
12,2,continuous,26,1,trial,9696158.0,9698475.0,2317.0,76,R,9697115,9697449,336,399.3,555.3,3221,left
12,2,continuous,26,1,trial,9696158.0,9698475.0,2317.0,76,R,9697473,9697559,88,499.1,523.3,3215,left
12,2,continuous,26,1,trial,9696158.0,9698475.0,2317.0,76,R,9697621,9697893,274,845.0,1019.1,3163,likertHorizontal
12,2,continuous,26,1,trial,9696158.0,9698475.0,2317.0,76,R,9697933,9698193,262,507.2,966.5,3289,NA
12,2,continuous,26,1,trial,9696158.0,9698475.0,2317.0,76,R,9698215,9698309,96,456.3,929.4,3476,NA
12,2,continuous,26,1,postResponse,9696158.0,9698475.0,2317.0,76,R,9698373,9698823,452,1430.0,538.5,3499,right
12,2,continuous,27,38,fixationCross,9699709.0,9702159.0,2450.0,77,R,9698897,9699177,282,1427.9,536.0,3342,right
12,2,continuous,27,38,fixationCross,9699709.0,9702159.0,2450.0,77,R,9699239,9699367,130,2015.6,569.4,3370,NA
12,2,continuous,27,38,fixationCross,9699709.0,9702159.0,2450.0,77,R,9699443,9699651,210,963.1,521.9,3681,NA
12,2,continuous,27,38,trial,9699709.0,9702159.0,2450.0,77,R,9699671,9699887,218,951.3,564.8,3542,NA
12,2,continuous,27,38,trial,9699709.0,9702159.0,2450.0,77,R,9699933,9700135,204,529.9,586.1,3489,left
12,2,continuous,27,38,trial,9699709.0,9702159.0,2450.0,77,R,9700147,9700223,78,506.8,566.0,3351,left
12,2,continuous,27,38,trial,9699709.0,9702159.0,2450.0,77,R,9700281,9700559,280,1362.7,512.3,3097,right
12,2,continuous,27,38,trial,9699709.0,9702159.0,2450.0,77,R,9700585,9700741,158,1398.0,678.8,2936,right
12,2,continuous,27,38,trial,9699709.0,9702159.0,2450.0,77,R,9700809,9701003,196,567.6,567.4,3030,left
12,2,continuous,27,38,trial,9699709.0,9702159.0,2450.0,77,R,9701021,9701251,232,502.6,570.9,3170,left
12,2,continuous,27,38,trial,9699709.0,9702159.0,2450.0,77,R,9701261,9701403,144,508.0,555.4,3205,left
12,2,continuous,27,38,trial,9699709.0,9702159.0,2450.0,77,R,9701469,9701723,256,1403.5,592.9,2981,right
12,2,continuous,27,38,trial,9699709.0,9702159.0,2450.0,77,R,9701749,9702119,372,1388.8,727.9,2865,right
12,2,continuous,27,38,postResponse,9699709.0,9702159.0,2450.0,77,R,9702177,9702507,332,767.0,958.2,2984,likertHorizontal
12,2,continuous,28,35,fixationCross,9703093.0,9705992.0,2899.0,78,R,9702771,9702965,196,990.9,506.8,3275,NA
12,2,continuous,28,35,trial,9703093.0,9705992.0,2899.0,78,R,9702989,9703253,266,940.4,565.4,3543,NA
12,2,continuous,28,35,trial,9703093.0,9705992.0,2899.0,78,R,9703297,9703607,312,504.8,543.4,3271,left
12,2,continuous,28,35,trial,9703093.0,9705992.0,2899.0,78,R,9703667,9703877,212,1390.4,579.7,2859,right
12,2,continuous,28,35,trial,9703093.0,9705992.0,2899.0,78,R,9703951,9704093,144,512.6,512.4,2894,left
12,2,continuous,28,35,trial,9703093.0,9705992.0,2899.0,78,R,9704115,9704307,194,449.3,573.4,2926,left
12,2,continuous,28,35,trial,9703093.0,9705992.0,2899.0,78,R,9704325,9704631,308,492.5,613.3,2936,left
12,2,continuous,28,35,trial,9703093.0,9705992.0,2899.0,78,R,9704649,9704919,272,550.7,580.7,2884,left
12,2,continuous,28,35,trial,9703093.0,9705992.0,2899.0,78,R,9704983,9705159,178,1371.0,600.0,2797,right
12,2,continuous,28,35,trial,9703093.0,9705992.0,2899.0,78,R,9705175,9705375,202,1418.0,609.8,2771,right
12,2,continuous,28,35,trial,9703093.0,9705992.0,2899.0,78,R,9705401,9705531,132,1544.1,625.0,2708,right
12,2,continuous,28,35,trial,9703093.0,9705992.0,2899.0,78,R,9705605,9705827,224,596.2,486.3,2804,left
12,2,continuous,28,35,postResponse,9703093.0,9705992.0,2899.0,78,R,9705845,9706339,496,493.4,500.7,2786,left
12,2,continuous,29,71,fixationCross,9707108.0,9708775.0,1667.0,79,R,9706413,9706775,364,497.2,508.3,2839,left
12,2,continuous,29,71,fixationCross,9707108.0,9708775.0,1667.0,79,R,9706817,9706977,162,894.8,538.7,2967,NA
12,2,continuous,29,71,trial,9707108.0,9708775.0,1667.0,79,R,9706993,9707297,306,950.5,552.6,3030,NA
12,2,continuous,29,71,trial,9707108.0,9708775.0,1667.0,79,R,9707343,9707579,238,549.7,617.8,3119,left
12,2,continuous,29,71,trial,9707108.0,9708775.0,1667.0,79,R,9707643,9707945,304,1431.0,583.4,2795,right
12,2,continuous,29,71,trial,9707108.0,9708775.0,1667.0,79,R,9707961,9708225,266,1411.0,622.1,2696,right
12,2,continuous,29,71,trial,9707108.0,9708775.0,1667.0,79,R,9708293,9708447,156,1029.4,990.4,2766,likertHorizontal
12,2,continuous,29,71,trial,9707108.0,9708775.0,1667.0,79,R,9708511,9708807,298,468.0,602.2,2844,left
12,2,continuous,29,71,trial,9707108.0,9708775.0,1667.0,79,R,9708829,9709003,176,481.9,640.0,2904,left
12,2,continuous,30,52,fixationCross,9709693.0,9712375.0,2682.0,80,R,9709225,9709561,338,912.0,449.2,2946,NA
12,2,continuous,30,52,trial,9709693.0,9712375.0,2682.0,80,R,9709585,9709881,298,980.3,546.8,3135,NA
12,2,continuous,30,52,trial,9709693.0,9712375.0,2682.0,80,R,9709925,9710165,242,586.3,568.6,3134,left
12,2,continuous,30,52,trial,9709693.0,9712375.0,2682.0,80,R,9710187,9710289,104,484.0,590.3,3021,left
12,2,continuous,30,52,trial,9709693.0,9712375.0,2682.0,80,R,9710351,9710585,236,1353.3,520.4,2836,right
12,2,continuous,30,52,trial,9709693.0,9712375.0,2682.0,80,R,9710609,9710911,304,1499.6,514.9,2821,right
12,2,continuous,30,52,trial,9709693.0,9712375.0,2682.0,80,R,9710979,9711333,356,684.2,537.0,3181,left
12,2,continuous,30,52,trial,9709693.0,9712375.0,2682.0,80,R,9711357,9711515,160,692.3,655.7,3443,left
12,2,continuous,30,52,trial,9709693.0,9712375.0,2682.0,80,R,9711573,9712077,506,1464.2,516.3,3296,right
12,2,continuous,30,52,trial,9709693.0,9712375.0,2682.0,80,R,9712149,9712553,406,587.9,576.0,3150,left
12,2,continuous,31,65,fixationCross,9713509.0,9716359.0,2850.0,81,R,9712965,9713189,226,1159.8,518.8,3006,NA
12,2,continuous,31,65,trial,9713509.0,9716359.0,2850.0,81,R,9713227,9713663,438,947.3,561.8,3339,NA
12,2,continuous,31,65,trial,9713509.0,9716359.0,2850.0,81,R,9713709,9713861,154,490.5,533.9,3243,left
12,2,continuous,31,65,trial,9713509.0,9716359.0,2850.0,81,R,9713927,9714137,212,1406.9,577.9,2947,right
12,2,continuous,31,65,trial,9713509.0,9716359.0,2850.0,81,R,9714159,9714383,226,1511.7,559.9,2903,right
12,2,continuous,31,65,trial,9713509.0,9716359.0,2850.0,81,R,9714461,9714663,204,532.5,552.7,2965,left
12,2,continuous,31,65,trial,9713509.0,9716359.0,2850.0,81,R,9714723,9714875,154,989.2,952.8,2993,likertHorizontal
12,2,continuous,31,65,trial,9713509.0,9716359.0,2850.0,81,R,9714933,9715135,204,510.1,559.1,3219,left
12,2,continuous,31,65,trial,9713509.0,9716359.0,2850.0,81,R,9715155,9715365,212,467.9,585.0,3406,left
12,2,continuous,31,65,trial,9713509.0,9716359.0,2850.0,81,R,9715417,9715559,144,931.9,910.7,3362,likertHorizontal
12,2,continuous,31,65,trial,9713509.0,9716359.0,2850.0,81,R,9715583,9715759,178,916.4,994.4,3282,likertHorizontal
12,2,continuous,31,65,postResponse,9713509.0,9716359.0,2850.0,81,R,9715817,9716703,888,1372.9,589.6,3085,right
12,2,continuous,32,66,fixationCross,9717525.0,9720460.0,2935.0,82,R,9716823,9717017,196,1201.6,652.2,3054,right
12,2,continuous,32,66,fixationCross,9717525.0,9720460.0,2935.0,82,R,9717051,9717215,166,1035.6,877.1,3208,likertHorizontal
12,2,continuous,32,66,trial,9717525.0,9720460.0,2935.0,82,R,9717261,9717723,464,954.7,543.8,3447,NA
12,2,continuous,32,66,trial,9717525.0,9720460.0,2935.0,82,R,9717767,9718093,328,1319.7,616.8,3257,right
12,2,continuous,32,66,trial,9717525.0,9720460.0,2935.0,82,R,9718157,9718421,266,620.3,624.6,3054,left
12,2,continuous,32,66,trial,9717525.0,9720460.0,2935.0,82,R,9718435,9718591,158,654.7,611.4,3006,left
12,2,continuous,32,66,trial,9717525.0,9720460.0,2935.0,82,R,9718647,9719023,378,1357.5,610.3,2825,right
12,2,continuous,32,66,trial,9717525.0,9720460.0,2935.0,82,R,9719093,9719399,308,605.5,637.2,2783,left
12,2,continuous,32,66,trial,9717525.0,9720460.0,2935.0,82,R,9719447,9719597,152,853.0,890.5,2749,likertHorizontal
12,2,continuous,32,66,trial,9717525.0,9720460.0,2935.0,82,R,9719621,9719777,158,933.4,979.5,2707,likertHorizontal
12,2,continuous,32,66,trial,9717525.0,9720460.0,2935.0,82,R,9719823,9720365,544,1377.2,625.7,2641,right
12,2,continuous,32,66,trial,9717525.0,9720460.0,2935.0,82,R,9720389,9720449,62,1267.7,537.3,2717,right
12,2,continuous,32,66,trial,9717525.0,9720460.0,2935.0,82,R,9720475,9720549,76,1397.4,526.8,2692,right
12,2,continuous,32,66,trial,9717525.0,9720460.0,2935.0,82,R,9720603,9720693,92,815.3,525.0,2761,NA
12,2,continuous,33,59,fixationCross,9721359.0,9723460.0,2101.0,83,R,9720915,9721299,386,935.1,523.7,2884,NA
12,2,continuous,33,59,trial,9721359.0,9723460.0,2101.0,83,R,9721317,9721577,262,978.4,574.4,3000,NA
12,2,continuous,33,59,trial,9721359.0,9723460.0,2101.0,83,R,9721623,9721813,192,546.4,510.9,2898,left
12,2,continuous,33,59,trial,9721359.0,9723460.0,2101.0,83,R,9721831,9721941,112,528.0,451.7,2809,left
12,2,continuous,33,59,trial,9721359.0,9723460.0,2101.0,83,R,9722005,9722259,256,1438.1,507.1,2655,right
12,2,continuous,33,59,trial,9721359.0,9723460.0,2101.0,83,R,9722283,9722729,448,1321.6,419.9,2698,right
12,2,continuous,33,59,trial,9721359.0,9723460.0,2101.0,83,R,9722753,9722953,202,1338.8,515.9,2731,right
12,2,continuous,33,59,trial,9721359.0,9723460.0,2101.0,83,R,9722983,9723301,320,1547.4,564.5,2690,right
12,2,continuous,33,59,trial,9721359.0,9723460.0,2101.0,83,R,9723319,9723485,168,1622.7,537.5,2654,right
12,2,continuous,33,59,trial,9721359.0,9723460.0,2101.0,83,R,9723527,9723715,190,1292.1,409.9,2689,right
12,2,continuous,34,28,fixationCross,9724559.0,9727642.0,3083.0,84,R,9723911,9724273,364,659.1,464.8,2809,left
12,2,continuous,34,28,trial,9724559.0,9727642.0,3083.0,84,R,9724301,9724723,424,936.6,547.5,2937,NA
12,2,continuous,34,28,trial,9724559.0,9727642.0,3083.0,84,R,9724767,9724955,190,560.7,536.9,2906,left
12,2,continuous,34,28,trial,9724559.0,9727642.0,3083.0,84,R,9725017,9725253,238,1425.3,529.9,2720,right
12,2,continuous,34,28,trial,9724559.0,9727642.0,3083.0,84,R,9725269,9725481,214,1458.1,575.7,2637,right
12,2,continuous,34,28,trial,9724559.0,9727642.0,3083.0,84,R,9725503,9725665,164,1336.5,555.9,2667,right
12,2,continuous,34,28,trial,9724559.0,9727642.0,3083.0,84,R,9725717,9725851,136,973.6,981.6,2778,likertHorizontal
12,2,continuous,34,28,trial,9724559.0,9727642.0,3083.0,84,R,9725867,9726027,162,912.0,995.2,2875,likertHorizontal
12,2,continuous,34,28,trial,9724559.0,9727642.0,3083.0,84,R,9726083,9726409,328,592.0,553.3,3037,left
12,2,continuous,34,28,trial,9724559.0,9727642.0,3083.0,84,R,9726453,9726953,502,702.0,965.4,3011,NA
12,2,continuous,34,28,trial,9724559.0,9727642.0,3083.0,84,R,9726999,9727139,142,703.0,738.8,3060,NA
12,2,continuous,34,28,trial,9724559.0,9727642.0,3083.0,84,R,9727195,9727467,274,1386.2,532.8,3009,right
12,2,continuous,34,28,trial,9724559.0,9727642.0,3083.0,84,R,9727537,9727933,398,581.4,482.6,3046,left
12,2,continuous,35,26,fixationCross,9728793.0,9731593.0,2800.0,85,R,9728063,9728479,418,1024.0,755.5,3106,likertHorizontal
12,2,continuous,35,26,trial,9728793.0,9731593.0,2800.0,85,R,9728509,9729047,540,960.0,555.0,3334,NA
12,2,continuous,35,26,trial,9728793.0,9731593.0,2800.0,85,R,9729091,9729489,400,594.2,480.5,3209,left
12,2,continuous,35,26,trial,9728793.0,9731593.0,2800.0,85,R,9729549,9730631,1084,1302.8,600.9,3022,right
12,2,continuous,35,26,trial,9728793.0,9731593.0,2800.0,85,R,9730657,9730893,238,1447.0,574.4,2947,right
12,2,continuous,35,26,trial,9728793.0,9731593.0,2800.0,85,R,9730971,9731301,332,488.7,592.1,2997,left
12,2,continuous,35,26,postResponse,9728793.0,9731593.0,2800.0,85,R,9731353,9731939,588,684.0,949.0,2978,NA
12,2,continuous,36,30,fixationCross,9732726.0,9735110.0,2384.0,86,R,9732013,9732411,400,695.4,950.7,3277,NA
12,2,continuous,36,30,trial,9732726.0,9735110.0,2384.0,86,R,9732451,9732983,534,938.5,570.0,3512,NA
12,2,continuous,36,30,trial,9732726.0,9735110.0,2384.0,86,R,9733025,9733305,282,591.9,558.7,3329,left
12,2,continuous,36,30,trial,9732726.0,9735110.0,2384.0,86,R,9733371,9733599,230,1476.0,488.6,3113,right
12,2,continuous,36,30,trial,9732726.0,9735110.0,2384.0,86,R,9733663,9733787,126,847.1,885.0,3139,likertHorizontal
12,2,continuous,36,30,trial,9732726.0,9735110.0,2384.0,86,R,9733809,9734125,318,778.0,960.9,3238,likertHorizontal
12,2,continuous,36,30,trial,9732726.0,9735110.0,2384.0,86,R,9734177,9734405,230,618.9,555.8,3441,left
12,2,continuous,36,30,trial,9732726.0,9735110.0,2384.0,86,R,9734473,9734691,220,1508.0,451.9,3265,right
12,2,continuous,36,30,trial,9732726.0,9735110.0,2384.0,86,R,9734709,9734947,240,1577.5,434.1,3104,right
12,2,continuous,36,30,postResponse,9732726.0,9735110.0,2384.0,86,R,9735025,9735453,430,620.6,545.0,3267,left
12,2,continuous,37,75,fixationCross,9736276.0,9737577.0,1301.0,87,R,9735553,9735951,400,627.9,536.7,3351,left
12,2,continuous,37,75,fixationCross,9736276.0,9737577.0,1301.0,87,R,9735985,9736181,198,964.7,542.6,3250,NA
12,2,continuous,37,75,trial,9736276.0,9737577.0,1301.0,87,R,9736191,9736529,340,941.8,558.7,3155,NA
12,2,continuous,37,75,trial,9736276.0,9737577.0,1301.0,87,R,9736593,9736745,154,572.0,608.9,3103,left
12,2,continuous,37,75,trial,9736276.0,9737577.0,1301.0,87,R,9736803,9737245,444,1329.1,549.3,2861,right
12,2,continuous,37,75,postResponse,9736276.0,9737577.0,1301.0,87,R,9737287,9737911,626,1169.8,959.9,2980,likertHorizontal
12,2,continuous,38,73,fixationCross,9738726.0,9740042.0,1316.0,88,R,9737985,9738397,414,1177.0,949.4,3475,likertHorizontal
12,2,continuous,38,73,trial,9738726.0,9740042.0,1316.0,88,R,9738447,9739005,560,971.5,542.2,3707,NA
12,2,continuous,38,73,trial,9738726.0,9740042.0,1316.0,88,R,9739047,9739243,198,638.4,486.7,3386,left
12,2,continuous,38,73,trial,9738726.0,9740042.0,1316.0,88,R,9739303,9739541,240,1411.7,498.5,3095,right
12,2,continuous,38,73,trial,9738726.0,9740042.0,1316.0,88,R,9739563,9739825,264,1412.3,572.3,2997,right
12,2,continuous,38,73,trial,9738726.0,9740042.0,1316.0,88,R,9739849,9740023,176,1580.7,507.5,2917,right
12,2,continuous,38,73,postResponse,9738726.0,9740042.0,1316.0,88,R,9740081,9740389,310,1186.0,955.0,2950,NA
12,2,continuous,39,21,fixationCross,9741192.0,9743643.0,2451.0,89,R,9740489,9740573,86,1187.3,952.9,3123,NA
12,2,continuous,39,21,fixationCross,9741192.0,9743643.0,2451.0,89,R,9740611,9740869,260,967.7,1053.2,3471,likertHorizontal
12,2,continuous,39,21,fixationCross,9741192.0,9743643.0,2451.0,89,R,9740929,9741085,158,971.5,537.9,3699,NA
12,2,continuous,39,21,trial,9741192.0,9743643.0,2451.0,89,R,9741095,9741481,388,952.9,555.1,3678,NA
12,2,continuous,39,21,trial,9741192.0,9743643.0,2451.0,89,R,9741531,9741651,122,904.4,977.9,3377,likertHorizontal
12,2,continuous,39,21,trial,9741192.0,9743643.0,2451.0,89,R,9741711,9741951,242,447.7,526.9,3153,left
12,2,continuous,39,21,trial,9741192.0,9743643.0,2451.0,89,R,9741975,9742107,134,567.7,598.4,3102,left
12,2,continuous,39,21,trial,9741192.0,9743643.0,2451.0,89,R,9742171,9742359,190,1408.0,555.5,2969,right
12,2,continuous,39,21,trial,9741192.0,9743643.0,2451.0,89,R,9742373,9742615,244,1370.0,563.3,2932,right
12,2,continuous,39,21,trial,9741192.0,9743643.0,2451.0,89,R,9742689,9742901,214,476.5,575.2,3015,left
12,2,continuous,39,21,trial,9741192.0,9743643.0,2451.0,89,R,9742925,9743207,284,418.7,638.5,3001,left
12,2,continuous,39,21,trial,9741192.0,9743643.0,2451.0,89,R,9743249,9743383,136,565.6,893.2,2940,NA
12,2,continuous,39,21,trial,9741192.0,9743643.0,2451.0,89,R,9743429,9743867,440,437.4,486.7,2901,left
12,2,continuous,39,21,postResponse,9741192.0,9743643.0,2451.0,89,R,9743927,9743989,64,730.9,727.4,2937,left
12,2,continuous,40,29,fixationCross,9744843.0,9749843.0,5000.0,90,R,9744063,9744107,46,734.6,727.2,2962,left
12,2,continuous,40,29,fixationCross,9744843.0,9749843.0,5000.0,90,R,9744139,9744361,224,483.7,692.7,3027,left
12,2,continuous,40,29,fixationCross,9744843.0,9749843.0,5000.0,90,R,9744389,9744521,134,503.2,520.3,3189,left
12,2,continuous,40,29,trial,9744843.0,9749843.0,5000.0,90,R,9744569,9745083,516,952.9,556.6,3177,NA
12,2,continuous,40,29,trial,9744843.0,9749843.0,5000.0,90,R,9745129,9745337,210,507.2,538.5,3117,left
12,2,continuous,40,29,trial,9744843.0,9749843.0,5000.0,90,R,9745403,9745797,396,1401.2,556.7,2918,right
12,2,continuous,40,29,trial,9744843.0,9749843.0,5000.0,90,R,9745851,9746037,188,1167.2,921.2,2846,likertHorizontal
12,2,continuous,40,29,trial,9744843.0,9749843.0,5000.0,90,R,9746133,9746459,328,501.0,559.8,2947,left
12,2,continuous,40,29,trial,9744843.0,9749843.0,5000.0,90,R,9746501,9746627,128,576.4,886.6,2976,NA
12,2,continuous,40,29,trial,9744843.0,9749843.0,5000.0,90,R,9746657,9747109,454,702.6,970.0,2988,NA
12,2,continuous,40,29,trial,9744843.0,9749843.0,5000.0,90,R,9747165,9747495,332,531.3,548.5,3034,left
12,2,continuous,40,29,trial,9744843.0,9749843.0,5000.0,90,R,9747519,9747799,282,648.3,499.0,2972,left
12,2,continuous,40,29,trial,9744843.0,9749843.0,5000.0,90,R,9747825,9748091,268,468.9,524.4,2924,left
12,2,continuous,40,29,trial,9744843.0,9749843.0,5000.0,90,R,9748103,9748339,238,507.2,529.4,2937,left
12,2,continuous,40,29,trial,9744843.0,9749843.0,5000.0,90,R,9748361,9748619,260,652.1,493.8,2960,left
12,2,continuous,40,29,trial,9744843.0,9749843.0,5000.0,90,R,9748685,9748911,228,1481.9,491.5,2847,right
12,2,continuous,40,29,trial,9744843.0,9749843.0,5000.0,90,R,9748931,9749173,244,1407.8,483.5,2789,right
12,2,continuous,40,29,trial,9744843.0,9749843.0,5000.0,90,R,9749195,9749353,160,1489.5,449.1,2702,right
12,2,continuous,40,29,trial,9744843.0,9749843.0,5000.0,90,R,9749427,9749645,220,537.4,525.2,2801,left
12,2,continuous,40,29,trial,9744843.0,9749843.0,5000.0,90,R,9749659,9750129,472,490.3,550.5,2843,left
12,2,continuous,41,29,fixationCross,9751076.0,9753476.0,2400.0,91,R,9750265,9750517,254,1888.0,553.8,2777,NA
12,2,continuous,41,29,fixationCross,9751076.0,9753476.0,2400.0,91,R,9750567,9750595,30,1641.3,960.4,2846,NA
12,2,continuous,41,29,fixationCross,9751076.0,9753476.0,2400.0,91,R,9750659,9750763,106,1016.5,632.8,2980,NA
12,2,continuous,41,29,trial,9751076.0,9753476.0,2400.0,91,R,9750787,9751257,472,951.6,530.6,3098,NA
12,2,continuous,41,29,trial,9751076.0,9753476.0,2400.0,91,R,9751303,9751589,288,567.6,520.7,3148,left
12,2,continuous,41,29,trial,9751076.0,9753476.0,2400.0,91,R,9751655,9751903,250,1465.5,470.4,2827,right
12,2,continuous,41,29,trial,9751076.0,9753476.0,2400.0,91,R,9751925,9752329,406,1396.5,541.0,2815,right
12,2,continuous,41,29,trial,9751076.0,9753476.0,2400.0,91,R,9752401,9752663,264,564.0,606.2,2954,left
12,2,continuous,41,29,trial,9751076.0,9753476.0,2400.0,91,R,9752711,9753205,496,673.3,939.3,2938,NA
12,2,continuous,41,29,trial,9751076.0,9753476.0,2400.0,91,R,9753221,9753505,286,728.1,942.6,2951,NA
12,2,continuous,41,29,postResponse,9751076.0,9753476.0,2400.0,91,R,9753589,9753817,230,703.9,502.8,3093,left
12,2,continuous,42,27,fixationCross,9754610.0,9756859.0,2249.0,92,R,9753917,9753953,38,712.3,496.9,3180,left
12,2,continuous,42,27,fixationCross,9754610.0,9756859.0,2249.0,92,R,9753991,9754289,300,508.8,350.7,3186,left
12,2,continuous,42,27,fixationCross,9754610.0,9756859.0,2249.0,92,R,9754339,9754501,164,952.6,518.2,3161,NA
12,2,continuous,42,27,trial,9754610.0,9756859.0,2249.0,92,R,9754517,9754847,332,946.5,565.4,3178,NA
12,2,continuous,42,27,trial,9754610.0,9756859.0,2249.0,92,R,9754885,9754931,48,935.4,857.3,3235,likertHorizontal
12,2,continuous,42,27,trial,9754610.0,9756859.0,2249.0,92,R,9754987,9755261,276,559.0,484.2,3091,left
12,2,continuous,42,27,trial,9754610.0,9756859.0,2249.0,92,R,9755327,9755581,256,1425.3,508.1,2942,right
12,2,continuous,42,27,trial,9754610.0,9756859.0,2249.0,92,R,9755601,9755881,282,1350.4,566.7,2912,right
12,2,continuous,42,27,trial,9754610.0,9756859.0,2249.0,92,R,9755945,9756107,164,709.2,842.5,2954,NA
12,2,continuous,42,27,trial,9754610.0,9756859.0,2249.0,92,R,9756133,9756275,144,659.0,943.3,2957,NA
12,2,continuous,42,27,trial,9754610.0,9756859.0,2249.0,92,R,9756323,9756541,220,566.3,555.9,3081,left
12,2,continuous,42,27,trial,9754610.0,9756859.0,2249.0,92,R,9756581,9756801,222,394.5,463.9,3108,left
12,2,continuous,42,27,trial,9754610.0,9756859.0,2249.0,92,R,9756831,9757081,252,591.6,458.8,3065,left
12,2,continuous,43,28,fixationCross,9758076.0,9760927.0,2851.0,93,R,9757305,9757427,124,1447.7,397.8,2996,right
12,2,continuous,43,28,fixationCross,9758076.0,9760927.0,2851.0,93,R,9757795,9757981,188,956.4,608.5,3373,NA
12,2,continuous,43,28,trial,9758076.0,9760927.0,2851.0,93,R,9757997,9758313,318,957.5,553.4,3401,NA
12,2,continuous,43,28,trial,9758076.0,9760927.0,2851.0,93,R,9758357,9758687,332,558.6,554.6,3215,left
12,2,continuous,43,28,trial,9758076.0,9760927.0,2851.0,93,R,9758705,9759195,492,455.6,542.5,3087,left
12,2,continuous,43,28,trial,9758076.0,9760927.0,2851.0,93,R,9759215,9759343,130,525.6,565.0,3085,left
12,2,continuous,43,28,trial,9758076.0,9760927.0,2851.0,93,R,9759409,9759593,186,1394.9,518.2,2953,right
12,2,continuous,43,28,trial,9758076.0,9760927.0,2851.0,93,R,9759615,9760089,476,1516.9,506.3,2894,right
12,2,continuous,43,28,trial,9758076.0,9760927.0,2851.0,93,R,9760101,9760259,160,1550.2,520.9,2915,right
12,2,continuous,43,28,trial,9758076.0,9760927.0,2851.0,93,R,9760335,9760603,270,582.0,578.8,3021,left
12,2,continuous,43,28,trial,9758076.0,9760927.0,2851.0,93,R,9760625,9761095,472,606.2,680.2,3005,left
12,2,continuous,44,38,fixationCross,9761977.0,9762776.0,799.0,94,R,9761401,9761647,248,1228.3,340.9,3008,NA
12,2,continuous,44,38,fixationCross,9761977.0,9762776.0,799.0,94,R,9761687,9761847,162,1006.2,492.0,3281,NA
12,2,continuous,44,38,trial,9761977.0,9762776.0,799.0,94,R,9761869,9762135,268,942.3,549.4,3415,NA
12,2,continuous,44,38,trial,9761977.0,9762776.0,799.0,94,R,9762177,9762457,282,587.9,549.4,3287,left
12,2,continuous,44,38,trial,9761977.0,9762776.0,799.0,94,R,9762517,9762951,436,1399.0,553.5,2935,right
12,2,continuous,45,37,fixationCross,9763660.0,9764627.0,967.0,95,R,9763183,9763563,382,1021.3,543.8,3163,NA
12,2,continuous,45,37,trial,9763660.0,9764627.0,967.0,95,R,9763583,9763805,224,937.5,553.6,3232,NA
12,2,continuous,45,37,trial,9763660.0,9764627.0,967.0,95,R,9763851,9764045,196,538.6,518.6,3154,left
12,2,continuous,45,37,trial,9763660.0,9764627.0,967.0,95,R,9764069,9764337,270,488.7,388.4,3025,left
12,2,continuous,45,37,trial,9763660.0,9764627.0,967.0,95,R,9764405,9764629,226,1387.6,524.2,2849,right
12,2,continuous,45,37,trial,9763660.0,9764627.0,967.0,95,R,9764653,9764791,140,1398.1,597.4,2808,right
12,2,continuous,46,80,fixationCross,9765577.0,9766910.0,1333.0,96,R,9765071,9765271,202,1109.6,558.6,3036,NA
12,2,continuous,46,80,trial,9765577.0,9766910.0,1333.0,96,R,9765299,9765721,424,936.6,519.8,3184,NA
12,2,continuous,46,80,trial,9765577.0,9766910.0,1333.0,96,R,9765763,9765949,188,559.7,526.8,3030,left
12,2,continuous,46,80,trial,9765577.0,9766910.0,1333.0,96,R,9765973,9766289,318,545.6,595.7,2855,left
12,2,continuous,46,80,trial,9765577.0,9766910.0,1333.0,96,R,9766315,9766487,174,387.6,615.1,2853,left
12,2,continuous,46,80,trial,9765577.0,9766910.0,1333.0,96,R,9766553,9767109,558,1357.0,551.2,2765,right
12,2,continuous,47,23,fixationCross,9768127.0,9768960.0,833.0,97,R,9767429,9767835,408,846.9,562.2,3316,NA
12,2,continuous,47,23,trial,9768127.0,9768960.0,833.0,97,R,9767859,9768295,438,962.3,568.4,3275,NA
12,2,continuous,47,23,trial,9768127.0,9768960.0,833.0,97,R,9768339,9768687,350,578.5,619.6,3040,left
12,2,continuous,47,23,trial,9768127.0,9768960.0,833.0,97,R,9768729,9768979,252,339.5,402.4,2902,left
12,2,continuous,47,23,postResponse,9768127.0,9768960.0,833.0,97,R,9769043,9769309,268,624.2,997.8,2865,NA
12,2,continuous,48,34,fixationCross,9770776.0,9772210.0,1434.0,98,R,9769427,9769869,444,993.3,646.9,3119,NA
12,2,continuous,48,34,fixationCross,9770776.0,9772210.0,1434.0,98,R,9769891,9770465,576,1087.6,559.7,3160,NA
12,2,continuous,48,34,fixationCross,9770776.0,9772210.0,1434.0,98,R,9770489,9770757,270,934.1,585.1,3066,NA
12,2,continuous,48,34,trial,9770776.0,9772210.0,1434.0,98,R,9770773,9770937,166,944.4,560.7,3035,NA
12,2,continuous,48,34,trial,9770776.0,9772210.0,1434.0,98,R,9770983,9771211,230,1440.2,510.9,2935,right
12,2,continuous,48,34,trial,9770776.0,9772210.0,1434.0,98,R,9771233,9771459,228,1565.2,520.5,2807,right
12,2,continuous,48,34,trial,9770776.0,9772210.0,1434.0,98,R,9771531,9771719,190,708.6,569.1,2911,left
12,2,continuous,48,34,trial,9770776.0,9772210.0,1434.0,98,R,9771739,9772045,308,634.1,615.3,2962,left
12,2,continuous,48,34,trial,9770776.0,9772210.0,1434.0,98,R,9772109,9772381,274,1504.2,531.4,2806,right
12,2,continuous,49,74,fixationCross,9773127.0,9774310.0,1183.0,99,R,9772659,9773107,450,886.6,576.4,3222,NA
12,2,continuous,49,74,trial,9773127.0,9774310.0,1183.0,99,R,9773121,9773287,168,939.8,558.7,3274,NA
12,2,continuous,49,74,trial,9773127.0,9774310.0,1183.0,99,R,9773331,9773483,154,526.3,551.5,3128,left
