participantNo,block,task,blockTrial,response,trialStage,trialStartTime,trialFinishTime,rt,trial,eye,fixStart,fixEnd,fixLength,fixPosX,fixPosY,dilation,aoi
17,1,continuous,1,26,fixationCross,3695948.0,3712749.0,16801.0,1,R,3695274,3695458,186,935.5,876.6,5530,likertHorizontal
17,1,continuous,1,26,fixationCross,3695948.0,3712749.0,16801.0,1,R,3695514,3695734,222,898.2,456.7,5589,NA
17,1,continuous,1,26,trial,3695948.0,3712749.0,16801.0,1,R,3695768,3695950,184,970.2,575.5,5595,NA
17,1,continuous,1,26,trial,3695948.0,3712749.0,16801.0,1,R,3695968,3696234,268,958.7,538.7,5564,NA
17,1,continuous,1,26,trial,3695948.0,3712749.0,16801.0,1,R,3696304,3696800,498,457.7,1016.9,5667,NA
17,1,continuous,1,26,trial,3695948.0,3712749.0,16801.0,1,R,3696848,3697018,172,416.0,512.0,5623,left
17,1,continuous,1,26,trial,3695948.0,3712749.0,16801.0,1,R,3697052,3697554,504,534.6,559.1,5541,left
17,1,continuous,1,26,trial,3695948.0,3712749.0,16801.0,1,R,3697622,3697832,212,1364.0,535.3,5138,right
17,1,continuous,1,26,trial,3695948.0,3712749.0,16801.0,1,R,3698006,3698344,340,1451.8,522.4,5193,right
17,1,continuous,1,26,trial,3695948.0,3712749.0,16801.0,1,R,3698418,3698552,136,704.4,850.2,5283,NA
17,1,continuous,1,26,trial,3695948.0,3712749.0,16801.0,1,R,3698592,3698734,144,608.0,1020.7,5336,NA
17,1,continuous,1,26,trial,3695948.0,3712749.0,16801.0,1,R,3698802,3698982,182,1389.4,1050.3,5446,NA
17,1,continuous,1,26,trial,3695948.0,3712749.0,16801.0,1,R,3699012,3699632,622,1423.9,1085.3,5580,NA
17,1,continuous,1,26,trial,3695948.0,3712749.0,16801.0,1,R,3699818,3700100,284,1473.4,521.2,5634,right
17,1,continuous,1,26,trial,3695948.0,3712749.0,16801.0,1,R,3700186,3700364,180,533.1,584.5,5463,left
17,1,continuous,1,26,trial,3695948.0,3712749.0,16801.0,1,R,3700386,3700614,230,543.9,562.1,5216,left
17,1,continuous,1,26,trial,3695948.0,3712749.0,16801.0,1,R,3700682,3700878,198,448.9,1066.0,5105,NA
17,1,continuous,1,26,trial,3695948.0,3712749.0,16801.0,1,R,3700900,3701120,222,483.4,1042.7,5157,NA
17,1,continuous,1,26,trial,3695948.0,3712749.0,16801.0,1,R,3701180,3701352,174,402.6,520.2,5229,left
17,1,continuous,1,26,trial,3695948.0,3712749.0,16801.0,1,R,3701388,3701550,164,551.6,556.3,5333,left
17,1,continuous,1,26,trial,3695948.0,3712749.0,16801.0,1,R,3701570,3701758,190,535.3,552.8,5343,left
17,1,continuous,1,26,trial,3695948.0,3712749.0,16801.0,1,R,3701916,3702646,732,532.7,551.8,5339,left
17,1,continuous,1,26,trial,3695948.0,3712749.0,16801.0,1,R,3702718,3703138,422,1427.4,524.2,5122,right
17,1,continuous,1,26,trial,3695948.0,3712749.0,16801.0,1,R,3703164,3703826,664,1315.7,543.2,5331,right
17,1,continuous,1,26,trial,3695948.0,3712749.0,16801.0,1,R,3703846,3704036,192,1291.8,535.2,5637,right
17,1,continuous,1,26,trial,3695948.0,3712749.0,16801.0,1,R,3704106,3704226,122,650.7,999.3,5926,NA
17,1,continuous,1,26,trial,3695948.0,3712749.0,16801.0,1,R,3704268,3704450,184,519.1,985.7,5872,NA
17,1,continuous,1,26,trial,3695948.0,3712749.0,16801.0,1,R,3704584,3704742,160,463.7,506.6,5584,left
17,1,continuous,1,26,trial,3695948.0,3712749.0,16801.0,1,R,3704776,3705326,552,545.9,555.7,5441,left
17,1,continuous,1,26,trial,3695948.0,3712749.0,16801.0,1,R,3705398,3705828,432,1471.7,572.5,5073,right
17,1,continuous,1,26,trial,3695948.0,3712749.0,16801.0,1,R,3705854,3706118,266,1328.8,514.2,5069,right
17,1,continuous,1,26,trial,3695948.0,3712749.0,16801.0,1,R,3706300,3706650,352,517.7,573.4,5232,left
17,1,continuous,1,26,trial,3695948.0,3712749.0,16801.0,1,R,3706672,3707570,900,532.1,551.6,5300,left
17,1,continuous,1,26,trial,3695948.0,3712749.0,16801.0,1,R,3707902,3707988,88,411.0,468.9,5231,left
17,1,continuous,1,26,trial,3695948.0,3712749.0,16801.0,1,R,3708014,3708132,120,528.6,516.9,5399,left
17,1,continuous,1,26,trial,3695948.0,3712749.0,16801.0,1,R,3708370,3708396,28,807.8,66.9,3093,NA
17,1,continuous,1,26,trial,3695948.0,3712749.0,16801.0,1,R,3708448,3708652,206,533.4,535.1,5507,left
17,1,continuous,1,26,trial,3695948.0,3712749.0,16801.0,1,R,3708788,3709440,654,545.9,545.0,5595,left
17,1,continuous,1,26,trial,3695948.0,3712749.0,16801.0,1,R,3709512,3709908,398,1359.3,564.6,5272,right
17,1,continuous,1,26,trial,3695948.0,3712749.0,16801.0,1,R,3709986,3710124,140,623.3,932.7,5654,NA
17,1,continuous,1,26,trial,3695948.0,3712749.0,16801.0,1,R,3710156,3710404,250,728.5,990.7,5738,NA
17,1,continuous,1,26,trial,3695948.0,3712749.0,16801.0,1,R,3710454,3710698,246,535.4,598.1,5617,left
17,1,continuous,1,26,trial,3695948.0,3712749.0,16801.0,1,R,3710722,3710882,162,543.3,511.5,5606,left
17,1,continuous,1,26,trial,3695948.0,3712749.0,16801.0,1,R,3710898,3710968,72,537.7,544.8,5648,left
17,1,continuous,1,26,trial,3695948.0,3712749.0,16801.0,1,R,3711114,3712258,1146,539.0,551.7,5510,left
17,1,continuous,1,26,trial,3695948.0,3712749.0,16801.0,1,R,3712324,3712484,162,681.0,1012.0,5510,NA
17,1,continuous,1,26,trial,3695948.0,3712749.0,16801.0,1,R,3712514,3713008,496,655.1,1009.0,5581,NA
17,1,continuous,1,26,postResponse,3695948.0,3712749.0,16801.0,1,R,3713072,3713116,46,714.9,322.6,5574,NA
17,1,continuous,2,25,fixationCross,3713848.0,3720965.0,7117.0,2,R,3713216,3713336,122,719.5,326.4,5570,NA
17,1,continuous,2,25,fixationCross,3713848.0,3720965.0,7117.0,2,R,3713366,3713542,178,779.7,431.5,5353,NA
17,1,continuous,2,25,fixationCross,3713848.0,3720965.0,7117.0,2,R,3713572,3713744,174,940.5,522.6,5193,NA
17,1,continuous,2,25,trial,3713848.0,3720965.0,7117.0,2,R,3713762,3713906,146,964.7,541.3,5250,NA
17,1,continuous,2,25,trial,3713848.0,3720965.0,7117.0,2,R,3714042,3714302,262,757.4,515.6,5375,NA
17,1,continuous,2,25,trial,3713848.0,3720965.0,7117.0,2,R,3714364,3714536,174,1415.8,482.3,5206,right
17,1,continuous,2,25,trial,3713848.0,3720965.0,7117.0,2,R,3714550,3715136,588,1394.0,477.4,5092,right
17,1,continuous,2,25,trial,3713848.0,3720965.0,7117.0,2,R,3715212,3715524,314,476.9,497.1,5163,left
17,1,continuous,2,25,trial,3713848.0,3720965.0,7117.0,2,R,3715552,3716484,934,472.0,638.6,5157,left
17,1,continuous,2,25,trial,3713848.0,3720965.0,7117.0,2,R,3716554,3716704,152,607.3,1047.3,5432,NA
17,1,continuous,2,25,trial,3713848.0,3720965.0,7117.0,2,R,3716722,3716898,178,555.0,1009.0,5446,NA
17,1,continuous,2,25,trial,3713848.0,3720965.0,7117.0,2,R,3717046,3717280,236,370.5,539.1,5248,left
17,1,continuous,2,25,trial,3713848.0,3720965.0,7117.0,2,R,3717318,3717494,178,571.6,559.1,5288,left
17,1,continuous,2,25,trial,3713848.0,3720965.0,7117.0,2,R,3717560,3717718,160,1361.8,499.8,4921,right
17,1,continuous,2,25,trial,3713848.0,3720965.0,7117.0,2,R,3717744,3718188,446,1411.7,457.0,4730,right
17,1,continuous,2,25,trial,3713848.0,3720965.0,7117.0,2,R,3718218,3718706,490,1520.3,572.8,4694,right
17,1,continuous,2,25,trial,3713848.0,3720965.0,7117.0,2,R,3718732,3718878,148,1417.0,465.0,4742,right
17,1,continuous,2,25,trial,3713848.0,3720965.0,7117.0,2,R,3718890,3719354,466,1401.9,455.7,4811,right
17,1,continuous,2,25,trial,3713848.0,3720965.0,7117.0,2,R,3719382,3719898,518,1400.0,646.1,4946,right
17,1,continuous,2,25,trial,3713848.0,3720965.0,7117.0,2,R,3719972,3720132,162,498.4,1016.4,5263,NA
17,1,continuous,2,25,trial,3713848.0,3720965.0,7117.0,2,R,3720168,3720346,180,638.0,1009.7,5371,NA
17,1,continuous,2,25,trial,3713848.0,3720965.0,7117.0,2,R,3720406,3720790,386,446.5,547.6,5244,left
17,1,continuous,2,25,trial,3713848.0,3720965.0,7117.0,2,R,3720860,3721050,192,638.1,1035.1,5145,NA
17,1,continuous,2,25,postResponse,3713848.0,3720965.0,7117.0,2,R,3721106,3721300,196,602.4,676.4,5162,left
17,1,continuous,3,79,fixationCross,3722065.0,3726882.0,4817.0,3,R,3721390,3721562,174,704.3,427.5,5169,left
17,1,continuous,3,79,fixationCross,3722065.0,3726882.0,4817.0,3,R,3721596,3721730,136,586.1,461.7,5183,left
17,1,continuous,3,79,fixationCross,3722065.0,3726882.0,4817.0,3,R,3721780,3721970,192,936.5,534.0,5095,NA
17,1,continuous,3,79,trial,3722065.0,3726882.0,4817.0,3,R,3721990,3722066,78,960.5,550.4,5098,NA
17,1,continuous,3,79,trial,3722065.0,3726882.0,4817.0,3,R,3722262,3722334,74,958.6,534.6,5210,NA
17,1,continuous,3,79,trial,3722065.0,3726882.0,4817.0,3,R,3722390,3722554,166,488.1,484.9,5262,left
17,1,continuous,3,79,trial,3722065.0,3726882.0,4817.0,3,R,3722578,3722774,198,507.0,407.5,5220,left
17,1,continuous,3,79,trial,3722065.0,3726882.0,4817.0,3,R,3722844,3723230,388,1406.1,460.8,4763,right
17,1,continuous,3,79,trial,3722065.0,3726882.0,4817.0,3,R,3723250,3723652,404,1403.6,516.3,4651,right
17,1,continuous,3,79,trial,3722065.0,3726882.0,4817.0,3,R,3723722,3723902,182,571.3,475.0,4825,left
17,1,continuous,3,79,trial,3722065.0,3726882.0,4817.0,3,R,3723924,3724266,344,502.3,415.5,4906,left
17,1,continuous,3,79,trial,3722065.0,3726882.0,4817.0,3,R,3724340,3724506,168,514.7,945.7,5048,NA
17,1,continuous,3,79,trial,3722065.0,3726882.0,4817.0,3,R,3724572,3724690,120,1158.6,1039.0,5044,likertHorizontal
17,1,continuous,3,79,trial,3722065.0,3726882.0,4817.0,3,R,3724734,3724918,186,1394.6,1092.2,5125,NA
17,1,continuous,3,79,trial,3722065.0,3726882.0,4817.0,3,R,3724948,3725560,614,1280.9,1019.0,5298,NA
17,1,continuous,3,79,trial,3722065.0,3726882.0,4817.0,3,R,3725744,3725912,170,1388.7,424.7,5156,right
17,1,continuous,3,79,trial,3722065.0,3726882.0,4817.0,3,R,3725936,3726246,312,1392.5,506.5,5043,right
17,1,continuous,3,79,trial,3722065.0,3726882.0,4817.0,3,R,3726314,3726748,436,1133.3,1058.6,4971,likertHorizontal
17,1,continuous,3,79,trial,3722065.0,3726882.0,4817.0,3,R,3726798,3726964,168,1182.6,837.1,5196,likertHorizontal
17,1,continuous,3,79,postResponse,3722065.0,3726882.0,4817.0,3,R,3727020,3727208,190,1065.1,546.4,5337,NA
17,1,continuous,4,1,fixationCross,3728032.0,3731482.0,3450.0,4,R,3727322,3727438,118,824.4,571.7,5475,NA
17,1,continuous,4,1,fixationCross,3728032.0,3731482.0,3450.0,4,R,3727478,3727726,250,568.0,539.3,5565,left
17,1,continuous,4,1,fixationCross,3728032.0,3731482.0,3450.0,4,R,3727772,3728014,244,935.1,549.4,5478,NA
17,1,continuous,4,1,trial,3728032.0,3731482.0,3450.0,4,R,3728032,3728238,208,960.9,544.5,5562,NA
17,1,continuous,4,1,trial,3728032.0,3731482.0,3450.0,4,R,3728292,3728524,234,537.6,480.3,5503,left
17,1,continuous,4,1,trial,3728032.0,3731482.0,3450.0,4,R,3728562,3728772,212,473.8,570.1,5361,left
17,1,continuous,4,1,trial,3728032.0,3731482.0,3450.0,4,R,3728792,3729114,324,435.3,589.2,5332,left
17,1,continuous,4,1,trial,3728032.0,3731482.0,3450.0,4,R,3729194,3729418,226,1426.5,517.2,5160,right
17,1,continuous,4,1,trial,3728032.0,3731482.0,3450.0,4,R,3729448,3729654,208,1623.2,579.3,5117,right
17,1,continuous,4,1,trial,3728032.0,3731482.0,3450.0,4,R,3729674,3730178,506,1607.4,633.4,4991,right
17,1,continuous,4,1,trial,3728032.0,3731482.0,3450.0,4,R,3730440,3730726,288,448.7,578.4,5296,left
17,1,continuous,4,1,trial,3728032.0,3731482.0,3450.0,4,R,3730790,3731366,578,456.5,994.6,5353,NA
17,1,continuous,4,1,trial,3728032.0,3731482.0,3450.0,4,R,3731394,3731708,316,426.0,1009.4,5235,NA
17,1,continuous,4,1,postResponse,3728032.0,3731482.0,3450.0,4,R,3731766,3731840,76,632.8,539.1,5251,left
17,1,continuous,5,24,fixationCross,3732548.0,3738133.0,5585.0,5,R,3731940,3732246,308,634.3,548.9,5296,left
17,1,continuous,5,24,fixationCross,3732548.0,3738133.0,5585.0,5,R,3732280,3732504,226,927.1,568.9,5296,NA
17,1,continuous,5,24,trial,3732548.0,3738133.0,5585.0,5,R,3732528,3732700,174,968.7,550.0,5332,NA
17,1,continuous,5,24,trial,3732548.0,3738133.0,5585.0,5,R,3732758,3733076,320,490.0,523.5,5417,left
17,1,continuous,5,24,trial,3732548.0,3738133.0,5585.0,5,R,3733094,3733448,356,427.0,518.1,5335,left
17,1,continuous,5,24,trial,3732548.0,3738133.0,5585.0,5,R,3733522,3733772,252,1420.0,481.8,5235,right
17,1,continuous,5,24,trial,3732548.0,3738133.0,5585.0,5,R,3733802,3734090,290,1471.0,668.6,5330,right
17,1,continuous,5,24,trial,3732548.0,3738133.0,5585.0,5,R,3734112,3734526,416,1461.0,634.4,5286,right
17,1,continuous,5,24,trial,3732548.0,3738133.0,5585.0,5,R,3734608,3735236,630,407.5,565.1,5425,left
17,1,continuous,5,24,trial,3732548.0,3738133.0,5585.0,5,R,3735260,3735524,266,562.8,631.7,5381,left
17,1,continuous,5,24,trial,3732548.0,3738133.0,5585.0,5,R,3735598,3736148,552,1441.3,583.9,5266,right
17,1,continuous,5,24,trial,3732548.0,3738133.0,5585.0,5,R,3736170,3736400,232,1452.4,528.6,5243,right
17,1,continuous,5,24,trial,3732548.0,3738133.0,5585.0,5,R,3736652,3737064,414,480.3,607.0,5465,left
17,1,continuous,5,24,trial,3732548.0,3738133.0,5585.0,5,R,3737136,3737254,120,729.3,1074.0,5478,NA
17,1,continuous,5,24,trial,3732548.0,3738133.0,5585.0,5,R,3737274,3737430,158,717.4,1019.9,5342,NA
17,1,continuous,5,24,trial,3732548.0,3738133.0,5585.0,5,R,3737466,3737708,244,442.9,1042.2,5179,NA
17,1,continuous,5,24,trial,3732548.0,3738133.0,5585.0,5,R,3737736,3737940,206,641.8,1001.4,5180,NA
17,1,continuous,5,24,trial,3732548.0,3738133.0,5585.0,5,R,3737998,3738392,396,374.8,572.4,5223,left
17,1,continuous,6,92,fixationCross,3739231.0,3745648.0,6417.0,6,R,3738572,3738922,352,850.4,691.4,5332,NA
17,1,continuous,6,92,trial,3739231.0,3745648.0,6417.0,6,R,3738962,3739262,302,945.5,541.2,5353,NA
17,1,continuous,6,92,trial,3739231.0,3745648.0,6417.0,6,R,3739284,3739398,116,949.1,570.8,5448,NA
17,1,continuous,6,92,trial,3739231.0,3745648.0,6417.0,6,R,3739454,3739664,212,517.0,543.7,5356,left
17,1,continuous,6,92,trial,3739231.0,3745648.0,6417.0,6,R,3739690,3740014,326,396.2,470.5,5032,left
17,1,continuous,6,92,trial,3739231.0,3745648.0,6417.0,6,R,3740040,3740224,186,491.3,569.1,5043,left
17,1,continuous,6,92,trial,3739231.0,3745648.0,6417.0,6,R,3740294,3740500,208,1359.8,628.0,4972,right
17,1,continuous,6,92,trial,3739231.0,3745648.0,6417.0,6,R,3740536,3740990,456,1447.4,686.3,4809,right
17,1,continuous,6,92,trial,3739231.0,3745648.0,6417.0,6,R,3741056,3741330,276,504.1,535.2,4891,left
17,1,continuous,6,92,trial,3739231.0,3745648.0,6417.0,6,R,3741356,3741520,166,382.3,556.6,5021,left
17,1,continuous,6,92,trial,3739231.0,3745648.0,6417.0,6,R,3741544,3741870,328,415.1,525.2,5058,left
17,1,continuous,6,92,trial,3739231.0,3745648.0,6417.0,6,R,3741906,3742064,160,355.1,409.4,5018,left
17,1,continuous,6,92,trial,3739231.0,3745648.0,6417.0,6,R,3742078,3742302,226,366.8,440.1,5042,left
17,1,continuous,6,92,trial,3739231.0,3745648.0,6417.0,6,R,3742490,3742780,292,1405.4,976.2,5095,NA
17,1,continuous,6,92,trial,3739231.0,3745648.0,6417.0,6,R,3742818,3743044,228,1412.7,606.8,5074,right
17,1,continuous,6,92,trial,3739231.0,3745648.0,6417.0,6,R,3743068,3743402,336,1453.0,713.3,4838,right
17,1,continuous,6,92,trial,3739231.0,3745648.0,6417.0,6,R,3743456,3743786,332,1419.4,1127.3,4786,NA
17,1,continuous,6,92,trial,3739231.0,3745648.0,6417.0,6,R,3743820,3744260,442,1429.7,1049.4,5020,NA
17,1,continuous,6,92,trial,3739231.0,3745648.0,6417.0,6,R,3744436,3744972,538,1428.2,1027.2,5514,NA
17,1,continuous,6,92,trial,3739231.0,3745648.0,6417.0,6,R,3745014,3745824,812,1433.4,678.1,5279,right
17,1,continuous,6,92,postResponse,3739231.0,3745648.0,6417.0,6,R,3745876,3745984,110,891.1,513.7,5337,NA
17,1,continuous,7,53,fixationCross,3746682.0,3753649.0,6967.0,7,R,3746058,3746146,90,891.5,515.2,5446,NA
17,1,continuous,7,53,fixationCross,3746682.0,3753649.0,6967.0,7,R,3746170,3746386,218,781.1,577.5,5497,NA
17,1,continuous,7,53,trial,3746682.0,3753649.0,6967.0,7,R,3746420,3746840,422,929.0,551.7,5406,NA
17,1,continuous,7,53,trial,3746682.0,3753649.0,6967.0,7,R,3746884,3747142,260,540.6,520.0,5412,left
17,1,continuous,7,53,trial,3746682.0,3753649.0,6967.0,7,R,3747174,3747302,130,504.0,595.8,5235,left
17,1,continuous,7,53,trial,3746682.0,3753649.0,6967.0,7,R,3747372,3747704,334,1390.5,559.7,4968,right
17,1,continuous,7,53,trial,3746682.0,3753649.0,6967.0,7,R,3747742,3747914,174,1519.8,432.3,4901,right
17,1,continuous,7,53,trial,3746682.0,3753649.0,6967.0,7,R,3747922,3748208,288,1532.8,440.5,4945,right
17,1,continuous,7,53,trial,3746682.0,3753649.0,6967.0,7,R,3748278,3748470,194,1357.4,935.7,5340,NA
17,1,continuous,7,53,trial,3746682.0,3753649.0,6967.0,7,R,3748548,3748734,188,470.3,553.1,5606,left
17,1,continuous,7,53,trial,3746682.0,3753649.0,6967.0,7,R,3748766,3749118,354,330.1,451.0,5343,left
17,1,continuous,7,53,trial,3746682.0,3753649.0,6967.0,7,R,3749162,3749548,388,524.5,638.5,5019,left
17,1,continuous,7,53,trial,3746682.0,3753649.0,6967.0,7,R,3749570,3749766,198,566.9,626.5,4993,left
17,1,continuous,7,53,trial,3746682.0,3753649.0,6967.0,7,R,3749778,3750214,438,594.8,628.0,4999,left
17,1,continuous,7,53,trial,3746682.0,3753649.0,6967.0,7,R,3750236,3750440,206,678.1,651.3,4910,left
17,1,continuous,7,53,trial,3746682.0,3753649.0,6967.0,7,R,3750594,3750726,134,681.3,620.9,4942,left
17,1,continuous,7,53,trial,3746682.0,3753649.0,6967.0,7,R,3750788,3751362,576,1385.7,531.4,4820,right
17,1,continuous,7,53,trial,3746682.0,3753649.0,6967.0,7,R,3751428,3751856,430,1265.4,1074.0,5001,NA
17,1,continuous,7,53,trial,3746682.0,3753649.0,6967.0,7,R,3751912,3752152,242,1257.6,624.0,5160,right
17,1,continuous,7,53,trial,3746682.0,3753649.0,6967.0,7,R,3752226,3752390,166,649.5,1048.1,5444,NA
17,1,continuous,7,53,trial,3746682.0,3753649.0,6967.0,7,R,3752422,3752684,264,916.7,1025.4,5571,likertHorizontal
17,1,continuous,7,53,trial,3746682.0,3753649.0,6967.0,7,R,3752706,3753056,352,917.2,1024.1,5620,likertHorizontal
17,1,continuous,7,53,trial,3746682.0,3753649.0,6967.0,7,R,3753098,3753452,356,1060.9,580.2,5412,NA
17,1,continuous,7,53,trial,3746682.0,3753649.0,6967.0,7,R,3753518,3753618,102,963.9,1100.2,5446,likertHorizontal
17,1,continuous,7,53,trial,3746682.0,3753649.0,6967.0,7,R,3753638,3753874,238,959.5,1030.3,5556,likertHorizontal
17,1,continuous,8,68,fixationCross,3754682.0,3758232.0,3550.0,8,R,3754110,3754382,274,856.9,375.4,5530,NA
17,1,continuous,8,68,fixationCross,3754682.0,3758232.0,3550.0,8,R,3754414,3754598,186,961.2,580.6,5521,NA
17,1,continuous,8,68,trial,3754682.0,3758232.0,3550.0,8,R,3754622,3754840,220,959.9,548.4,5122,NA
17,1,continuous,8,68,trial,3754682.0,3758232.0,3550.0,8,R,3754888,3755104,218,471.2,506.8,4929,left
17,1,continuous,8,68,trial,3754682.0,3758232.0,3550.0,8,R,3755140,3755388,250,461.2,436.1,4862,left
17,1,continuous,8,68,trial,3754682.0,3758232.0,3550.0,8,R,3755450,3755666,218,436.5,1039.4,5059,NA
17,1,continuous,8,68,trial,3754682.0,3758232.0,3550.0,8,R,3755732,3756022,292,1413.9,616.5,4984,right
17,1,continuous,8,68,trial,3754682.0,3758232.0,3550.0,8,R,3756056,3756272,218,1338.3,419.8,5011,right
17,1,continuous,8,68,trial,3754682.0,3758232.0,3550.0,8,R,3756292,3756570,280,1383.1,429.2,5002,right
17,1,continuous,8,68,trial,3754682.0,3758232.0,3550.0,8,R,3756644,3756876,234,532.2,507.6,5232,left
17,1,continuous,8,68,trial,3754682.0,3758232.0,3550.0,8,R,3756900,3757252,354,463.5,431.5,5204,left
17,1,continuous,8,68,trial,3754682.0,3758232.0,3550.0,8,R,3757284,3757460,178,544.1,455.9,5079,left
17,1,continuous,8,68,trial,3754682.0,3758232.0,3550.0,8,R,3757532,3757672,142,1324.3,715.4,5067,right
17,1,continuous,8,68,trial,3754682.0,3758232.0,3550.0,8,R,3757858,3758276,420,1134.0,1012.7,5381,likertHorizontal
17,1,continuous,8,68,trial,3754682.0,3758232.0,3550.0,8,R,3758298,3758490,194,1085.9,1072.0,5321,likertHorizontal
17,1,continuous,9,14,fixationCross,3759899.0,3763732.0,3833.0,9,R,3758664,3758806,144,793.7,532.7,5205,NA
17,1,continuous,9,14,fixationCross,3759899.0,3763732.0,3833.0,9,R,3758830,3759162,334,629.4,482.7,5200,left
17,1,continuous,9,14,fixationCross,3759899.0,3763732.0,3833.0,9,R,3759178,3759382,206,552.4,489.2,5040,left
17,1,continuous,9,14,fixationCross,3759899.0,3763732.0,3833.0,9,R,3759402,3759568,168,469.5,517.9,4987,left
17,1,continuous,9,14,fixationCross,3759899.0,3763732.0,3833.0,9,R,3759622,3759780,160,892.3,572.9,4998,NA
17,1,continuous,9,14,trial,3759899.0,3763732.0,3833.0,9,R,3759812,3760150,340,965.6,546.5,4949,NA
17,1,continuous,9,14,trial,3759899.0,3763732.0,3833.0,9,R,3760194,3760512,320,568.1,547.9,4892,left
17,1,continuous,9,14,trial,3759899.0,3763732.0,3833.0,9,R,3760586,3760790,206,1483.4,538.8,4750,right
17,1,continuous,9,14,trial,3759899.0,3763732.0,3833.0,9,R,3760814,3761074,262,1490.3,461.1,4729,right
17,1,continuous,9,14,trial,3759899.0,3763732.0,3833.0,9,R,3761098,3761362,266,1546.6,509.9,4714,right
17,1,continuous,9,14,trial,3759899.0,3763732.0,3833.0,9,R,3761444,3761746,304,477.1,546.2,4921,left
17,1,continuous,9,14,trial,3759899.0,3763732.0,3833.0,9,R,3761778,3762088,312,669.5,567.9,4863,left
17,1,continuous,9,14,trial,3759899.0,3763732.0,3833.0,9,R,3762120,3762352,234,433.5,545.4,4909,left
17,1,continuous,9,14,trial,3759899.0,3763732.0,3833.0,9,R,3762412,3762634,224,1274.9,671.0,4911,right
17,1,continuous,9,14,trial,3759899.0,3763732.0,3833.0,9,R,3762658,3762928,272,1382.9,686.4,4870,right
17,1,continuous,9,14,trial,3759899.0,3763732.0,3833.0,9,R,3762954,3763192,240,1474.1,660.4,4825,right
17,1,continuous,9,14,trial,3759899.0,3763732.0,3833.0,9,R,3763266,3763492,228,589.2,1068.0,5094,NA
17,1,continuous,9,14,trial,3759899.0,3763732.0,3833.0,9,R,3763520,3763664,146,428.8,1026.6,5072,NA
17,1,continuous,9,14,trial,3759899.0,3763732.0,3833.0,9,R,3763852,3764020,170,434.0,519.9,4987,left
17,1,continuous,10,21,fixationCross,3765116.0,3768983.0,3867.0,10,R,3764220,3764384,166,936.6,606.5,5197,NA
17,1,continuous,10,21,fixationCross,3765116.0,3768983.0,3867.0,10,R,3764454,3764640,188,830.9,1134.6,5313,likertHorizontal
17,1,continuous,10,21,fixationCross,3765116.0,3768983.0,3867.0,10,R,3764684,3764862,180,917.1,1217.5,5048,likertHorizontal
17,1,continuous,10,21,trial,3765116.0,3768983.0,3867.0,10,R,3764930,3765138,210,942.7,536.8,4886,NA
17,1,continuous,10,21,trial,3765116.0,3768983.0,3867.0,10,R,3765158,3765318,162,970.1,547.4,4905,NA
17,1,continuous,10,21,trial,3765116.0,3768983.0,3867.0,10,R,3765364,3765498,136,527.4,513.2,4896,left
17,1,continuous,10,21,trial,3765116.0,3768983.0,3867.0,10,R,3765524,3765940,418,440.3,539.9,4743,left
17,1,continuous,10,21,trial,3765116.0,3768983.0,3867.0,10,R,3766014,3766248,236,1367.7,511.6,4677,right
17,1,continuous,10,21,trial,3765116.0,3768983.0,3867.0,10,R,3766276,3766612,338,1510.7,478.9,4740,right
17,1,continuous,10,21,trial,3765116.0,3768983.0,3867.0,10,R,3766648,3766894,248,1367.6,592.9,4880,right
17,1,continuous,10,21,trial,3765116.0,3768983.0,3867.0,10,R,3766922,3767112,192,1529.2,553.7,4926,right
17,1,continuous,10,21,trial,3765116.0,3768983.0,3867.0,10,R,3767134,3767330,198,1485.8,476.0,4957,right
17,1,continuous,10,21,trial,3765116.0,3768983.0,3867.0,10,R,3767412,3767816,406,441.0,550.9,5041,left
17,1,continuous,10,21,trial,3765116.0,3768983.0,3867.0,10,R,3767834,3768082,250,450.7,519.2,4918,left
17,1,continuous,10,21,trial,3765116.0,3768983.0,3867.0,10,R,3768154,3768492,340,618.8,1036.0,5035,NA
17,1,continuous,10,21,trial,3765116.0,3768983.0,3867.0,10,R,3768552,3768696,146,454.6,485.0,5002,left
17,1,continuous,10,21,trial,3765116.0,3768983.0,3867.0,10,R,3768730,3769218,490,468.7,542.4,5097,left
17,1,continuous,11,19,fixationCross,3770465.0,3777299.0,6834.0,11,R,3769440,3769656,218,1252.2,524.5,5047,right
17,1,continuous,11,19,fixationCross,3770465.0,3777299.0,6834.0,11,R,3769728,3769970,244,1081.9,1109.9,5273,likertHorizontal
17,1,continuous,11,19,fixationCross,3770465.0,3777299.0,6834.0,11,R,3770032,3770168,138,910.4,1154.6,5251,likertHorizontal
17,1,continuous,11,19,fixationCross,3770465.0,3777299.0,6834.0,11,R,3770222,3770386,166,951.5,563.1,5223,NA
17,1,continuous,11,19,trial,3770465.0,3777299.0,6834.0,11,R,3770412,3770610,200,959.9,531.7,5225,NA
17,1,continuous,11,19,trial,3770465.0,3777299.0,6834.0,11,R,3770664,3770860,198,524.5,517.2,5125,left
17,1,continuous,11,19,trial,3770465.0,3777299.0,6834.0,11,R,3770884,3771248,366,622.0,485.4,4965,left
17,1,continuous,11,19,trial,3770465.0,3777299.0,6834.0,11,R,3771264,3771520,258,628.2,512.4,5020,left
17,1,continuous,11,19,trial,3770465.0,3777299.0,6834.0,11,R,3771534,3771758,226,609.8,489.1,5064,left
17,1,continuous,11,19,trial,3770465.0,3777299.0,6834.0,11,R,3771918,3772246,330,575.6,495.2,5064,left
17,1,continuous,11,19,trial,3770465.0,3777299.0,6834.0,11,R,3772316,3772574,260,1323.1,594.1,4854,right
17,1,continuous,11,19,trial,3770465.0,3777299.0,6834.0,11,R,3772608,3772834,228,1269.6,427.1,4708,right
17,1,continuous,11,19,trial,3770465.0,3777299.0,6834.0,11,R,3772852,3773146,296,1281.2,393.9,4691,right
17,1,continuous,11,19,trial,3770465.0,3777299.0,6834.0,11,R,3773190,3773466,278,1568.5,664.4,4794,right
17,1,continuous,11,19,trial,3770465.0,3777299.0,6834.0,11,R,3773492,3773832,342,1403.7,671.6,4905,right
17,1,continuous,11,19,trial,3770465.0,3777299.0,6834.0,11,R,3773858,3774110,254,1272.1,687.8,4924,right
17,1,continuous,11,19,trial,3770465.0,3777299.0,6834.0,11,R,3774128,3774352,226,1254.6,631.1,5006,right
17,1,continuous,11,19,trial,3770465.0,3777299.0,6834.0,11,R,3774366,3774934,570,1247.8,586.4,4945,right
17,1,continuous,11,19,trial,3770465.0,3777299.0,6834.0,11,R,3775002,3775242,242,568.8,525.5,5051,left
17,1,continuous,11,19,trial,3770465.0,3777299.0,6834.0,11,R,3775264,3775542,280,610.6,521.6,4994,left
17,1,continuous,11,19,trial,3770465.0,3777299.0,6834.0,11,R,3775612,3775764,154,592.8,1031.7,4904,NA
17,1,continuous,11,19,trial,3770465.0,3777299.0,6834.0,11,R,3775790,3775922,134,435.6,1075.7,4955,NA
17,1,continuous,11,19,trial,3770465.0,3777299.0,6834.0,11,R,3776120,3776258,140,491.6,1028.1,5004,NA
17,1,continuous,11,19,trial,3770465.0,3777299.0,6834.0,11,R,3776292,3776522,232,576.4,1022.9,5025,NA
17,1,continuous,11,19,trial,3770465.0,3777299.0,6834.0,11,R,3776676,3776930,256,581.3,490.6,4912,left
17,1,continuous,11,19,trial,3770465.0,3777299.0,6834.0,11,R,3776952,3777232,282,624.1,536.4,4912,left
17,1,continuous,11,19,trial,3770465.0,3777299.0,6834.0,11,R,3777298,3777564,268,1312.9,885.6,4808,NA
17,1,continuous,12,51,fixationCross,3778549.0,3784766.0,6217.0,12,R,3777730,3777764,36,655.7,1175.7,5094,NA
17,1,continuous,12,51,fixationCross,3778549.0,3784766.0,6217.0,12,R,3777810,3778042,234,904.5,1249.7,5113,likertHorizontal
17,1,continuous,12,51,fixationCross,3778549.0,3784766.0,6217.0,12,R,3778100,3778242,144,757.1,563.8,5222,NA
17,1,continuous,12,51,fixationCross,3778549.0,3784766.0,6217.0,12,R,3778280,3778502,224,940.0,534.6,5272,NA
17,1,continuous,12,51,trial,3778549.0,3784766.0,6217.0,12,R,3778554,3778772,220,496.1,663.5,5400,left
17,1,continuous,12,51,trial,3778549.0,3784766.0,6217.0,12,R,3778802,3779022,222,444.1,541.3,5199,left
17,1,continuous,12,51,trial,3778549.0,3784766.0,6217.0,12,R,3779100,3779398,300,1436.1,605.7,4681,right
17,1,continuous,12,51,trial,3778549.0,3784766.0,6217.0,12,R,3779426,3779698,274,1281.8,562.2,4809,right
17,1,continuous,12,51,trial,3778549.0,3784766.0,6217.0,12,R,3779870,3780224,356,1531.4,553.6,5027,right
17,1,continuous,12,51,trial,3778549.0,3784766.0,6217.0,12,R,3780246,3780746,502,1422.9,580.3,4957,right
17,1,continuous,12,51,trial,3778549.0,3784766.0,6217.0,12,R,3780762,3781288,528,1389.6,547.0,5035,right
17,1,continuous,12,51,trial,3778549.0,3784766.0,6217.0,12,R,3781324,3781580,258,1575.1,589.1,5171,right
17,1,continuous,12,51,trial,3778549.0,3784766.0,6217.0,12,R,3781674,3782034,362,453.8,553.3,5388,left
17,1,continuous,12,51,trial,3778549.0,3784766.0,6217.0,12,R,3782058,3782452,396,583.5,586.2,5037,left
17,1,continuous,12,51,trial,3778549.0,3784766.0,6217.0,12,R,3782520,3782678,160,1337.7,616.6,4800,right
17,1,continuous,12,51,trial,3778549.0,3784766.0,6217.0,12,R,3782748,3783028,282,954.9,1024.6,5101,likertHorizontal
17,1,continuous,12,51,trial,3778549.0,3784766.0,6217.0,12,R,3783088,3783824,738,981.3,448.1,5145,NA
17,1,continuous,12,51,trial,3778549.0,3784766.0,6217.0,12,R,3783888,3784022,136,890.7,804.0,5323,likertHorizontal
17,1,continuous,12,51,trial,3778549.0,3784766.0,6217.0,12,R,3784068,3784384,318,526.5,598.8,5362,left
17,1,continuous,12,51,trial,3778549.0,3784766.0,6217.0,12,R,3784406,3784592,188,446.5,561.0,5141,left
17,1,continuous,12,51,trial,3778549.0,3784766.0,6217.0,12,R,3784668,3785020,354,1415.4,580.3,4879,right
17,1,continuous,13,28,fixationCross,3786149.0,3792699.0,6550.0,13,R,3785212,3785352,142,828.1,542.2,5151,NA
17,1,continuous,13,28,fixationCross,3786149.0,3792699.0,6550.0,13,R,3785418,3785586,170,835.5,1022.6,5360,likertHorizontal
17,1,continuous,13,28,fixationCross,3786149.0,3792699.0,6550.0,13,R,3785632,3785838,208,923.7,1242.6,5417,likertHorizontal
17,1,continuous,13,28,fixationCross,3786149.0,3792699.0,6550.0,13,R,3785906,3786034,130,943.8,505.4,5297,NA
17,1,continuous,13,28,trial,3786149.0,3792699.0,6550.0,13,R,3786060,3786296,238,960.7,570.5,5337,NA
17,1,continuous,13,28,trial,3786149.0,3792699.0,6550.0,13,R,3786350,3786532,184,532.9,510.9,5204,left
17,1,continuous,13,28,trial,3786149.0,3792699.0,6550.0,13,R,3786558,3787026,470,400.7,520.9,4923,left
17,1,continuous,13,28,trial,3786149.0,3792699.0,6550.0,13,R,3787058,3787192,136,528.9,493.5,4976,left
17,1,continuous,13,28,trial,3786149.0,3792699.0,6550.0,13,R,3787266,3787548,284,1484.1,526.7,4906,right
17,1,continuous,13,28,trial,3786149.0,3792699.0,6550.0,13,R,3787576,3787756,182,1538.1,539.1,4970,right
17,1,continuous,13,28,trial,3786149.0,3792699.0,6550.0,13,R,3787794,3788098,306,1262.9,643.8,5047,right
17,1,continuous,13,28,trial,3786149.0,3792699.0,6550.0,13,R,3788132,3788498,368,1327.9,404.9,4923,right
17,1,continuous,13,28,trial,3786149.0,3792699.0,6550.0,13,R,3788530,3788896,368,1532.2,519.1,4951,right
17,1,continuous,13,28,trial,3786149.0,3792699.0,6550.0,13,R,3789060,3789658,600,525.0,513.1,5090,left
17,1,continuous,13,28,trial,3786149.0,3792699.0,6550.0,13,R,3789692,3789916,226,285.2,613.6,4938,left
17,1,continuous,13,28,trial,3786149.0,3792699.0,6550.0,13,R,3789978,3790330,354,957.5,1029.8,4957,likertHorizontal
17,1,continuous,13,28,trial,3786149.0,3792699.0,6550.0,13,R,3790388,3790532,146,978.7,502.6,4912,NA
17,1,continuous,13,28,trial,3786149.0,3792699.0,6550.0,13,R,3790588,3790822,236,497.7,470.7,5066,left
17,1,continuous,13,28,trial,3786149.0,3792699.0,6550.0,13,R,3790852,3791128,278,276.3,601.5,5110,left
17,1,continuous,13,28,trial,3786149.0,3792699.0,6550.0,13,R,3791306,3791396,92,446.9,898.3,5096,NA
17,1,continuous,13,28,trial,3786149.0,3792699.0,6550.0,13,R,3791434,3791662,230,461.3,1063.3,5154,NA
17,1,continuous,13,28,trial,3786149.0,3792699.0,6550.0,13,R,3791722,3791944,224,399.5,650.2,5073,left
17,1,continuous,13,28,trial,3786149.0,3792699.0,6550.0,13,R,3791972,3792366,396,468.5,527.0,4904,left
17,1,continuous,13,28,trial,3786149.0,3792699.0,6550.0,13,R,3792436,3792610,176,1249.0,646.3,4906,right
17,1,continuous,13,28,trial,3786149.0,3792699.0,6550.0,13,R,3792650,3792952,304,1545.2,531.0,4910,right
17,1,continuous,13,28,postResponse,3786149.0,3792699.0,6550.0,13,R,3792976,3793032,58,1459.0,580.9,4972,right
17,1,continuous,14,100,fixationCross,3794899.0,3799449.0,4550.0,14,R,3793132,3793246,116,1451.0,583.5,4989,right
17,1,continuous,14,100,fixationCross,3794899.0,3799449.0,4550.0,14,R,3793318,3793496,180,797.7,815.7,5103,likertHorizontal
17,1,continuous,14,100,fixationCross,3794899.0,3799449.0,4550.0,14,R,3793546,3793840,296,765.5,510.6,5129,NA
17,1,continuous,14,100,fixationCross,3794899.0,3799449.0,4550.0,14,R,3793868,3794106,240,517.3,526.2,5151,left
17,1,continuous,14,100,fixationCross,3794899.0,3799449.0,4550.0,14,R,3794126,3794390,266,492.6,526.8,5175,left
17,1,continuous,14,100,fixationCross,3794899.0,3799449.0,4550.0,14,R,3794436,3794610,176,853.8,547.5,5036,NA
17,1,continuous,14,100,fixationCross,3794899.0,3799449.0,4550.0,14,R,3794644,3794772,130,959.0,552.9,4982,NA
17,1,continuous,14,100,trial,3794899.0,3799449.0,4550.0,14,R,3795000,3795124,126,743.5,517.5,5057,NA
17,1,continuous,14,100,trial,3794899.0,3799449.0,4550.0,14,R,3795168,3795560,394,456.7,547.2,5093,left
17,1,continuous,14,100,trial,3794899.0,3799449.0,4550.0,14,R,3795584,3795840,258,508.9,568.2,4803,left
17,1,continuous,14,100,trial,3794899.0,3799449.0,4550.0,14,R,3795914,3796250,338,1459.7,564.0,4430,right
17,1,continuous,14,100,trial,3794899.0,3799449.0,4550.0,14,R,3796280,3796502,224,1485.0,443.8,4462,right
17,1,continuous,14,100,trial,3794899.0,3799449.0,4550.0,14,R,3796520,3796732,214,1481.8,486.7,4561,right
17,1,continuous,14,100,trial,3794899.0,3799449.0,4550.0,14,R,3796744,3797422,680,1480.0,467.2,4624,right
17,1,continuous,14,100,trial,3794899.0,3799449.0,4550.0,14,R,3797496,3797848,354,1277.5,1090.6,5010,NA
17,1,continuous,14,100,trial,3794899.0,3799449.0,4550.0,14,R,3797888,3798186,300,1388.0,525.0,4973,right
17,1,continuous,14,100,trial,3794899.0,3799449.0,4550.0,14,R,3798212,3798502,292,1497.0,482.0,5023,right
17,1,continuous,14,100,trial,3794899.0,3799449.0,4550.0,14,R,3798520,3798684,166,1476.4,478.6,5132,right
17,1,continuous,14,100,trial,3794899.0,3799449.0,4550.0,14,R,3798770,3799254,486,484.4,546.1,5193,left
17,1,continuous,14,100,trial,3794899.0,3799449.0,4550.0,14,R,3799276,3799492,218,521.3,635.1,5042,left
17,1,continuous,14,100,postResponse,3794899.0,3799449.0,4550.0,14,R,3799658,3799782,126,548.5,554.8,5142,left
17,1,continuous,15,87,fixationCross,3800633.0,3809166.0,8533.0,15,R,3799894,3800090,198,1033.5,955.6,5262,likertHorizontal
17,1,continuous,15,87,fixationCross,3800633.0,3809166.0,8533.0,15,R,3800142,3800308,168,915.0,1244.5,5270,likertHorizontal
17,1,continuous,15,87,fixationCross,3800633.0,3809166.0,8533.0,15,R,3800364,3800540,178,946.0,517.8,5195,NA
17,1,continuous,15,87,trial,3800633.0,3809166.0,8533.0,15,R,3800560,3800774,216,968.4,548.1,5262,NA
17,1,continuous,15,87,trial,3800633.0,3809166.0,8533.0,15,R,3800818,3800998,182,535.1,558.7,5242,left
17,1,continuous,15,87,trial,3800633.0,3809166.0,8533.0,15,R,3801024,3801428,406,420.4,507.6,5049,left
17,1,continuous,15,87,trial,3800633.0,3809166.0,8533.0,15,R,3801468,3801658,192,381.0,705.2,5129,left
17,1,continuous,15,87,trial,3800633.0,3809166.0,8533.0,15,R,3801670,3801772,104,369.0,683.4,5162,left
17,1,continuous,15,87,trial,3800633.0,3809166.0,8533.0,15,R,3801848,3802112,266,1381.5,616.6,4905,right
17,1,continuous,15,87,trial,3800633.0,3809166.0,8533.0,15,R,3802146,3802382,238,1446.4,452.7,4836,right
17,1,continuous,15,87,trial,3800633.0,3809166.0,8533.0,15,R,3802456,3802680,226,515.8,555.0,4956,left
17,1,continuous,15,87,trial,3800633.0,3809166.0,8533.0,15,R,3802706,3802878,174,378.9,613.4,4961,left
17,1,continuous,15,87,trial,3800633.0,3809166.0,8533.0,15,R,3802898,3803456,560,348.7,684.4,5060,left
17,1,continuous,15,87,trial,3800633.0,3809166.0,8533.0,15,R,3803614,3803820,208,370.9,666.4,5188,left
17,1,continuous,15,87,trial,3800633.0,3809166.0,8533.0,15,R,3804006,3804236,232,1428.9,642.1,5057,right
17,1,continuous,15,87,trial,3800633.0,3809166.0,8533.0,15,R,3804280,3804790,512,1446.0,510.6,4847,right
17,1,continuous,15,87,trial,3800633.0,3809166.0,8533.0,15,R,3804800,3805018,220,1413.5,505.6,4846,right
17,1,continuous,15,87,trial,3800633.0,3809166.0,8533.0,15,R,3805060,3805284,226,1335.2,682.3,5086,right
17,1,continuous,15,87,trial,3800633.0,3809166.0,8533.0,15,R,3805310,3805554,246,1385.5,599.4,5138,right
17,1,continuous,15,87,trial,3800633.0,3809166.0,8533.0,15,R,3805588,3806044,458,1474.8,504.9,5140,right
17,1,continuous,15,87,trial,3800633.0,3809166.0,8533.0,15,R,3806076,3806414,340,1409.0,486.7,5159,right
17,1,continuous,15,87,trial,3800633.0,3809166.0,8533.0,15,R,3806494,3806692,200,523.7,1004.2,5538,NA
17,1,continuous,15,87,trial,3800633.0,3809166.0,8533.0,15,R,3806740,3807054,316,345.0,594.8,5432,left
17,1,continuous,15,87,trial,3800633.0,3809166.0,8533.0,15,R,3807080,3807332,254,399.6,662.5,5321,left
17,1,continuous,15,87,trial,3800633.0,3809166.0,8533.0,15,R,3807344,3807520,178,377.1,678.3,5315,left
17,1,continuous,15,87,trial,3800633.0,3809166.0,8533.0,15,R,3807700,3807890,192,1414.0,604.2,5230,right
17,1,continuous,15,87,trial,3800633.0,3809166.0,8533.0,15,R,3807936,3808360,426,1472.9,447.0,4931,right
17,1,continuous,15,87,trial,3800633.0,3809166.0,8533.0,15,R,3808418,3808690,274,1156.2,1085.6,4848,likertHorizontal
17,1,continuous,15,87,trial,3800633.0,3809166.0,8533.0,15,R,3808726,3809100,376,1285.4,1028.6,5046,NA
17,1,continuous,15,87,postResponse,3800633.0,3809166.0,8533.0,15,R,3809154,3809500,348,1365.1,566.1,5086,right
17,1,continuous,16,50,fixationCross,3810249.0,3814233.0,3984.0,16,R,3809574,3809608,36,1366.2,549.1,5074,right
17,1,continuous,16,50,fixationCross,3810249.0,3814233.0,3984.0,16,R,3809798,3809938,142,742.6,657.2,5033,NA
17,1,continuous,16,50,fixationCross,3810249.0,3814233.0,3984.0,16,R,3809976,3810170,196,956.7,574.8,4985,NA
17,1,continuous,16,50,trial,3810249.0,3814233.0,3984.0,16,R,3810182,3810392,212,953.5,549.7,4845,NA
17,1,continuous,16,50,trial,3810249.0,3814233.0,3984.0,16,R,3810446,3810822,378,531.1,555.4,4636,left
17,1,continuous,16,50,trial,3810249.0,3814233.0,3984.0,16,R,3810844,3811104,262,458.9,561.6,4637,left
17,1,continuous,16,50,trial,3810249.0,3814233.0,3984.0,16,R,3811178,3811506,330,1388.7,545.9,4480,right
17,1,continuous,16,50,trial,3810249.0,3814233.0,3984.0,16,R,3811530,3812004,476,1555.7,580.2,4538,right
17,1,continuous,16,50,trial,3810249.0,3814233.0,3984.0,16,R,3812032,3812428,398,1611.2,675.3,4652,right
17,1,continuous,16,50,trial,3810249.0,3814233.0,3984.0,16,R,3812458,3812868,412,1554.2,564.0,4789,right
17,1,continuous,16,50,trial,3810249.0,3814233.0,3984.0,16,R,3812946,3813212,268,751.6,694.8,5042,NA
17,1,continuous,16,50,trial,3810249.0,3814233.0,3984.0,16,R,3813374,3813662,290,866.6,1011.3,5294,likertHorizontal
17,1,continuous,16,50,trial,3810249.0,3814233.0,3984.0,16,R,3813700,3814050,352,990.7,965.5,5186,likertHorizontal
17,1,continuous,16,50,trial,3810249.0,3814233.0,3984.0,16,R,3814108,3814264,158,868.6,629.3,5117,NA
17,1,continuous,16,50,trial,3810249.0,3814233.0,3984.0,16,R,3814316,3814428,114,576.8,590.1,5174,left
17,1,continuous,17,81,fixationCross,3815683.0,3817999.0,2316.0,17,R,3814668,3814864,198,617.4,338.2,5149,NA
17,1,continuous,17,81,fixationCross,3815683.0,3817999.0,2316.0,17,R,3814914,3815132,220,698.1,552.1,5212,left
17,1,continuous,17,81,fixationCross,3815683.0,3817999.0,2316.0,17,R,3815158,3815374,218,720.6,536.8,4939,left
17,1,continuous,17,81,fixationCross,3815683.0,3817999.0,2316.0,17,R,3815398,3815576,180,867.1,572.3,4882,NA
17,1,continuous,17,81,trial,3815683.0,3817999.0,2316.0,17,R,3815600,3815832,234,947.4,558.7,5005,NA
17,1,continuous,17,81,trial,3815683.0,3817999.0,2316.0,17,R,3815874,3816142,270,545.9,529.4,5012,left
17,1,continuous,17,81,trial,3815683.0,3817999.0,2316.0,17,R,3816212,3816900,690,1416.3,526.5,4727,right
17,1,continuous,17,81,trial,3815683.0,3817999.0,2316.0,17,R,3816974,3817088,116,1028.5,1111.5,5082,likertHorizontal
17,1,continuous,17,81,trial,3815683.0,3817999.0,2316.0,17,R,3817126,3817268,144,1173.9,1010.1,5206,likertHorizontal
17,1,continuous,17,81,trial,3815683.0,3817999.0,2316.0,17,R,3817460,3817990,532,467.2,525.1,5241,left
17,1,continuous,17,81,postResponse,3815683.0,3817999.0,2316.0,17,R,3818066,3818332,268,1416.8,544.6,4865,right
17,1,continuous,18,31,fixationCross,3819283.0,3821833.0,2550.0,18,R,3818528,3818668,142,801.4,863.7,5143,likertHorizontal
17,1,continuous,18,31,fixationCross,3819283.0,3821833.0,2550.0,18,R,3818722,3818940,220,906.0,1202.0,5202,likertHorizontal
17,1,continuous,18,31,fixationCross,3819283.0,3821833.0,2550.0,18,R,3818996,3819170,176,926.7,586.7,5326,NA
17,1,continuous,18,31,trial,3819283.0,3821833.0,2550.0,18,R,3819194,3819440,248,947.5,560.6,5274,NA
17,1,continuous,18,31,trial,3819283.0,3821833.0,2550.0,18,R,3819496,3819978,484,468.8,551.0,4830,left
17,1,continuous,18,31,trial,3819283.0,3821833.0,2550.0,18,R,3820052,3820388,338,1395.0,580.7,4711,right
17,1,continuous,18,31,trial,3819283.0,3821833.0,2550.0,18,R,3820414,3820716,304,1342.1,467.6,4807,right
17,1,continuous,18,31,trial,3819283.0,3821833.0,2550.0,18,R,3820794,3821230,438,441.0,580.2,4993,left
17,1,continuous,18,31,trial,3819283.0,3821833.0,2550.0,18,R,3821296,3821642,348,613.2,1019.6,5056,NA
17,1,continuous,18,31,trial,3819283.0,3821833.0,2550.0,18,R,3821810,3822088,280,409.7,549.6,5046,left
17,1,continuous,19,1,fixationCross,3823383.0,3829517.0,6134.0,19,R,3822300,3822502,204,902.1,637.3,5199,NA
17,1,continuous,19,1,fixationCross,3823383.0,3829517.0,6134.0,19,R,3822568,3822684,118,878.2,1064.7,5271,likertHorizontal
17,1,continuous,19,1,fixationCross,3823383.0,3829517.0,6134.0,19,R,3822710,3822896,188,940.0,1235.2,5193,likertHorizontal
17,1,continuous,19,1,fixationCross,3823383.0,3829517.0,6134.0,19,R,3822946,3823134,190,857.3,521.9,5035,NA
17,1,continuous,19,1,trial,3823383.0,3829517.0,6134.0,19,R,3823172,3823396,226,960.8,542.4,5013,NA
17,1,continuous,19,1,trial,3823383.0,3829517.0,6134.0,19,R,3823454,3823626,174,623.4,638.5,5024,left
17,1,continuous,19,1,trial,3823383.0,3829517.0,6134.0,19,R,3823658,3823996,340,395.0,494.9,4923,left
17,1,continuous,19,1,trial,3823383.0,3829517.0,6134.0,19,R,3824062,3824348,288,1434.9,530.3,4657,right
17,1,continuous,19,1,trial,3823383.0,3829517.0,6134.0,19,R,3824378,3824530,154,1525.3,433.4,4760,right
17,1,continuous,19,1,trial,3823383.0,3829517.0,6134.0,19,R,3824546,3824840,296,1508.7,461.3,4909,right
17,1,continuous,19,1,trial,3823383.0,3829517.0,6134.0,19,R,3824884,3825224,342,1337.5,608.3,5076,right
17,1,continuous,19,1,trial,3823383.0,3829517.0,6134.0,19,R,3825424,3825914,492,1353.0,570.0,5315,right
17,1,continuous,19,1,trial,3823383.0,3829517.0,6134.0,19,R,3825922,3826190,270,1332.2,603.1,5242,right
17,1,continuous,19,1,trial,3823383.0,3829517.0,6134.0,19,R,3826202,3826566,366,1323.7,577.3,5257,right
17,1,continuous,19,1,trial,3823383.0,3829517.0,6134.0,19,R,3826604,3826756,154,1425.0,541.6,5191,right
17,1,continuous,19,1,trial,3823383.0,3829517.0,6134.0,19,R,3826834,3827326,494,452.7,541.0,5204,left
17,1,continuous,19,1,trial,3823383.0,3829517.0,6134.0,19,R,3827390,3827630,242,596.3,992.0,4959,NA
17,1,continuous,19,1,trial,3823383.0,3829517.0,6134.0,19,R,3827662,3827808,148,534.6,1023.5,5211,NA
17,1,continuous,19,1,trial,3823383.0,3829517.0,6134.0,19,R,3827846,3828114,270,419.8,996.8,5365,NA
17,1,continuous,19,1,trial,3823383.0,3829517.0,6134.0,19,R,3828296,3828732,438,808.2,946.0,5493,likertHorizontal
17,1,continuous,19,1,trial,3823383.0,3829517.0,6134.0,19,R,3828790,3829020,232,562.6,691.8,5360,left
17,1,continuous,19,1,trial,3823383.0,3829517.0,6134.0,19,R,3829200,3829346,148,506.0,966.6,5344,NA
17,1,continuous,19,1,trial,3823383.0,3829517.0,6134.0,19,R,3829380,3829726,348,428.9,973.5,5397,NA
17,1,continuous,20,52,fixationCross,3831083.0,3836633.0,5550.0,20,R,3829954,3830068,116,1006.8,367.0,5086,NA
17,1,continuous,20,52,fixationCross,3831083.0,3836633.0,5550.0,20,R,3830108,3830308,202,806.9,490.4,5115,NA
17,1,continuous,20,52,fixationCross,3831083.0,3836633.0,5550.0,20,R,3830336,3830550,216,660.5,612.8,4997,left
17,1,continuous,20,52,fixationCross,3831083.0,3836633.0,5550.0,20,R,3830574,3830748,176,541.7,541.2,4907,left
17,1,continuous,20,52,fixationCross,3831083.0,3836633.0,5550.0,20,R,3830796,3831000,206,870.8,564.6,4985,NA
17,1,continuous,20,52,trial,3831083.0,3836633.0,5550.0,20,R,3831032,3831158,128,941.8,558.6,5127,NA
17,1,continuous,20,52,trial,3831083.0,3836633.0,5550.0,20,R,3831168,3831290,124,943.3,545.8,5150,NA
17,1,continuous,20,52,trial,3831083.0,3836633.0,5550.0,20,R,3831344,3831600,258,503.8,469.8,5085,left
17,1,continuous,20,52,trial,3831083.0,3836633.0,5550.0,20,R,3831624,3831914,292,550.7,455.7,5029,left
17,1,continuous,20,52,trial,3831083.0,3836633.0,5550.0,20,R,3831940,3832304,366,429.8,441.2,5130,left
17,1,continuous,20,52,trial,3831083.0,3836633.0,5550.0,20,R,3832618,3832812,196,488.7,478.4,5270,left
17,1,continuous,20,52,trial,3831083.0,3836633.0,5550.0,20,R,3832880,3833108,230,1256.8,472.7,5313,right
17,1,continuous,20,52,trial,3831083.0,3836633.0,5550.0,20,R,3833136,3833512,378,1408.2,636.2,4997,right
17,1,continuous,20,52,trial,3831083.0,3836633.0,5550.0,20,R,3833590,3833904,316,482.5,513.5,4987,left
17,1,continuous,20,52,trial,3831083.0,3836633.0,5550.0,20,R,3833938,3834112,176,547.1,445.6,4968,left
17,1,continuous,20,52,trial,3831083.0,3836633.0,5550.0,20,R,3834124,3834698,576,560.9,464.7,4922,left
17,1,continuous,20,52,trial,3831083.0,3836633.0,5550.0,20,R,3834756,3835246,492,850.6,979.7,4987,likertHorizontal
17,1,continuous,20,52,trial,3831083.0,3836633.0,5550.0,20,R,3835282,3835634,354,930.1,1023.6,5191,likertHorizontal
17,1,continuous,20,52,trial,3831083.0,3836633.0,5550.0,20,R,3835694,3836076,384,954.9,503.5,5031,NA
17,1,continuous,20,52,trial,3831083.0,3836633.0,5550.0,20,R,3836126,3836344,220,967.5,876.1,4972,likertHorizontal
17,1,continuous,20,52,trial,3831083.0,3836633.0,5550.0,20,R,3836394,3836604,212,515.1,500.2,5078,left
17,1,continuous,20,52,trial,3831083.0,3836633.0,5550.0,20,R,3836628,3836866,240,537.4,464.1,5092,left
17,1,continuous,21,79,fixationCross,3837833.0,3841400.0,3567.0,21,R,3837042,3837218,178,882.8,479.5,5006,NA
17,1,continuous,21,79,fixationCross,3837833.0,3841400.0,3567.0,21,R,3837276,3837526,252,807.4,1085.7,5262,likertHorizontal
17,1,continuous,21,79,trial,3837833.0,3841400.0,3567.0,21,R,3837570,3837984,416,956.6,524.1,5119,NA
17,1,continuous,21,79,trial,3837833.0,3841400.0,3567.0,21,R,3838032,3838286,256,526.3,534.4,5109,left
17,1,continuous,21,79,trial,3837833.0,3841400.0,3567.0,21,R,3838358,3838688,332,1419.6,563.1,4828,right
17,1,continuous,21,79,trial,3837833.0,3841400.0,3567.0,21,R,3838712,3839098,388,1367.1,465.8,4777,right
17,1,continuous,21,79,trial,3837833.0,3841400.0,3567.0,21,R,3839162,3839342,182,1338.7,918.0,4854,NA
17,1,continuous,21,79,trial,3837833.0,3841400.0,3567.0,21,R,3839382,3839652,272,1446.6,1113.9,4975,NA
17,1,continuous,21,79,trial,3837833.0,3841400.0,3567.0,21,R,3839686,3839854,170,1334.6,1055.9,5075,NA
17,1,continuous,21,79,trial,3837833.0,3841400.0,3567.0,21,R,3839886,3840046,162,1247.7,1014.4,5096,NA
17,1,continuous,21,79,trial,3837833.0,3841400.0,3567.0,21,R,3840164,3840506,344,476.5,504.8,5053,left
17,1,continuous,21,79,trial,3837833.0,3841400.0,3567.0,21,R,3840586,3840800,216,1354.9,1164.9,4836,NA
17,1,continuous,21,79,trial,3837833.0,3841400.0,3567.0,21,R,3840826,3841620,796,1254.1,1022.7,5094,NA
17,1,continuous,22,1,fixationCross,3842617.0,3845950.0,3333.0,22,R,3841840,3842080,242,874.2,472.8,5125,NA
17,1,continuous,22,1,fixationCross,3842617.0,3845950.0,3333.0,22,R,3842132,3842302,172,670.0,614.1,5258,left
17,1,continuous,22,1,fixationCross,3842617.0,3845950.0,3333.0,22,R,3842340,3842476,138,898.5,555.1,5136,NA
17,1,continuous,22,1,trial,3842617.0,3845950.0,3333.0,22,R,3842508,3842756,250,964.1,551.0,5039,NA
17,1,continuous,22,1,trial,3842617.0,3845950.0,3333.0,22,R,3842810,3842992,184,539.6,587.8,5063,left
17,1,continuous,22,1,trial,3842617.0,3845950.0,3333.0,22,R,3843026,3843220,196,651.5,580.9,4875,left
17,1,continuous,22,1,trial,3842617.0,3845950.0,3333.0,22,R,3843258,3843626,370,321.1,472.0,4769,left
17,1,continuous,22,1,trial,3842617.0,3845950.0,3333.0,22,R,3843678,3843846,170,683.0,575.0,4775,left
17,1,continuous,22,1,trial,3842617.0,3845950.0,3333.0,22,R,3843908,3844130,224,1390.8,555.4,4730,right
17,1,continuous,22,1,trial,3842617.0,3845950.0,3333.0,22,R,3844152,3844472,322,1359.1,605.7,4859,right
17,1,continuous,22,1,trial,3842617.0,3845950.0,3333.0,22,R,3844540,3844760,222,411.7,496.2,5042,left
17,1,continuous,22,1,trial,3842617.0,3845950.0,3333.0,22,R,3844816,3844986,172,458.5,955.5,5131,NA
17,1,continuous,22,1,trial,3842617.0,3845950.0,3333.0,22,R,3845016,3845300,286,469.3,1037.2,5146,NA
17,1,continuous,22,1,trial,3842617.0,3845950.0,3333.0,22,R,3845354,3845474,122,415.4,635.6,5109,left
17,1,continuous,22,1,trial,3842617.0,3845950.0,3333.0,22,R,3845502,3845734,234,336.2,476.5,4988,left
17,1,continuous,22,1,trial,3842617.0,3845950.0,3333.0,22,R,3845784,3845942,160,684.1,587.9,4829,left
17,1,continuous,22,1,trial,3842617.0,3845950.0,3333.0,22,R,3846006,3846238,234,1355.6,619.4,4850,right
17,1,continuous,23,33,fixationCross,3847050.0,3849716.0,2666.0,23,R,3846444,3846722,280,875.1,664.5,5184,NA
17,1,continuous,23,33,trial,3847050.0,3849716.0,2666.0,23,R,3846748,3847182,436,966.2,550.2,5164,NA
17,1,continuous,23,33,trial,3847050.0,3849716.0,2666.0,23,R,3847234,3847484,252,519.5,564.1,5034,left
17,1,continuous,23,33,trial,3847050.0,3849716.0,2666.0,23,R,3847554,3848032,480,1358.2,575.6,4632,right
17,1,continuous,23,33,trial,3847050.0,3849716.0,2666.0,23,R,3848056,3848486,432,1521.4,598.4,4698,right
17,1,continuous,23,33,trial,3847050.0,3849716.0,2666.0,23,R,3848576,3849014,440,422.4,540.2,4840,left
17,1,continuous,23,33,trial,3847050.0,3849716.0,2666.0,23,R,3849084,3849580,498,631.9,1028.5,4866,NA
17,1,continuous,23,33,trial,3847050.0,3849716.0,2666.0,23,R,3849614,3849896,284,742.3,988.7,5003,likertHorizontal
17,1,continuous,24,85,fixationCross,3850850.0,3857067.0,6217.0,24,R,3850152,3850346,196,983.5,543.3,5087,NA
17,1,continuous,24,85,fixationCross,3850850.0,3857067.0,6217.0,24,R,3850396,3850608,214,792.1,596.4,5216,NA
17,1,continuous,24,85,trial,3850850.0,3857067.0,6217.0,24,R,3850642,3851050,410,941.6,558.4,5059,NA
17,1,continuous,24,85,trial,3850850.0,3857067.0,6217.0,24,R,3851094,3851362,270,536.7,615.2,4985,left
17,1,continuous,24,85,trial,3850850.0,3857067.0,6217.0,24,R,3851432,3851696,266,1362.9,596.7,4756,right
17,1,continuous,24,85,trial,3850850.0,3857067.0,6217.0,24,R,3851714,3852002,290,1343.3,611.5,4787,right
17,1,continuous,24,85,trial,3850850.0,3857067.0,6217.0,24,R,3852188,3852394,208,1368.7,583.7,4862,right
17,1,continuous,24,85,trial,3850850.0,3857067.0,6217.0,24,R,3852418,3852650,234,1336.4,551.7,4884,right
17,1,continuous,24,85,trial,3850850.0,3857067.0,6217.0,24,R,3852670,3853148,480,1331.7,576.1,4776,right
17,1,continuous,24,85,trial,3850850.0,3857067.0,6217.0,24,R,3853166,3853934,770,1355.3,615.9,4946,right
17,1,continuous,24,85,trial,3850850.0,3857067.0,6217.0,24,R,3854010,3854142,134,523.6,631.9,5267,left
17,1,continuous,24,85,trial,3850850.0,3857067.0,6217.0,24,R,3854306,3854530,226,443.3,607.9,5429,left
17,1,continuous,24,85,trial,3850850.0,3857067.0,6217.0,24,R,3854552,3854762,212,431.8,561.8,5455,left
17,1,continuous,24,85,trial,3850850.0,3857067.0,6217.0,24,R,3854782,3855098,318,449.0,553.7,5133,left
17,1,continuous,24,85,trial,3850850.0,3857067.0,6217.0,24,R,3855132,3855402,272,548.4,666.9,4963,left
17,1,continuous,24,85,trial,3850850.0,3857067.0,6217.0,24,R,3855472,3855680,210,1378.2,589.2,4941,right
17,1,continuous,24,85,trial,3850850.0,3857067.0,6217.0,24,R,3855702,3856382,682,1350.5,607.3,5000,right
17,1,continuous,24,85,trial,3850850.0,3857067.0,6217.0,24,R,3856448,3856662,216,1351.4,1034.1,5283,NA
17,1,continuous,24,85,trial,3850850.0,3857067.0,6217.0,24,R,3856704,3856894,192,1238.8,1006.5,5326,NA
17,1,continuous,24,85,trial,3850850.0,3857067.0,6217.0,24,R,3856934,3857268,336,1368.2,618.0,5202,right
17,1,continuous,25,22,fixationCross,3858483.0,3861683.0,3200.0,25,R,3857500,3857674,176,781.0,531.4,5299,NA
17,1,continuous,25,22,fixationCross,3858483.0,3861683.0,3200.0,25,R,3857744,3857872,130,839.4,1058.6,5551,likertHorizontal
17,1,continuous,25,22,fixationCross,3858483.0,3861683.0,3200.0,25,R,3857908,3858158,252,929.5,1218.2,5424,likertHorizontal
17,1,continuous,25,22,fixationCross,3858483.0,3861683.0,3200.0,25,R,3858216,3858334,120,927.7,591.7,5270,NA
17,1,continuous,25,22,trial,3858483.0,3861683.0,3200.0,25,R,3858368,3858624,258,969.3,546.1,5311,NA
17,1,continuous,25,22,trial,3858483.0,3861683.0,3200.0,25,R,3858676,3858984,310,537.4,488.8,5119,left
17,1,continuous,25,22,trial,3858483.0,3861683.0,3200.0,25,R,3859014,3859298,286,467.0,492.9,4861,left
17,1,continuous,25,22,trial,3858483.0,3861683.0,3200.0,25,R,3859312,3859490,180,454.1,509.3,4869,left
17,1,continuous,25,22,trial,3858483.0,3861683.0,3200.0,25,R,3859644,3859818,176,439.6,511.1,4940,left
17,1,continuous,25,22,trial,3858483.0,3861683.0,3200.0,25,R,3859890,3860132,244,1334.7,529.0,4891,right
17,1,continuous,25,22,trial,3858483.0,3861683.0,3200.0,25,R,3860158,3860476,320,1465.3,556.5,4813,right
17,1,continuous,25,22,trial,3858483.0,3861683.0,3200.0,25,R,3860548,3860768,222,567.4,508.2,4917,left
17,1,continuous,25,22,trial,3858483.0,3861683.0,3200.0,25,R,3860806,3861076,272,451.2,541.0,4939,left
17,1,continuous,25,22,trial,3858483.0,3861683.0,3200.0,25,R,3861138,3861378,242,554.8,987.5,4985,NA
17,1,continuous,25,22,trial,3858483.0,3861683.0,3200.0,25,R,3861404,3861594,192,661.6,1006.3,4959,NA
17,1,continuous,25,22,trial,3858483.0,3861683.0,3200.0,25,R,3861640,3861938,300,469.0,580.4,4965,left
17,1,continuous,26,15,fixationCross,3890567.0,3896451.0,5884.0,26,R,3889914,3890058,146,488.5,-18.2,4504,NA
17,1,continuous,26,15,fixationCross,3890567.0,3896451.0,5884.0,26,R,3890138,3890256,120,1053.9,889.9,4556,likertHorizontal
17,1,continuous,26,15,fixationCross,3890567.0,3896451.0,5884.0,26,R,3890288,3890406,120,932.2,616.5,4672,NA
17,1,continuous,26,15,trial,3890567.0,3896451.0,5884.0,26,R,3890440,3890780,342,960.7,539.1,4975,NA
17,1,continuous,26,15,trial,3890567.0,3896451.0,5884.0,26,R,3890848,3891090,244,456.8,532.1,4988,left
17,1,continuous,26,15,trial,3890567.0,3896451.0,5884.0,26,R,3891146,3891340,196,440.2,1079.2,4851,NA
17,1,continuous,26,15,trial,3890567.0,3896451.0,5884.0,26,R,3891416,3891630,216,1514.7,668.1,4750,right
17,1,continuous,26,15,trial,3890567.0,3896451.0,5884.0,26,R,3891658,3892214,558,1396.3,559.1,4758,right
17,1,continuous,26,15,trial,3890567.0,3896451.0,5884.0,26,R,3892376,3892590,216,432.1,457.2,4898,left
17,1,continuous,26,15,trial,3890567.0,3896451.0,5884.0,26,R,3892606,3892914,310,403.5,436.5,4914,left
17,1,continuous,26,15,trial,3890567.0,3896451.0,5884.0,26,R,3892942,3893128,188,436.6,599.1,4798,left
17,1,continuous,26,15,trial,3890567.0,3896451.0,5884.0,26,R,3893148,3893296,150,448.5,547.6,4804,left
17,1,continuous,26,15,trial,3890567.0,3896451.0,5884.0,26,R,3893320,3893494,176,510.3,535.2,4787,left
17,1,continuous,26,15,trial,3890567.0,3896451.0,5884.0,26,R,3893564,3894058,496,1399.3,575.1,4642,right
17,1,continuous,26,15,trial,3890567.0,3896451.0,5884.0,26,R,3894132,3894344,214,450.6,537.2,4599,left
17,1,continuous,26,15,trial,3890567.0,3896451.0,5884.0,26,R,3894366,3894790,426,497.6,533.3,4755,left
17,1,continuous,26,15,trial,3890567.0,3896451.0,5884.0,26,R,3894862,3895314,454,1398.6,568.7,4819,right
17,1,continuous,26,15,trial,3890567.0,3896451.0,5884.0,26,R,3895382,3895554,174,679.5,1044.1,4842,NA
17,1,continuous,26,15,trial,3890567.0,3896451.0,5884.0,26,R,3895582,3895796,216,469.9,1005.0,4942,NA
17,1,continuous,26,15,trial,3890567.0,3896451.0,5884.0,26,R,3895838,3895992,156,470.4,674.5,5004,left
17,1,continuous,26,15,trial,3890567.0,3896451.0,5884.0,26,R,3896034,3896156,124,467.0,506.8,4972,left
17,1,continuous,26,15,trial,3890567.0,3896451.0,5884.0,26,R,3896188,3896526,340,409.6,544.9,4866,left
17,1,continuous,26,15,trial,3890567.0,3896451.0,5884.0,26,R,3896558,3896736,180,481.2,414.1,4834,left
17,1,continuous,27,20,fixationCross,3897500.0,3899867.0,2367.0,27,R,3896938,3897190,254,750.5,455.6,4846,NA
17,1,continuous,27,20,trial,3897500.0,3899867.0,2367.0,27,R,3897242,3897650,410,994.0,567.7,4969,NA
17,1,continuous,27,20,trial,3897500.0,3899867.0,2367.0,27,R,3897702,3897886,186,620.9,536.7,4875,left
17,1,continuous,27,20,trial,3897500.0,3899867.0,2367.0,27,R,3897914,3898150,238,475.9,497.5,4695,left
17,1,continuous,27,20,trial,3897500.0,3899867.0,2367.0,27,R,3898226,3898536,312,1395.8,493.7,4470,right
17,1,continuous,27,20,trial,3897500.0,3899867.0,2367.0,27,R,3898574,3899310,738,1488.0,590.2,4654,right
17,1,continuous,27,20,trial,3897500.0,3899867.0,2367.0,27,R,3899350,3899764,416,1341.1,379.9,4781,right
17,1,continuous,27,20,trial,3897500.0,3899867.0,2367.0,27,R,3899836,3900052,218,636.3,709.8,4949,left
17,1,continuous,28,20,fixationCross,3901650.0,3905534.0,3884.0,28,R,3900302,3900488,188,768.2,687.8,5052,NA
17,1,continuous,28,20,fixationCross,3901650.0,3905534.0,3884.0,28,R,3900538,3900770,234,731.8,503.9,5125,left
17,1,continuous,28,20,fixationCross,3901650.0,3905534.0,3884.0,28,R,3900810,3901038,230,606.7,572.5,5056,left
17,1,continuous,28,20,fixationCross,3901650.0,3905534.0,3884.0,28,R,3901080,3901358,280,846.8,612.5,5070,NA
17,1,continuous,28,20,fixationCross,3901650.0,3905534.0,3884.0,28,R,3901394,3901540,148,953.2,575.3,5054,NA
17,1,continuous,28,20,trial,3901650.0,3905534.0,3884.0,28,R,3901560,3901868,310,962.0,554.8,5139,NA
17,1,continuous,28,20,trial,3901650.0,3905534.0,3884.0,28,R,3901926,3902410,486,455.2,541.8,4988,left
17,1,continuous,28,20,trial,3901650.0,3905534.0,3884.0,28,R,3902436,3902690,256,619.2,602.9,5068,left
17,1,continuous,28,20,trial,3901650.0,3905534.0,3884.0,28,R,3902758,3903092,336,1390.4,579.7,5034,right
17,1,continuous,28,20,trial,3901650.0,3905534.0,3884.0,28,R,3903122,3903296,176,1536.4,641.4,4877,right
17,1,continuous,28,20,trial,3901650.0,3905534.0,3884.0,28,R,3903320,3903532,214,1482.8,708.3,4809,right
17,1,continuous,28,20,trial,3901650.0,3905534.0,3884.0,28,R,3903602,3903792,192,587.5,996.1,4968,NA
17,1,continuous,28,20,trial,3901650.0,3905534.0,3884.0,28,R,3903834,3904098,266,432.5,585.4,4958,left
17,1,continuous,28,20,trial,3901650.0,3905534.0,3884.0,28,R,3904112,3904492,382,428.7,561.7,4941,left
17,1,continuous,28,20,trial,3901650.0,3905534.0,3884.0,28,R,3904656,3904826,172,455.3,541.5,5026,left
17,1,continuous,28,20,trial,3901650.0,3905534.0,3884.0,28,R,3904860,3905166,308,595.9,583.4,5110,left
17,1,continuous,28,20,trial,3901650.0,3905534.0,3884.0,28,R,3905204,3905520,318,643.1,750.3,4993,NA
17,1,continuous,28,20,postResponse,3901650.0,3905534.0,3884.0,28,R,3905588,3905870,284,1363.2,601.0,5027,right
17,1,continuous,29,77,fixationCross,3906900.0,3911434.0,4534.0,29,R,3905990,3906158,170,1392.4,1089.8,5083,NA
17,1,continuous,29,77,fixationCross,3906900.0,3911434.0,4534.0,29,R,3906232,3906364,134,828.1,1201.1,5266,likertHorizontal
17,1,continuous,29,77,fixationCross,3906900.0,3911434.0,4534.0,29,R,3906388,3906570,184,902.1,1201.9,5389,likertHorizontal
17,1,continuous,29,77,fixationCross,3906900.0,3911434.0,4534.0,29,R,3906638,3906794,158,980.5,507.7,5429,NA
17,1,continuous,29,77,trial,3906900.0,3911434.0,4534.0,29,R,3906818,3907124,308,954.6,548.3,5340,NA
17,1,continuous,29,77,trial,3906900.0,3911434.0,4534.0,29,R,3907168,3907514,348,1349.7,472.9,4863,right
17,1,continuous,29,77,trial,3906900.0,3911434.0,4534.0,29,R,3907588,3907774,188,422.7,502.6,4902,left
17,1,continuous,29,77,trial,3906900.0,3911434.0,4534.0,29,R,3907804,3908206,404,349.5,471.2,4699,left
17,1,continuous,29,77,trial,3906900.0,3911434.0,4534.0,29,R,3908340,3909362,1024,359.6,476.5,4725,left
17,1,continuous,29,77,trial,3906900.0,3911434.0,4534.0,29,R,3909396,3909780,386,647.1,523.5,4802,left
17,1,continuous,29,77,trial,3906900.0,3911434.0,4534.0,29,R,3909940,3910274,336,1348.0,451.9,4747,right
17,1,continuous,29,77,trial,3906900.0,3911434.0,4534.0,29,R,3910294,3911020,728,1357.3,448.9,4672,right
17,1,continuous,29,77,trial,3906900.0,3911434.0,4534.0,29,R,3911090,3911402,314,1241.3,936.9,5107,NA
17,1,continuous,29,77,trial,3906900.0,3911434.0,4534.0,29,R,3911478,3911642,166,424.0,515.6,5373,left
17,1,continuous,30,20,fixationCross,3912817.0,3916317.0,3500.0,30,R,3911868,3911948,82,759.2,593.5,5329,NA
17,1,continuous,30,20,fixationCross,3912817.0,3916317.0,3500.0,30,R,3912016,3912158,144,817.6,1176.2,5444,likertHorizontal
17,1,continuous,30,20,fixationCross,3912817.0,3916317.0,3500.0,30,R,3912190,3912466,278,911.2,1202.9,5383,likertHorizontal
17,1,continuous,30,20,fixationCross,3912817.0,3916317.0,3500.0,30,R,3912518,3912624,108,957.1,626.0,5211,NA
17,1,continuous,30,20,trial,3912817.0,3916317.0,3500.0,30,R,3912662,3913006,346,950.1,538.4,5215,NA
17,1,continuous,30,20,trial,3912817.0,3916317.0,3500.0,30,R,3913048,3913336,290,505.5,654.8,5079,left
17,1,continuous,30,20,trial,3912817.0,3916317.0,3500.0,30,R,3913358,3913630,274,382.5,642.8,4844,left
17,1,continuous,30,20,trial,3912817.0,3916317.0,3500.0,30,R,3913656,3913916,262,542.2,558.2,4787,left
17,1,continuous,30,20,trial,3912817.0,3916317.0,3500.0,30,R,3913982,3914236,256,1286.6,566.4,4673,right
17,1,continuous,30,20,trial,3912817.0,3916317.0,3500.0,30,R,3914268,3914486,220,1480.2,554.9,4690,right
17,1,continuous,30,20,trial,3912817.0,3916317.0,3500.0,30,R,3914506,3914636,132,1513.0,513.8,4746,right
17,1,continuous,30,20,trial,3912817.0,3916317.0,3500.0,30,R,3914662,3914942,282,1603.7,471.8,4703,right
17,1,continuous,30,20,trial,3912817.0,3916317.0,3500.0,30,R,3915132,3915524,394,516.9,667.2,5001,left
17,1,continuous,30,20,trial,3912817.0,3916317.0,3500.0,30,R,3915548,3915926,380,383.6,706.2,4915,left
17,1,continuous,30,20,trial,3912817.0,3916317.0,3500.0,30,R,3915962,3916408,448,617.1,580.1,4763,left
17,1,continuous,30,20,postResponse,3912817.0,3916317.0,3500.0,30,R,3916448,3916654,208,660.0,741.1,4741,NA
17,1,continuous,31,92,fixationCross,3917651.0,3920033.0,2382.0,31,R,3916854,3917244,392,859.6,1213.1,5109,likertHorizontal
17,1,continuous,31,92,fixationCross,3917651.0,3920033.0,2382.0,31,R,3917302,3917410,110,887.5,628.7,5142,NA
17,1,continuous,31,92,trial,3917651.0,3920033.0,2382.0,31,R,3917456,3917804,350,961.8,546.2,4962,NA
17,1,continuous,31,92,trial,3917651.0,3920033.0,2382.0,31,R,3917848,3918008,162,529.1,543.8,4758,left
17,1,continuous,31,92,trial,3917651.0,3920033.0,2382.0,31,R,3918036,3918334,300,326.5,506.2,4592,left
17,1,continuous,31,92,trial,3917651.0,3920033.0,2382.0,31,R,3918478,3918630,154,351.7,499.4,4643,left
17,1,continuous,31,92,trial,3917651.0,3920033.0,2382.0,31,R,3918660,3918840,182,569.6,536.3,4792,left
17,1,continuous,31,92,trial,3917651.0,3920033.0,2382.0,31,R,3918908,3919148,242,1395.2,531.9,4550,right
17,1,continuous,31,92,trial,3917651.0,3920033.0,2382.0,31,R,3919184,3919412,230,1512.7,553.9,4565,right
17,1,continuous,31,92,trial,3917651.0,3920033.0,2382.0,31,R,3919446,3919648,204,1571.3,452.3,4609,right
17,1,continuous,31,92,trial,3917651.0,3920033.0,2382.0,31,R,3919670,3919852,184,1524.1,466.7,4748,right
17,1,continuous,31,92,trial,3917651.0,3920033.0,2382.0,31,R,3919922,3920272,352,1323.5,1004.7,5117,NA
17,1,continuous,32,15,fixationCross,3921317.0,3926400.0,5083.0,32,R,3920504,3920810,308,826.8,506.5,5307,NA
17,1,continuous,32,15,fixationCross,3921317.0,3926400.0,5083.0,32,R,3920862,3920998,138,795.9,763.1,5314,likertHorizontal
17,1,continuous,32,15,fixationCross,3921317.0,3926400.0,5083.0,32,R,3921030,3921184,156,952.8,598.8,5061,NA
17,1,continuous,32,15,trial,3921317.0,3926400.0,5083.0,32,R,3921216,3921456,242,954.1,553.8,5010,NA
17,1,continuous,32,15,trial,3921317.0,3926400.0,5083.0,32,R,3921510,3921792,284,524.4,513.8,5023,left
17,1,continuous,32,15,trial,3921317.0,3926400.0,5083.0,32,R,3921832,3921958,128,429.4,645.6,4933,left
17,1,continuous,32,15,trial,3921317.0,3926400.0,5083.0,32,R,3922032,3922178,148,1380.4,581.3,4905,right
17,1,continuous,32,15,trial,3921317.0,3926400.0,5083.0,32,R,3922200,3922734,536,1427.5,567.1,4929,right
17,1,continuous,32,15,trial,3921317.0,3926400.0,5083.0,32,R,3922760,3923014,256,1414.7,513.5,4912,right
17,1,continuous,32,15,trial,3921317.0,3926400.0,5083.0,32,R,3923038,3923188,152,1408.4,586.0,4935,right
17,1,continuous,32,15,trial,3921317.0,3926400.0,5083.0,32,R,3923264,3923606,344,453.2,570.6,5043,left
17,1,continuous,32,15,trial,3921317.0,3926400.0,5083.0,32,R,3923646,3923984,340,389.4,637.8,4972,left
17,1,continuous,32,15,trial,3921317.0,3926400.0,5083.0,32,R,3924048,3924228,182,560.0,1024.9,5079,NA
17,1,continuous,32,15,trial,3921317.0,3926400.0,5083.0,32,R,3924302,3924518,218,1413.6,559.7,4765,right
17,1,continuous,32,15,trial,3921317.0,3926400.0,5083.0,32,R,3924542,3924698,158,1431.2,596.6,4709,right
17,1,continuous,32,15,trial,3921317.0,3926400.0,5083.0,32,R,3924910,3925316,408,422.6,517.3,4920,left
17,1,continuous,32,15,trial,3921317.0,3926400.0,5083.0,32,R,3925346,3925674,330,415.6,647.1,4959,left
17,1,continuous,32,15,trial,3921317.0,3926400.0,5083.0,32,R,3925724,3926016,294,337.1,482.8,4877,left
17,1,continuous,32,15,trial,3921317.0,3926400.0,5083.0,32,R,3926058,3926358,302,423.6,652.2,4849,left
17,1,continuous,32,15,trial,3921317.0,3926400.0,5083.0,32,R,3926422,3926614,194,560.5,1038.0,4948,NA
17,1,continuous,33,23,fixationCross,3927484.0,3930984.0,3500.0,33,R,3926814,3926944,132,889.3,272.5,5022,NA
17,1,continuous,33,23,fixationCross,3927484.0,3930984.0,3500.0,33,R,3927010,3927176,168,792.6,582.5,5153,NA
17,1,continuous,33,23,fixationCross,3927484.0,3930984.0,3500.0,33,R,3927206,3927348,144,974.0,540.6,4985,NA
17,1,continuous,33,23,trial,3927484.0,3930984.0,3500.0,33,R,3927362,3927644,284,961.7,554.3,4854,NA
17,1,continuous,33,23,trial,3927484.0,3930984.0,3500.0,33,R,3927700,3928032,334,467.4,535.3,4836,left
17,1,continuous,33,23,trial,3927484.0,3930984.0,3500.0,33,R,3928104,3928408,306,1369.8,531.7,4586,right
17,1,continuous,33,23,trial,3927484.0,3930984.0,3500.0,33,R,3928436,3928888,454,1527.2,538.7,4652,right
17,1,continuous,33,23,trial,3927484.0,3930984.0,3500.0,33,R,3928960,3929282,324,498.0,560.3,4854,left
17,1,continuous,33,23,trial,3927484.0,3930984.0,3500.0,33,R,3929308,3929804,498,371.9,513.1,4763,left
17,1,continuous,33,23,trial,3927484.0,3930984.0,3500.0,33,R,3929972,3930074,104,555.4,1097.2,4878,NA
17,1,continuous,33,23,trial,3927484.0,3930984.0,3500.0,33,R,3930098,3930240,144,450.5,1033.3,4956,NA
17,1,continuous,33,23,trial,3927484.0,3930984.0,3500.0,33,R,3930318,3930576,260,1413.7,608.5,4782,right
17,1,continuous,33,23,trial,3927484.0,3930984.0,3500.0,33,R,3930604,3930888,286,1548.1,505.9,4621,right
17,1,continuous,33,23,trial,3927484.0,3930984.0,3500.0,33,R,3930916,3931250,336,1596.3,473.1,4554,right
17,1,continuous,34,89,fixationCross,3932151.0,3934867.0,2716.0,34,R,3931456,3931612,158,712.2,407.8,4976,left
17,1,continuous,34,89,fixationCross,3932151.0,3934867.0,2716.0,34,R,3931678,3931834,158,697.6,785.9,5146,NA
17,1,continuous,34,89,fixationCross,3932151.0,3934867.0,2716.0,34,R,3931882,3932098,218,964.3,591.9,5097,NA
17,1,continuous,34,89,trial,3932151.0,3934867.0,2716.0,34,R,3932118,3932386,270,984.6,550.1,5032,NA
17,1,continuous,34,89,trial,3932151.0,3934867.0,2716.0,34,R,3932442,3932752,312,489.7,622.1,4967,left
17,1,continuous,34,89,trial,3932151.0,3934867.0,2716.0,34,R,3932770,3933036,268,476.1,583.1,4854,left
17,1,continuous,34,89,trial,3932151.0,3934867.0,2716.0,34,R,3933210,3933394,186,1434.4,597.2,4826,right
17,1,continuous,34,89,trial,3932151.0,3934867.0,2716.0,34,R,3933414,3933860,448,1332.2,624.0,4875,right
17,1,continuous,34,89,trial,3932151.0,3934867.0,2716.0,34,R,3933892,3934138,248,1597.8,617.4,4606,right
17,1,continuous,34,89,trial,3932151.0,3934867.0,2716.0,34,R,3934166,3934398,234,1370.1,494.6,4640,right
17,1,continuous,34,89,trial,3932151.0,3934867.0,2716.0,34,R,3934422,3934730,310,1300.3,489.7,4630,right
17,1,continuous,34,89,postResponse,3932151.0,3934867.0,2716.0,34,R,3934808,3935204,398,506.4,564.4,4804,left
17,1,continuous,35,83,fixationCross,3936134.0,3938134.0,2000.0,35,R,3935332,3935518,188,894.7,949.0,4858,likertHorizontal
17,1,continuous,35,83,fixationCross,3936134.0,3938134.0,2000.0,35,R,3935580,3935818,240,915.4,1221.9,4984,likertHorizontal
17,1,continuous,35,83,fixationCross,3936134.0,3938134.0,2000.0,35,R,3935876,3936042,168,935.1,588.8,5097,NA
17,1,continuous,35,83,trial,3936134.0,3938134.0,2000.0,35,R,3936064,3936338,276,951.3,537.1,5089,NA
17,1,continuous,35,83,trial,3936134.0,3938134.0,2000.0,35,R,3936394,3936582,190,501.6,544.8,4931,left
17,1,continuous,35,83,trial,3936134.0,3938134.0,2000.0,35,R,3936664,3937066,404,1417.0,613.7,4654,right
17,1,continuous,35,83,trial,3936134.0,3938134.0,2000.0,35,R,3937102,3937314,214,1315.9,398.6,4597,right
17,1,continuous,35,83,trial,3936134.0,3938134.0,2000.0,35,R,3937334,3937624,292,1290.6,416.7,4689,right
17,1,continuous,35,83,trial,3936134.0,3938134.0,2000.0,35,R,3937678,3937846,170,1591.5,565.6,4696,right
17,1,continuous,35,83,trial,3936134.0,3938134.0,2000.0,35,R,3937870,3938176,308,1558.8,477.9,4764,right
17,1,continuous,35,83,trial,3936134.0,3938134.0,2000.0,35,R,3938202,3938342,142,1520.5,411.0,4802,right
17,1,continuous,36,27,fixationCross,3939334.0,3942934.0,3600.0,36,R,3938606,3938780,176,965.5,802.4,5230,likertHorizontal
17,1,continuous,36,27,fixationCross,3939334.0,3942934.0,3600.0,36,R,3938834,3939020,188,993.2,976.5,5282,likertHorizontal
17,1,continuous,36,27,fixationCross,3939334.0,3942934.0,3600.0,36,R,3939058,3939206,150,955.4,593.0,5305,NA
17,1,continuous,36,27,trial,3939334.0,3942934.0,3600.0,36,R,3939238,3939470,234,945.6,535.3,5200,NA
17,1,continuous,36,27,trial,3939334.0,3942934.0,3600.0,36,R,3939514,3939954,442,522.2,536.3,4937,left
17,1,continuous,36,27,trial,3939334.0,3942934.0,3600.0,36,R,3939980,3940192,214,450.8,550.9,5014,left
17,1,continuous,36,27,trial,3939334.0,3942934.0,3600.0,36,R,3940220,3940498,280,430.9,540.9,5112,left
17,1,continuous,36,27,trial,3939334.0,3942934.0,3600.0,36,R,3940540,3940760,222,576.1,620.2,5184,left
17,1,continuous,36,27,trial,3939334.0,3942934.0,3600.0,36,R,3940916,3941184,270,1471.6,553.3,5156,right
17,1,continuous,36,27,trial,3939334.0,3942934.0,3600.0,36,R,3941214,3941602,390,1388.6,398.0,4915,right
17,1,continuous,36,27,trial,3939334.0,3942934.0,3600.0,36,R,3941678,3942068,392,467.0,585.6,4916,left
17,1,continuous,36,27,trial,3939334.0,3942934.0,3600.0,36,R,3942136,3942736,602,608.9,1018.8,5096,NA
17,1,continuous,36,27,trial,3939334.0,3942934.0,3600.0,36,R,3942774,3942966,194,675.0,714.5,5116,left
17,1,continuous,36,27,trial,3939334.0,3942934.0,3600.0,36,R,3942990,3943150,162,574.6,615.4,5107,left
17,1,continuous,37,29,fixationCross,3944085.0,3949084.0,4999.0,37,R,3943342,3943616,276,872.9,460.6,5055,NA
17,1,continuous,37,29,fixationCross,3944085.0,3949084.0,4999.0,37,R,3943652,3943796,146,782.7,526.0,5155,NA
17,1,continuous,37,29,fixationCross,3944085.0,3949084.0,4999.0,37,R,3943824,3944042,220,968.2,572.2,4947,NA
17,1,continuous,37,29,trial,3944085.0,3949084.0,4999.0,37,R,3944062,3944298,238,954.9,561.8,4995,NA
17,1,continuous,37,29,trial,3944085.0,3949084.0,4999.0,37,R,3944354,3944644,292,416.9,521.1,5069,left
17,1,continuous,37,29,trial,3944085.0,3949084.0,4999.0,37,R,3944670,3944960,292,404.7,421.9,5054,left
17,1,continuous,37,29,trial,3944085.0,3949084.0,4999.0,37,R,3944994,3945268,276,515.7,620.0,5047,left
17,1,continuous,37,29,trial,3944085.0,3949084.0,4999.0,37,R,3945298,3945520,224,518.9,472.6,5107,left
17,1,continuous,37,29,trial,3944085.0,3949084.0,4999.0,37,R,3945552,3945780,230,387.3,683.2,5331,left
17,1,continuous,37,29,trial,3944085.0,3949084.0,4999.0,37,R,3945808,3946288,482,336.9,580.1,5274,left
17,1,continuous,37,29,trial,3944085.0,3949084.0,4999.0,37,R,3946316,3946550,236,527.0,544.1,5175,left
17,1,continuous,37,29,trial,3944085.0,3949084.0,4999.0,37,R,3946570,3946770,202,512.1,488.1,5207,left
17,1,continuous,37,29,trial,3944085.0,3949084.0,4999.0,37,R,3946838,3947122,286,1296.2,537.7,5036,right
17,1,continuous,37,29,trial,3944085.0,3949084.0,4999.0,37,R,3947146,3947386,242,1397.9,500.2,4786,right
17,1,continuous,37,29,trial,3944085.0,3949084.0,4999.0,37,R,3947410,3947676,268,1532.8,484.0,4658,right
17,1,continuous,37,29,trial,3944085.0,3949084.0,4999.0,37,R,3947856,3948074,220,737.5,984.2,5057,likertHorizontal
17,1,continuous,37,29,trial,3944085.0,3949084.0,4999.0,37,R,3948116,3948152,38,456.2,535.3,5162,left
17,1,continuous,37,29,trial,3944085.0,3949084.0,4999.0,37,R,3948300,3948558,260,490.8,515.2,5101,left
17,1,continuous,37,29,trial,3944085.0,3949084.0,4999.0,37,R,3948638,3948996,360,1390.9,563.0,4776,right
17,1,continuous,37,29,postResponse,3944085.0,3949084.0,4999.0,37,R,3949036,3949418,384,1529.2,632.7,4675,right
17,1,continuous,38,87,fixationCross,3950384.0,3953068.0,2684.0,38,R,3949702,3949826,126,574.8,480.6,4957,left
17,1,continuous,38,87,fixationCross,3950384.0,3953068.0,2684.0,38,R,3949864,3950082,220,828.9,545.0,5066,NA
17,1,continuous,38,87,trial,3950384.0,3953068.0,2684.0,38,R,3950114,3950432,320,917.8,562.2,5086,NA
17,1,continuous,38,87,trial,3950384.0,3953068.0,2684.0,38,R,3950470,3950626,158,613.5,582.3,5134,left
17,1,continuous,38,87,trial,3950384.0,3953068.0,2684.0,38,R,3950652,3950938,288,516.9,503.2,4926,left
17,1,continuous,38,87,trial,3950384.0,3953068.0,2684.0,38,R,3950962,3951316,356,390.2,499.9,4773,left
17,1,continuous,38,87,trial,3950384.0,3953068.0,2684.0,38,R,3951342,3951548,208,566.7,528.2,4749,left
17,1,continuous,38,87,trial,3950384.0,3953068.0,2684.0,38,R,3951558,3951688,132,582.1,540.2,4757,left
17,1,continuous,38,87,trial,3950384.0,3953068.0,2684.0,38,R,3951756,3951998,244,1348.5,626.9,4684,right
17,1,continuous,38,87,trial,3950384.0,3953068.0,2684.0,38,R,3952032,3952474,444,1452.5,681.5,4622,right
17,1,continuous,38,87,trial,3950384.0,3953068.0,2684.0,38,R,3952518,3952812,296,1310.0,1020.0,4819,NA
17,1,continuous,38,87,trial,3950384.0,3953068.0,2684.0,38,R,3953028,3953172,146,527.2,503.5,5047,left
17,1,continuous,38,87,postResponse,3950384.0,3953068.0,2684.0,38,R,3953194,3953402,210,574.3,528.4,5077,left
17,1,continuous,39,17,fixationCross,3954351.0,3958834.0,4483.0,39,R,3953476,3953554,80,579.0,528.6,4964,left
17,1,continuous,39,17,fixationCross,3954351.0,3958834.0,4483.0,39,R,3953576,3953788,214,555.0,476.3,4769,left
17,1,continuous,39,17,fixationCross,3954351.0,3958834.0,4483.0,39,R,3953808,3954032,226,539.9,490.2,4587,left
17,1,continuous,39,17,fixationCross,3954351.0,3958834.0,4483.0,39,R,3954090,3954264,176,916.2,536.5,4557,NA
17,1,continuous,39,17,trial,3954351.0,3958834.0,4483.0,39,R,3954286,3954510,226,960.9,563.5,4666,NA
17,1,continuous,39,17,trial,3954351.0,3958834.0,4483.0,39,R,3954564,3954742,180,547.8,496.8,4768,left
17,1,continuous,39,17,trial,3954351.0,3958834.0,4483.0,39,R,3954766,3954962,198,496.7,508.4,4715,left
17,1,continuous,39,17,trial,3954351.0,3958834.0,4483.0,39,R,3955102,3955178,78,968.7,412.9,4721,NA
17,1,continuous,39,17,trial,3954351.0,3958834.0,4483.0,39,R,3955232,3955366,136,1397.6,458.3,4666,right
17,1,continuous,39,17,trial,3954351.0,3958834.0,4483.0,39,R,3955392,3955678,288,1509.4,478.3,4761,right
17,1,continuous,39,17,trial,3954351.0,3958834.0,4483.0,39,R,3955700,3956032,334,1559.3,478.3,4525,right
17,1,continuous,39,17,trial,3954351.0,3958834.0,4483.0,39,R,3956112,3956380,270,533.5,485.2,4719,left
17,1,continuous,39,17,trial,3954351.0,3958834.0,4483.0,39,R,3956410,3956550,142,500.2,526.6,4769,left
17,1,continuous,39,17,trial,3954351.0,3958834.0,4483.0,39,R,3956588,3956996,410,299.2,714.6,4878,left
17,1,continuous,39,17,trial,3954351.0,3958834.0,4483.0,39,R,3957008,3957248,242,327.7,693.8,4911,left
17,1,continuous,39,17,trial,3954351.0,3958834.0,4483.0,39,R,3957280,3957474,196,535.7,481.1,4897,left
17,1,continuous,39,17,trial,3954351.0,3958834.0,4483.0,39,R,3957498,3957648,152,506.8,532.1,5006,left
17,1,continuous,39,17,trial,3954351.0,3958834.0,4483.0,39,R,3957898,3958102,206,1493.7,498.7,4997,right
17,1,continuous,39,17,trial,3954351.0,3958834.0,4483.0,39,R,3958128,3958342,216,1535.4,447.1,4947,right
17,1,continuous,39,17,trial,3954351.0,3958834.0,4483.0,39,R,3958360,3958820,462,1528.3,488.9,4666,right
17,1,continuous,39,17,trial,3954351.0,3958834.0,4483.0,39,R,3958846,3959042,198,1370.9,442.6,4697,right
17,1,continuous,40,80,fixationCross,3960318.0,3964501.0,4183.0,40,R,3959372,3959690,320,891.1,1305.6,5311,likertHorizontal
17,1,continuous,40,80,fixationCross,3960318.0,3964501.0,4183.0,40,R,3959936,3960038,104,780.6,561.0,5167,NA
17,1,continuous,40,80,trial,3960318.0,3964501.0,4183.0,40,R,3960080,3960454,376,960.0,552.9,4962,NA
17,1,continuous,40,80,trial,3960318.0,3964501.0,4183.0,40,R,3960510,3960676,168,448.1,558.6,4692,left
17,1,continuous,40,80,trial,3960318.0,3964501.0,4183.0,40,R,3960704,3960856,154,453.9,712.4,4643,left
17,1,continuous,40,80,trial,3960318.0,3964501.0,4183.0,40,R,3960868,3961004,138,448.7,688.5,4584,left
17,1,continuous,40,80,trial,3960318.0,3964501.0,4183.0,40,R,3961148,3961324,178,476.8,685.3,4572,left
17,1,continuous,40,80,trial,3960318.0,3964501.0,4183.0,40,R,3961396,3961770,376,1356.6,562.8,4638,right
17,1,continuous,40,80,trial,3960318.0,3964501.0,4183.0,40,R,3961798,3962164,368,1496.8,564.7,4412,right
17,1,continuous,40,80,trial,3960318.0,3964501.0,4183.0,40,R,3962188,3963016,830,1417.9,507.0,4703,right
17,1,continuous,40,80,trial,3960318.0,3964501.0,4183.0,40,R,3963094,3963226,134,615.3,558.2,5011,left
17,1,continuous,40,80,trial,3960318.0,3964501.0,4183.0,40,R,3963270,3963486,218,468.9,675.8,5002,left
17,1,continuous,40,80,trial,3960318.0,3964501.0,4183.0,40,R,3963530,3963730,202,470.8,463.3,4873,left
17,1,continuous,40,80,trial,3960318.0,3964501.0,4183.0,40,R,3963802,3963984,184,1339.1,526.0,4679,right
17,1,continuous,40,80,trial,3960318.0,3964501.0,4183.0,40,R,3964052,3964584,534,1137.4,1016.9,4906,likertHorizontal
17,1,continuous,40,80,trial,3960318.0,3964501.0,4183.0,40,R,3964636,3964682,48,844.1,765.1,5050,likertHorizontal
17,1,continuous,41,27,fixationCross,3965401.0,3976702.0,11301.0,41,R,3964938,3965340,404,870.7,509.4,5089,NA
17,1,continuous,41,27,trial,3965401.0,3976702.0,11301.0,41,R,3965374,3965606,234,959.5,563.4,4856,NA
17,1,continuous,41,27,trial,3965401.0,3976702.0,11301.0,41,R,3965662,3966062,402,472.1,564.0,4676,left
17,1,continuous,41,27,trial,3965401.0,3976702.0,11301.0,41,R,3966084,3966428,346,555.9,571.5,4462,left
17,1,continuous,41,27,trial,3965401.0,3976702.0,11301.0,41,R,3966488,3966836,350,1384.9,605.4,4199,right
17,1,continuous,41,27,trial,3965401.0,3976702.0,11301.0,41,R,3966868,3967132,266,1483.4,428.3,4288,right
17,1,continuous,41,27,trial,3965401.0,3976702.0,11301.0,41,R,3967206,3967768,564,554.1,480.9,4589,left
17,1,continuous,41,27,trial,3965401.0,3976702.0,11301.0,41,R,3967840,3968014,176,484.8,1058.0,4630,NA
17,1,continuous,41,27,trial,3965401.0,3976702.0,11301.0,41,R,3968044,3968178,136,422.0,1053.0,4702,NA
17,1,continuous,41,27,trial,3965401.0,3976702.0,11301.0,41,R,3968222,3968578,358,342.0,587.5,4664,left
17,1,continuous,41,27,trial,3965401.0,3976702.0,11301.0,41,R,3968604,3969082,480,465.5,559.1,4570,left
17,1,continuous,41,27,trial,3965401.0,3976702.0,11301.0,41,R,3969224,3969810,588,406.2,490.0,4491,left
17,1,continuous,41,27,trial,3965401.0,3976702.0,11301.0,41,R,3969842,3970228,388,534.8,539.3,4477,left
17,1,continuous,41,27,trial,3965401.0,3976702.0,11301.0,41,R,3970250,3970848,600,469.6,617.7,4612,left
17,1,continuous,41,27,trial,3965401.0,3976702.0,11301.0,41,R,3970870,3971120,252,497.2,591.6,4569,left
17,1,continuous,41,27,trial,3965401.0,3976702.0,11301.0,41,R,3971156,3971454,300,486.7,449.4,4488,left
17,1,continuous,41,27,trial,3965401.0,3976702.0,11301.0,41,R,3971466,3971536,72,489.2,420.8,4485,left
17,1,continuous,41,27,trial,3965401.0,3976702.0,11301.0,41,R,3971672,3971998,328,349.3,472.0,4515,left
17,1,continuous,41,27,trial,3965401.0,3976702.0,11301.0,41,R,3972046,3972316,272,556.4,635.9,4493,left
17,1,continuous,41,27,trial,3965401.0,3976702.0,11301.0,41,R,3972378,3972770,394,1326.4,566.2,4376,right
17,1,continuous,41,27,trial,3965401.0,3976702.0,11301.0,41,R,3972806,3973256,452,1506.9,474.0,4471,right
17,1,continuous,41,27,trial,3965401.0,3976702.0,11301.0,41,R,3973304,3973652,350,1470.2,687.4,4766,right
17,1,continuous,41,27,trial,3965401.0,3976702.0,11301.0,41,R,3973694,3974044,352,1380.4,466.1,4942,right
17,1,continuous,41,27,trial,3965401.0,3976702.0,11301.0,41,R,3974066,3974312,248,1376.0,542.1,5156,right
17,1,continuous,41,27,trial,3965401.0,3976702.0,11301.0,41,R,3974334,3974768,436,1339.0,482.3,5273,right
17,1,continuous,41,27,trial,3965401.0,3976702.0,11301.0,41,R,3974842,3975302,462,488.8,502.8,5458,left
17,1,continuous,41,27,trial,3965401.0,3976702.0,11301.0,41,R,3975340,3975656,318,331.9,635.4,5214,left
17,1,continuous,41,27,trial,3965401.0,3976702.0,11301.0,41,R,3975738,3976238,502,1380.3,554.3,4937,right
17,1,continuous,41,27,trial,3965401.0,3976702.0,11301.0,41,R,3976260,3976498,240,1479.3,563.6,4938,right
17,1,continuous,41,27,trial,3965401.0,3976702.0,11301.0,41,R,3976714,3976932,220,468.7,550.5,5269,left
17,1,continuous,41,27,postResponse,3965401.0,3976702.0,11301.0,41,R,3976974,3977034,62,580.2,671.1,5408,left
17,1,continuous,42,81,fixationCross,3977751.0,3982534.0,4783.0,42,R,3977110,3977270,162,584.3,672.4,5418,left
17,1,continuous,42,81,fixationCross,3977751.0,3982534.0,4783.0,42,R,3977298,3977452,156,796.7,559.1,5251,NA
17,1,continuous,42,81,trial,3977751.0,3982534.0,4783.0,42,R,3977488,3977810,324,954.4,535.0,5185,NA
17,1,continuous,42,81,trial,3977751.0,3982534.0,4783.0,42,R,3977828,3977982,156,952.6,547.8,5251,NA
17,1,continuous,42,81,trial,3977751.0,3982534.0,4783.0,42,R,3978040,3978310,272,462.3,596.3,5217,left
17,1,continuous,42,81,trial,3977751.0,3982534.0,4783.0,42,R,3978464,3978782,320,386.1,544.8,5160,left
17,1,continuous,42,81,trial,3977751.0,3982534.0,4783.0,42,R,3978810,3979112,304,621.9,638.2,5129,left
17,1,continuous,42,81,trial,3977751.0,3982534.0,4783.0,42,R,3979140,3979288,150,475.2,561.6,4978,left
17,1,continuous,42,81,trial,3977751.0,3982534.0,4783.0,42,R,3979362,3979740,380,1383.5,516.9,4873,right
17,1,continuous,42,81,trial,3977751.0,3982534.0,4783.0,42,R,3979768,3979960,194,1435.6,618.7,4979,right
17,1,continuous,42,81,trial,3977751.0,3982534.0,4783.0,42,R,3980022,3980268,248,523.5,606.2,5091,left
17,1,continuous,42,81,trial,3977751.0,3982534.0,4783.0,42,R,3980292,3980658,368,457.4,520.8,4976,left
17,1,continuous,42,81,trial,3977751.0,3982534.0,4783.0,42,R,3980670,3980870,202,468.6,501.8,4800,left
17,1,continuous,42,81,trial,3977751.0,3982534.0,4783.0,42,R,3980880,3981212,334,476.1,489.9,4709,left
17,1,continuous,42,81,trial,3977751.0,3982534.0,4783.0,42,R,3981240,3981646,408,654.1,656.1,4787,left
17,1,continuous,42,81,trial,3977751.0,3982534.0,4783.0,42,R,3981822,3982168,348,1452.2,525.2,4944,right
17,1,continuous,42,81,trial,3977751.0,3982534.0,4783.0,42,R,3982240,3982412,174,1180.1,1075.4,5055,likertHorizontal
17,1,continuous,42,81,trial,3977751.0,3982534.0,4783.0,42,R,3982448,3982710,264,1259.8,1015.1,5016,NA
17,1,continuous,43,75,fixationCross,3983935.0,3987685.0,3750.0,43,R,3982968,3983232,266,700.2,532.0,5058,left
17,1,continuous,43,75,fixationCross,3983935.0,3987685.0,3750.0,43,R,3983258,3983408,152,556.6,549.2,5122,left
17,1,continuous,43,75,fixationCross,3983935.0,3987685.0,3750.0,43,R,3983434,3983628,196,468.2,524.4,4969,left
17,1,continuous,43,75,fixationCross,3983935.0,3987685.0,3750.0,43,R,3983688,3983910,224,906.1,567.0,4884,NA
17,1,continuous,43,75,trial,3983935.0,3987685.0,3750.0,43,R,3983934,3984100,168,953.8,548.9,4903,NA
17,1,continuous,43,75,trial,3983935.0,3987685.0,3750.0,43,R,3984152,3984352,202,565.6,522.7,4931,left
17,1,continuous,43,75,trial,3983935.0,3987685.0,3750.0,43,R,3984386,3984564,180,682.2,492.9,4798,left
17,1,continuous,43,75,trial,3983935.0,3987685.0,3750.0,43,R,3984628,3984998,372,1343.5,477.5,4800,right
17,1,continuous,43,75,trial,3983935.0,3987685.0,3750.0,43,R,3985210,3985328,120,1464.1,439.1,4967,right
17,1,continuous,43,75,trial,3983935.0,3987685.0,3750.0,43,R,3985342,3985564,224,1414.2,468.5,4955,right
17,1,continuous,43,75,trial,3983935.0,3987685.0,3750.0,43,R,3985586,3985844,260,1302.4,473.6,4875,right
17,1,continuous,43,75,trial,3983935.0,3987685.0,3750.0,43,R,3985866,3986102,238,1390.4,586.6,4844,right
17,1,continuous,43,75,trial,3983935.0,3987685.0,3750.0,43,R,3986118,3986248,132,1377.2,552.1,4907,right
17,1,continuous,43,75,trial,3983935.0,3987685.0,3750.0,43,R,3986268,3986676,410,1335.0,496.5,5002,right
17,1,continuous,43,75,trial,3983935.0,3987685.0,3750.0,43,R,3986706,3987010,306,1514.7,582.5,5030,right
17,1,continuous,43,75,trial,3983935.0,3987685.0,3750.0,43,R,3987084,3987412,330,623.4,565.6,5137,left
17,1,continuous,43,75,trial,3983935.0,3987685.0,3750.0,43,R,3987486,3987738,254,1222.8,1045.5,5178,NA
17,1,continuous,43,75,trial,3983935.0,3987685.0,3750.0,43,R,3987762,3987892,132,1157.8,1042.4,5261,likertHorizontal
17,1,continuous,44,53,fixationCross,3988835.0,3995702.0,6867.0,44,R,3988146,3988344,200,883.3,510.9,5270,NA
17,1,continuous,44,53,fixationCross,3988835.0,3995702.0,6867.0,44,R,3988372,3988578,208,698.0,547.4,5352,left
17,1,continuous,44,53,fixationCross,3988835.0,3995702.0,6867.0,44,R,3988618,3988786,170,918.6,553.9,5207,NA
17,1,continuous,44,53,trial,3988835.0,3995702.0,6867.0,44,R,3988796,3989084,290,940.8,565.8,5120,NA
17,1,continuous,44,53,trial,3988835.0,3995702.0,6867.0,44,R,3989140,3989338,200,508.1,639.7,5091,left
17,1,continuous,44,53,trial,3988835.0,3995702.0,6867.0,44,R,3989376,3989716,342,429.4,465.2,5091,left
17,1,continuous,44,53,trial,3988835.0,3995702.0,6867.0,44,R,3989756,3990032,278,469.7,557.7,5006,left
17,1,continuous,44,53,trial,3988835.0,3995702.0,6867.0,44,R,3990104,3990288,186,1361.4,639.9,4860,right
17,1,continuous,44,53,trial,3988835.0,3995702.0,6867.0,44,R,3990314,3990766,454,1441.0,632.8,4825,right
17,1,continuous,44,53,trial,3988835.0,3995702.0,6867.0,44,R,3990806,3991142,338,1628.9,657.8,4863,right
17,1,continuous,44,53,trial,3988835.0,3995702.0,6867.0,44,R,3991176,3991458,284,1492.0,524.8,4952,right
17,1,continuous,44,53,trial,3988835.0,3995702.0,6867.0,44,R,3991476,3991810,336,1465.0,579.0,5006,right
17,1,continuous,44,53,trial,3988835.0,3995702.0,6867.0,44,R,3992008,3992464,458,497.8,525.7,5127,left
17,1,continuous,44,53,trial,3988835.0,3995702.0,6867.0,44,R,3992536,3992682,148,885.4,1057.0,5072,likertHorizontal
17,1,continuous,44,53,trial,3988835.0,3995702.0,6867.0,44,R,3992708,3992976,270,852.8,994.6,5053,likertHorizontal
17,1,continuous,44,53,trial,3988835.0,3995702.0,6867.0,44,R,3993022,3993232,212,1191.8,1015.0,5062,NA
17,1,continuous,44,53,trial,3988835.0,3995702.0,6867.0,44,R,3993258,3993444,188,1028.0,984.9,5167,likertHorizontal
17,1,continuous,44,53,trial,3988835.0,3995702.0,6867.0,44,R,3993502,3993828,328,1112.6,587.0,5131,NA
17,1,continuous,44,53,trial,3988835.0,3995702.0,6867.0,44,R,3993888,3994080,194,601.7,688.3,5260,left
17,1,continuous,44,53,trial,3988835.0,3995702.0,6867.0,44,R,3994120,3994506,388,863.2,977.1,5277,likertHorizontal
17,1,continuous,44,53,trial,3988835.0,3995702.0,6867.0,44,R,3994714,3994898,186,967.1,946.4,5371,likertHorizontal
17,1,continuous,44,53,trial,3988835.0,3995702.0,6867.0,44,R,3994958,3995370,414,930.0,523.4,5312,NA
17,1,continuous,44,53,trial,3988835.0,3995702.0,6867.0,44,R,3995440,3995616,178,982.5,1060.1,5283,likertHorizontal
17,1,continuous,44,53,postResponse,3988835.0,3995702.0,6867.0,44,R,3995632,3996034,404,948.9,1023.5,5327,likertHorizontal
17,1,continuous,45,11,fixationCross,3996835.0,4001618.0,4783.0,45,R,3996134,3996318,186,949.4,1024.0,5417,likertHorizontal
17,1,continuous,45,11,fixationCross,3996835.0,4001618.0,4783.0,45,R,3996372,3996528,158,882.7,697.9,5439,NA
17,1,continuous,45,11,fixationCross,3996835.0,4001618.0,4783.0,45,R,3996570,3996764,196,928.1,526.5,5404,NA
17,1,continuous,45,11,trial,3996835.0,4001618.0,4783.0,45,R,3996780,3996978,200,943.0,559.6,5405,NA
17,1,continuous,45,11,trial,3996835.0,4001618.0,4783.0,45,R,3997036,3997316,282,550.4,647.6,5298,left
17,1,continuous,45,11,trial,3996835.0,4001618.0,4783.0,45,R,3997452,3997598,148,506.9,489.7,4930,left
17,1,continuous,45,11,trial,3996835.0,4001618.0,4783.0,45,R,3997622,3997860,240,592.1,458.5,4922,left
17,1,continuous,45,11,trial,3996835.0,4001618.0,4783.0,45,R,3997930,3998544,616,1341.9,554.3,4491,right
17,1,continuous,45,11,trial,3996835.0,4001618.0,4783.0,45,R,3998580,3998668,90,1412.7,550.2,4539,right
17,1,continuous,45,11,trial,3996835.0,4001618.0,4783.0,45,R,3998740,3999068,330,616.4,564.2,4852,left
17,1,continuous,45,11,trial,3996835.0,4001618.0,4783.0,45,R,3999106,3999778,674,520.4,670.1,4743,left
17,1,continuous,45,11,trial,3996835.0,4001618.0,4783.0,45,R,3999846,4000298,454,1333.1,604.1,4894,right
17,1,continuous,45,11,trial,3996835.0,4001618.0,4783.0,45,R,4000370,4000748,380,575.4,472.9,4969,left
17,1,continuous,45,11,trial,3996835.0,4001618.0,4783.0,45,R,4000818,4001006,190,501.9,931.7,4990,NA
17,1,continuous,45,11,trial,3996835.0,4001618.0,4783.0,45,R,4001044,4001228,186,507.8,1023.0,5122,NA
17,1,continuous,45,11,trial,3996835.0,4001618.0,4783.0,45,R,4001268,4001610,344,449.2,595.4,5128,left
17,1,continuous,45,11,trial,3996835.0,4001618.0,4783.0,45,R,4001646,4001900,256,617.3,511.8,5080,left
17,1,continuous,46,50,fixationCross,4002751.0,4007735.0,4984.0,46,R,4002064,4002202,140,754.4,415.7,5146,NA
17,1,continuous,46,50,fixationCross,4002751.0,4007735.0,4984.0,46,R,4002268,4002450,184,807.7,780.7,5275,likertHorizontal
17,1,continuous,46,50,fixationCross,4002751.0,4007735.0,4984.0,46,R,4002492,4002660,170,957.4,524.6,5110,NA
17,1,continuous,46,50,trial,4002751.0,4007735.0,4984.0,46,R,4002682,4002910,230,952.8,558.0,5027,NA
17,1,continuous,46,50,trial,4002751.0,4007735.0,4984.0,46,R,4002964,4003374,412,524.3,545.6,4959,left
17,1,continuous,46,50,trial,4002751.0,4007735.0,4984.0,46,R,4003394,4003486,94,467.8,513.3,4742,left
17,1,continuous,46,50,trial,4002751.0,4007735.0,4984.0,46,R,4003560,4003768,210,1386.3,538.6,4494,right
17,1,continuous,46,50,trial,4002751.0,4007735.0,4984.0,46,R,4003796,4004024,230,1518.1,504.0,4451,right
17,1,continuous,46,50,trial,4002751.0,4007735.0,4984.0,46,R,4004048,4004212,166,1525.8,547.0,4592,right
17,1,continuous,46,50,trial,4002751.0,4007735.0,4984.0,46,R,4004234,4004350,118,1479.3,544.9,4674,right
17,1,continuous,46,50,trial,4002751.0,4007735.0,4984.0,46,R,4004514,4004658,146,1514.4,437.8,4750,right
17,1,continuous,46,50,trial,4002751.0,4007735.0,4984.0,46,R,4004680,4005070,392,1500.6,411.3,4759,right
17,1,continuous,46,50,trial,4002751.0,4007735.0,4984.0,46,R,4005106,4005336,232,1495.1,638.1,4646,right
17,1,continuous,46,50,trial,4002751.0,4007735.0,4984.0,46,R,4005366,4005516,152,1520.9,580.3,4669,right
17,1,continuous,46,50,trial,4002751.0,4007735.0,4984.0,46,R,4005540,4005712,174,1568.2,515.8,4717,right
17,1,continuous,46,50,trial,4002751.0,4007735.0,4984.0,46,R,4005724,4005956,234,1562.7,537.1,4814,right
17,1,continuous,46,50,trial,4002751.0,4007735.0,4984.0,46,R,4005978,4006158,182,1462.9,557.2,4913,right
17,1,continuous,46,50,trial,4002751.0,4007735.0,4984.0,46,R,4006168,4006350,184,1483.3,548.9,4977,right
17,1,continuous,46,50,trial,4002751.0,4007735.0,4984.0,46,R,4006424,4006720,298,613.4,552.4,5173,left
17,1,continuous,46,50,trial,4002751.0,4007735.0,4984.0,46,R,4006762,4007098,338,415.7,604.3,4847,left
17,1,continuous,46,50,trial,4002751.0,4007735.0,4984.0,46,R,4007264,4007440,178,1023.4,962.2,4761,likertHorizontal
17,1,continuous,46,50,trial,4002751.0,4007735.0,4984.0,46,R,4007464,4007764,302,925.1,1019.0,4940,likertHorizontal
17,1,continuous,46,50,postResponse,4002751.0,4007735.0,4984.0,46,R,4007822,4008070,250,856.4,539.1,5014,NA
17,1,continuous,47,72,fixationCross,4008785.0,4013885.0,5100.0,47,R,4008144,4008208,66,852.1,541.2,4951,NA
17,1,continuous,47,72,fixationCross,4008785.0,4013885.0,5100.0,47,R,4008274,4008464,192,885.7,997.5,4935,likertHorizontal
17,1,continuous,47,72,trial,4008785.0,4013885.0,5100.0,47,R,4008514,4008976,464,931.0,556.7,5057,NA
17,1,continuous,47,72,trial,4008785.0,4013885.0,5100.0,47,R,4009040,4009194,156,833.1,972.4,5208,likertHorizontal
17,1,continuous,47,72,trial,4008785.0,4013885.0,5100.0,47,R,4009248,4009368,122,459.8,986.9,5099,NA
17,1,continuous,47,72,trial,4008785.0,4013885.0,5100.0,47,R,4009412,4009834,424,471.8,488.8,4912,left
17,1,continuous,47,72,trial,4008785.0,4013885.0,5100.0,47,R,4009908,4010408,502,1407.8,497.7,4705,right
17,1,continuous,47,72,trial,4008785.0,4013885.0,5100.0,47,R,4010480,4010726,248,542.8,552.3,4780,left
17,1,continuous,47,72,trial,4008785.0,4013885.0,5100.0,47,R,4010900,4011660,762,461.9,578.4,5047,left
17,1,continuous,47,72,trial,4008785.0,4013885.0,5100.0,47,R,4011694,4011810,118,558.2,526.0,5057,left
17,1,continuous,47,72,trial,4008785.0,4013885.0,5100.0,47,R,4011880,4012222,344,1372.7,494.0,4909,right
17,1,continuous,47,72,trial,4008785.0,4013885.0,5100.0,47,R,4012298,4012744,448,483.9,520.4,4895,left
17,1,continuous,47,72,trial,4008785.0,4013885.0,5100.0,47,R,4012770,4013032,264,568.8,428.1,4864,left
17,1,continuous,47,72,trial,4008785.0,4013885.0,5100.0,47,R,4013112,4013756,646,1116.2,998.6,5042,likertHorizontal
17,1,continuous,47,72,trial,4008785.0,4013885.0,5100.0,47,R,4013780,4014044,266,1137.7,1021.8,5189,likertHorizontal
17,1,continuous,48,66,fixationCross,4015002.0,4018219.0,3217.0,48,R,4014294,4014512,220,1069.9,436.3,5136,NA
17,1,continuous,48,66,fixationCross,4015002.0,4018219.0,3217.0,48,R,4014564,4014750,188,847.4,555.9,5202,NA
17,1,continuous,48,66,trial,4015002.0,4018219.0,3217.0,48,R,4014776,4015006,232,954.1,552.6,5000,NA
17,1,continuous,48,66,trial,4015002.0,4018219.0,3217.0,48,R,4015060,4015274,216,601.5,666.3,4988,left
17,1,continuous,48,66,trial,4015002.0,4018219.0,3217.0,48,R,4015316,4015644,330,466.5,443.5,4824,left
17,1,continuous,48,66,trial,4015002.0,4018219.0,3217.0,48,R,4015716,4016106,392,1355.6,512.9,4683,right
17,1,continuous,48,66,trial,4015002.0,4018219.0,3217.0,48,R,4016172,4016378,208,1200.6,894.1,4804,NA
17,1,continuous,48,66,trial,4015002.0,4018219.0,3217.0,48,R,4016438,4016752,316,448.4,605.4,4980,left
17,1,continuous,48,66,trial,4015002.0,4018219.0,3217.0,48,R,4016782,4017132,352,507.5,440.3,4908,left
17,1,continuous,48,66,trial,4015002.0,4018219.0,3217.0,48,R,4017326,4017446,122,1053.1,936.2,4816,likertHorizontal
17,1,continuous,48,66,trial,4015002.0,4018219.0,3217.0,48,R,4017494,4017690,198,909.4,1034.9,4929,likertHorizontal
17,1,continuous,48,66,trial,4015002.0,4018219.0,3217.0,48,R,4017746,4017956,212,1305.1,1055.0,4964,NA
17,1,continuous,48,66,trial,4015002.0,4018219.0,3217.0,48,R,4017984,4018182,200,1112.8,1002.4,4987,likertHorizontal
17,1,continuous,48,66,postResponse,4015002.0,4018219.0,3217.0,48,R,4018228,4018552,326,1317.3,501.6,4789,right
17,1,continuous,49,56,fixationCross,4019335.0,4025419.0,6084.0,49,R,4018652,4018802,152,1221.0,515.3,4767,right
17,1,continuous,49,56,fixationCross,4019335.0,4025419.0,6084.0,49,R,4018876,4019050,176,880.6,930.8,4878,likertHorizontal
17,1,continuous,49,56,fixationCross,4019335.0,4025419.0,6084.0,49,R,4019098,4019242,146,867.4,514.3,4950,NA
17,1,continuous,49,56,trial,4019335.0,4025419.0,6084.0,49,R,4019276,4019468,194,948.7,548.0,5105,NA
17,1,continuous,49,56,trial,4019335.0,4025419.0,6084.0,49,R,4019524,4019884,362,530.2,551.6,5010,left
17,1,continuous,49,56,trial,4019335.0,4025419.0,6084.0,49,R,4019914,4020292,380,332.7,534.9,4841,left
17,1,continuous,49,56,trial,4019335.0,4025419.0,6084.0,49,R,4020456,4020664,210,381.5,583.1,4915,left
17,1,continuous,49,56,trial,4019335.0,4025419.0,6084.0,49,R,4020688,4021020,334,454.2,648.4,4973,left
17,1,continuous,49,56,trial,4019335.0,4025419.0,6084.0,49,R,4021078,4021198,122,784.3,886.2,4868,likertHorizontal
17,1,continuous,49,56,trial,4019335.0,4025419.0,6084.0,49,R,4021232,4021386,156,887.2,1057.8,4927,likertHorizontal
17,1,continuous,49,56,trial,4019335.0,4025419.0,6084.0,49,R,4021460,4021742,284,1491.9,449.1,4871,right
17,1,continuous,49,56,trial,4019335.0,4025419.0,6084.0,49,R,4021772,4021986,216,1394.1,617.2,4928,right
17,1,continuous,49,56,trial,4019335.0,4025419.0,6084.0,49,R,4022012,4022410,400,1438.6,529.3,4900,right
17,1,continuous,49,56,trial,4019335.0,4025419.0,6084.0,49,R,4022486,4023046,562,504.1,570.5,5172,left
17,1,continuous,49,56,trial,4019335.0,4025419.0,6084.0,49,R,4023112,4023312,202,491.0,984.1,5153,NA
17,1,continuous,49,56,trial,4019335.0,4025419.0,6084.0,49,R,4023530,4023668,140,498.2,552.2,5220,left
17,1,continuous,49,56,trial,4019335.0,4025419.0,6084.0,49,R,4023702,4024138,438,650.7,519.0,5165,left
17,1,continuous,49,56,trial,4019335.0,4025419.0,6084.0,49,R,4024160,4024396,238,623.4,582.2,4916,left
17,1,continuous,49,56,trial,4019335.0,4025419.0,6084.0,49,R,4024456,4024604,150,1038.5,1038.4,4937,likertHorizontal
17,1,continuous,49,56,trial,4019335.0,4025419.0,6084.0,49,R,4024640,4025298,660,950.6,1026.9,5057,likertHorizontal
17,1,continuous,49,56,postResponse,4019335.0,4025419.0,6084.0,49,R,4025338,4025754,418,940.5,611.0,5163,NA
17,1,continuous,50,87,fixationCross,4026552.0,4029235.0,2683.0,50,R,4025854,4025966,114,944.0,615.1,5269,NA
17,1,continuous,50,87,fixationCross,4026552.0,4029235.0,2683.0,50,R,4025996,4026272,278,886.5,661.8,5331,NA
17,1,continuous,50,87,fixationCross,4026552.0,4029235.0,2683.0,50,R,4026312,4026476,166,928.9,541.8,5309,NA
17,1,continuous,50,87,trial,4026552.0,4029235.0,2683.0,50,R,4026534,4026782,250,634.1,645.4,5349,left
17,1,continuous,50,87,trial,4026552.0,4029235.0,2683.0,50,R,4026806,4026982,178,502.6,595.7,5256,left
17,1,continuous,50,87,trial,4026552.0,4029235.0,2683.0,50,R,4027056,4027528,474,1426.3,557.5,4851,right
17,1,continuous,50,87,trial,4026552.0,4029235.0,2683.0,50,R,4027630,4027708,80,952.8,965.6,5165,likertHorizontal
17,1,continuous,50,87,trial,4026552.0,4029235.0,2683.0,50,R,4027916,4028146,232,1027.1,943.0,5467,likertHorizontal
17,1,continuous,50,87,trial,4026552.0,4029235.0,2683.0,50,R,4028188,4028334,148,1349.0,1001.1,5544,NA
17,1,continuous,50,87,trial,4026552.0,4029235.0,2683.0,50,R,4028394,4028648,256,1474.3,486.0,5207,right
17,1,continuous,50,87,trial,4026552.0,4029235.0,2683.0,50,R,4028678,4028882,206,1407.9,468.4,5100,right
17,1,continuous,50,87,trial,4026552.0,4029235.0,2683.0,50,R,4028958,4029116,160,1299.0,1067.3,5266,NA
17,1,continuous,50,87,trial,4026552.0,4029235.0,2683.0,50,R,4029140,4029440,302,1293.3,1000.7,5367,NA
17,2,binary,1,2,fixationCross,4086969.0,4092786.0,5817.0,51,R,4086467,4086547,82,1025.7,865.7,5066,likertHorizontal
17,2,binary,1,2,fixationCross,4086969.0,4092786.0,5817.0,51,R,4086585,4086859,276,922.2,482.0,5177,NA
17,2,binary,1,2,trial,4086969.0,4092786.0,5817.0,51,R,4086885,4087197,314,956.2,568.3,5137,NA
17,2,binary,1,2,trial,4086969.0,4092786.0,5817.0,51,R,4087253,4087471,220,497.8,604.4,5081,left
17,2,binary,1,2,trial,4086969.0,4092786.0,5817.0,51,R,4087507,4087703,198,273.0,474.4,4927,left
17,2,binary,1,2,trial,4086969.0,4092786.0,5817.0,51,R,4087719,4087803,86,298.5,448.7,4821,left
17,2,binary,1,2,trial,4086969.0,4092786.0,5817.0,51,R,4087879,4088127,250,951.5,1026.8,4842,likertHorizontal
17,2,binary,1,2,trial,4086969.0,4092786.0,5817.0,51,R,4088183,4088525,344,423.9,1022.1,5103,NA
17,2,binary,1,2,trial,4086969.0,4092786.0,5817.0,51,R,4088603,4088775,174,1295.1,1009.5,5281,NA
17,2,binary,1,2,trial,4086969.0,4092786.0,5817.0,51,R,4088813,4089161,350,1399.0,1095.6,5353,NA
17,2,binary,1,2,trial,4086969.0,4092786.0,5817.0,51,R,4089215,4089485,272,1447.7,477.0,5335,right
17,2,binary,1,2,trial,4086969.0,4092786.0,5817.0,51,R,4089655,4089899,246,1399.9,489.3,5192,right
17,2,binary,1,2,trial,4086969.0,4092786.0,5817.0,51,R,4089919,4090105,188,1363.6,450.6,5253,right
17,2,binary,1,2,trial,4086969.0,4092786.0,5817.0,51,R,4090177,4090689,514,1078.1,986.9,5330,likertHorizontal
17,2,binary,1,2,trial,4086969.0,4092786.0,5817.0,51,R,4090739,4090881,144,1405.0,1038.8,5522,NA
17,2,binary,1,2,trial,4086969.0,4092786.0,5817.0,51,R,4091049,4091333,286,492.9,586.8,5709,left
17,2,binary,1,2,trial,4086969.0,4092786.0,5817.0,51,R,4091365,4091717,354,315.8,464.8,5239,left
17,2,binary,1,2,trial,4086969.0,4092786.0,5817.0,51,R,4091795,4092025,232,1387.1,563.9,4771,right
17,2,binary,1,2,trial,4086969.0,4092786.0,5817.0,51,R,4092053,4092431,380,1557.9,480.4,4826,right
17,2,binary,1,2,trial,4086969.0,4092786.0,5817.0,51,R,4092497,4092713,218,1408.5,941.6,5137,NA
17,2,binary,1,2,trial,4086969.0,4092786.0,5817.0,51,R,4092753,4093047,296,1386.4,1124.4,5438,NA
17,2,binary,2,1,fixationCross,4093886.0,4104053.0,10167.0,52,R,4093235,4093459,226,881.0,533.8,5626,NA
