participantNo,block,task,blockTrial,response,trialStage,trialStartTime,trialFinishTime,rt,trial,eye,fixStart,fixEnd,fixLength,fixPosX,fixPosY,dilation,aoi
67,1,continuous,1,100,fixationCross,18741750.0,18753366.0,11616.0,1,R,18740962,18741212,252,1057.2,880.8,4892,likertHorizontal
67,1,continuous,1,100,fixationCross,18741750.0,18753366.0,11616.0,1,R,18741238,18741396,160,920.6,880.1,4899,likertHorizontal
67,1,continuous,1,100,fixationCross,18741750.0,18753366.0,11616.0,1,R,18741446,18741578,134,968.3,569.3,4907,NA
67,1,continuous,1,100,fixationCross,18741750.0,18753366.0,11616.0,1,R,18741588,18741690,104,947.8,579.1,4960,NA
67,1,continuous,1,100,trial,18741750.0,18753366.0,11616.0,1,R,18741850,18742022,174,944.8,602.1,5036,NA
67,1,continuous,1,100,trial,18741750.0,18753366.0,11616.0,1,R,18742086,18742194,110,495.4,651.6,4809,left
67,1,continuous,1,100,trial,18741750.0,18753366.0,11616.0,1,R,18742236,18742444,210,482.7,977.9,4389,NA
67,1,continuous,1,100,trial,18741750.0,18753366.0,11616.0,1,R,18742468,18742610,144,473.8,1027.8,4175,NA
67,1,continuous,1,100,trial,18741750.0,18753366.0,11616.0,1,R,18742660,18742780,122,1138.8,999.3,4130,likertHorizontal
67,1,continuous,1,100,trial,18741750.0,18753366.0,11616.0,1,R,18742814,18742906,94,1430.1,989.7,4129,NA
67,1,continuous,1,100,trial,18741750.0,18753366.0,11616.0,1,R,18742948,18743226,280,1403.4,563.1,4274,right
67,1,continuous,1,100,trial,18741750.0,18753366.0,11616.0,1,R,18743242,18743358,118,1447.3,575.5,4303,right
67,1,continuous,1,100,trial,18741750.0,18753366.0,11616.0,1,R,18743440,18743716,278,447.7,531.7,4314,left
67,1,continuous,1,100,trial,18741750.0,18753366.0,11616.0,1,R,18743784,18743902,120,1536.2,592.2,4114,right
67,1,continuous,1,100,trial,18741750.0,18753366.0,11616.0,1,R,18744064,18744116,54,1472.3,548.3,4250,right
67,1,continuous,1,100,trial,18741750.0,18753366.0,11616.0,1,R,18744196,18744422,228,450.8,550.1,4496,left
67,1,continuous,1,100,trial,18741750.0,18753366.0,11616.0,1,R,18744446,18744620,176,343.3,577.5,4242,left
67,1,continuous,1,100,trial,18741750.0,18753366.0,11616.0,1,R,18744690,18745010,322,1366.3,589.9,4074,right
67,1,continuous,1,100,trial,18741750.0,18753366.0,11616.0,1,R,18745058,18745238,182,1414.8,985.0,4276,NA
67,1,continuous,1,100,trial,18741750.0,18753366.0,11616.0,1,R,18745252,18745396,146,1432.4,1012.9,4423,NA
67,1,continuous,1,100,trial,18741750.0,18753366.0,11616.0,1,R,18745458,18745702,246,925.0,1007.9,4671,likertHorizontal
67,1,continuous,1,100,trial,18741750.0,18753366.0,11616.0,1,R,18745716,18745854,140,963.6,981.8,4718,likertHorizontal
67,1,continuous,1,100,trial,18741750.0,18753366.0,11616.0,1,R,18745906,18746104,200,1433.1,1002.6,4614,NA
67,1,continuous,1,100,trial,18741750.0,18753366.0,11616.0,1,R,18746168,18747144,978,958.4,973.4,4536,likertHorizontal
67,1,continuous,1,100,trial,18741750.0,18753366.0,11616.0,1,R,18747186,18747328,144,1368.0,1043.3,4610,NA
67,1,continuous,1,100,trial,18741750.0,18753366.0,11616.0,1,R,18747382,18747554,174,1428.7,628.8,4566,right
67,1,continuous,1,100,trial,18741750.0,18753366.0,11616.0,1,R,18747728,18747954,228,1473.3,518.2,4299,right
67,1,continuous,1,100,trial,18741750.0,18753366.0,11616.0,1,R,18747998,18748108,112,1042.5,549.7,4363,NA
67,1,continuous,1,100,trial,18741750.0,18753366.0,11616.0,1,R,18748162,18748400,240,544.9,491.2,4299,left
67,1,continuous,1,100,trial,18741750.0,18753366.0,11616.0,1,R,18748464,18749056,594,1456.0,500.4,4180,right
67,1,continuous,1,100,trial,18741750.0,18753366.0,11616.0,1,R,18749090,18749394,306,1317.2,680.7,4650,right
67,1,continuous,1,100,trial,18741750.0,18753366.0,11616.0,1,R,18749428,18749730,304,1344.7,813.4,4610,NA
67,1,continuous,1,100,trial,18741750.0,18753366.0,11616.0,1,R,18749778,18749952,176,1399.5,993.3,4985,NA
67,1,continuous,1,100,trial,18741750.0,18753366.0,11616.0,1,R,18749990,18750168,180,1489.7,617.1,4820,right
67,1,continuous,1,100,trial,18741750.0,18753366.0,11616.0,1,R,18750180,18750742,564,1431.3,600.3,4563,right
67,1,continuous,1,100,trial,18741750.0,18753366.0,11616.0,1,R,18750946,18750982,38,1006.9,973.6,4724,likertHorizontal
67,1,continuous,1,100,trial,18741750.0,18753366.0,11616.0,1,R,18750998,18751156,160,958.9,987.4,4776,likertHorizontal
67,1,continuous,1,100,trial,18741750.0,18753366.0,11616.0,1,R,18751204,18751446,244,1400.8,687.6,4558,right
67,1,continuous,1,100,trial,18741750.0,18753366.0,11616.0,1,R,18751488,18751644,158,1041.8,982.1,4486,likertHorizontal
67,1,continuous,1,100,trial,18741750.0,18753366.0,11616.0,1,R,18751668,18751786,120,1195.0,987.1,4445,NA
67,1,continuous,1,100,trial,18741750.0,18753366.0,11616.0,1,R,18751806,18751902,98,1279.9,984.2,4548,NA
67,1,continuous,1,100,trial,18741750.0,18753366.0,11616.0,1,R,18751918,18751958,42,1294.7,1023.5,4803,NA
67,1,continuous,1,100,trial,18741750.0,18753366.0,11616.0,1,R,18751980,18752062,84,1443.3,1041.2,4818,NA
67,1,continuous,1,100,trial,18741750.0,18753366.0,11616.0,1,R,18752280,18752374,96,1432.3,1022.2,4865,NA
67,1,continuous,2,50,fixationCross,18757250.0,18757366.0,116.0,2,R,18753854,18753946,94,1150.8,615.0,5235,NA
67,1,continuous,2,50,fixationCross,18757250.0,18757366.0,116.0,2,R,18756966,18756986,22,963.2,587.7,5095,NA
67,1,continuous,2,50,fixationCross,18757250.0,18757366.0,116.0,2,R,18757004,18757144,142,976.2,615.8,4860,NA
67,1,continuous,3,65,fixationCross,18758433.0,18760166.0,1733.0,3,R,18757786,18757932,148,857.9,697.4,4781,NA
67,1,continuous,3,65,fixationCross,18758433.0,18760166.0,1733.0,3,R,18757956,18758134,180,964.2,661.9,5084,NA
67,1,continuous,3,65,trial,18758433.0,18760166.0,1733.0,3,R,18758156,18758634,480,965.0,617.1,5335,NA
67,1,continuous,3,65,trial,18758433.0,18760166.0,1733.0,3,R,18758686,18758874,190,501.7,613.8,5144,left
67,1,continuous,3,65,trial,18758433.0,18760166.0,1733.0,3,R,18758896,18759120,226,489.8,549.8,4756,left
67,1,continuous,3,65,trial,18758433.0,18760166.0,1733.0,3,R,18759196,18759468,274,1417.9,568.3,4359,right
67,1,continuous,3,65,trial,18758433.0,18760166.0,1733.0,3,R,18759488,18759808,322,1409.6,604.8,4421,right
67,1,continuous,3,65,trial,18758433.0,18760166.0,1733.0,3,R,18759860,18759972,114,1216.0,986.2,4791,NA
67,1,continuous,3,65,trial,18758433.0,18760166.0,1733.0,3,R,18760004,18760398,396,1117.9,1009.5,4823,likertHorizontal
67,1,continuous,3,65,postResponse,18758433.0,18760166.0,1733.0,3,R,18760446,18760504,60,757.8,608.6,4738,NA
67,1,continuous,4,30,fixationCross,18761066.0,18762866.0,1800.0,4,R,18760604,18760846,244,883.0,520.8,4902,NA
67,1,continuous,4,30,fixationCross,18761066.0,18762866.0,1800.0,4,R,18760866,18760958,94,864.3,541.1,5070,NA
67,1,continuous,4,30,trial,18761066.0,18762866.0,1800.0,4,R,18760982,18761300,320,955.3,571.5,5066,NA
67,1,continuous,4,30,trial,18761066.0,18762866.0,1800.0,4,R,18761340,18761552,214,578.2,634.6,4963,left
67,1,continuous,4,30,trial,18761066.0,18762866.0,1800.0,4,R,18761570,18761854,286,533.4,631.8,4521,left
67,1,continuous,4,30,trial,18761066.0,18762866.0,1800.0,4,R,18761914,18762102,190,1424.7,535.6,3981,right
67,1,continuous,4,30,trial,18761066.0,18762866.0,1800.0,4,R,18762120,18762362,244,1388.9,482.0,3932,right
67,1,continuous,4,30,trial,18761066.0,18762866.0,1800.0,4,R,18762422,18762676,256,513.9,605.2,4240,left
67,1,continuous,4,30,trial,18761066.0,18762866.0,1800.0,4,R,18762690,18762960,272,548.7,615.4,4211,left
67,1,continuous,4,30,trial,18761066.0,18762866.0,1800.0,4,R,18762980,18763182,204,589.0,598.7,4156,left
67,1,continuous,5,74,fixationCross,18763966.0,18765333.0,1367.0,5,R,18763324,18763536,214,1159.3,525.3,4308,NA
67,1,continuous,5,74,fixationCross,18763966.0,18765333.0,1367.0,5,R,18763548,18763662,116,1148.0,498.1,4494,NA
67,1,continuous,5,74,fixationCross,18763966.0,18765333.0,1367.0,5,R,18763690,18763822,134,985.9,537.3,4672,NA
67,1,continuous,5,74,trial,18763966.0,18765333.0,1367.0,5,R,18763834,18764134,302,972.6,558.9,4779,NA
67,1,continuous,5,74,trial,18763966.0,18765333.0,1367.0,5,R,18764186,18764376,192,1427.4,537.3,4620,right
67,1,continuous,5,74,trial,18763966.0,18765333.0,1367.0,5,R,18764388,18764576,190,1466.2,534.1,4363,right
67,1,continuous,5,74,trial,18763966.0,18765333.0,1367.0,5,R,18764646,18764836,192,515.8,594.0,4318,left
67,1,continuous,5,74,trial,18763966.0,18765333.0,1367.0,5,R,18764854,18765570,718,475.3,571.0,4210,left
67,1,continuous,5,74,postResponse,18763966.0,18765333.0,1367.0,5,R,18765600,18765670,72,769.0,517.6,4452,NA
67,1,continuous,6,69,fixationCross,18766366.0,18767517.0,1151.0,6,R,18765760,18765856,98,1008.9,523.1,4567,NA
67,1,continuous,6,69,fixationCross,18766366.0,18767517.0,1151.0,6,R,18765892,18766056,166,1137.1,516.5,4709,NA
67,1,continuous,6,69,fixationCross,18766366.0,18767517.0,1151.0,6,R,18766082,18766212,132,999.2,546.1,4870,NA
67,1,continuous,6,69,trial,18766366.0,18767517.0,1151.0,6,R,18766226,18766558,334,975.7,574.1,4869,NA
67,1,continuous,6,69,trial,18766366.0,18767517.0,1151.0,6,R,18766606,18766836,232,581.5,557.3,4640,left
67,1,continuous,6,69,trial,18766366.0,18767517.0,1151.0,6,R,18766892,18767144,254,1366.6,625.6,4251,right
67,1,continuous,6,69,trial,18766366.0,18767517.0,1151.0,6,R,18767342,18767510,170,1429.7,676.4,4288,right
67,1,continuous,6,69,trial,18766366.0,18767517.0,1151.0,6,R,18767534,18767780,248,1322.0,685.8,4415,right
67,1,continuous,7,100,fixationCross,18768666.0,18769616.0,950.0,7,R,18767950,18768030,82,892.5,569.1,4473,NA
67,1,continuous,7,100,fixationCross,18768666.0,18769616.0,950.0,7,R,18768050,18768284,236,859.8,517.9,4600,NA
67,1,continuous,7,100,fixationCross,18768666.0,18769616.0,950.0,7,R,18768498,18768524,28,986.7,513.4,4925,NA
67,1,continuous,7,100,fixationCross,18768666.0,18769616.0,950.0,7,R,18768532,18768556,26,979.2,559.3,4905,NA
67,1,continuous,7,100,fixationCross,18768666.0,18769616.0,950.0,7,R,18768564,18768644,82,978.7,597.3,4759,NA
67,1,continuous,7,100,trial,18768666.0,18769616.0,950.0,7,R,18768654,18768878,226,963.4,579.4,4857,NA
67,1,continuous,7,100,trial,18768666.0,18769616.0,950.0,7,R,18768928,18769164,238,1401.5,564.4,4552,right
67,1,continuous,7,100,trial,18768666.0,18769616.0,950.0,7,R,18769176,18769410,236,1438.3,554.5,4317,right
67,1,continuous,7,100,trial,18768666.0,18769616.0,950.0,7,R,18769488,18769588,102,482.1,529.0,4278,left
67,1,continuous,7,100,postResponse,18768666.0,18769616.0,950.0,7,R,18769612,18769950,340,387.8,441.1,4241,left
67,1,continuous,8,53,fixationCross,18770716.0,18773449.0,2733.0,8,R,18770024,18770284,262,532.9,511.2,4566,left
67,1,continuous,8,53,fixationCross,18770716.0,18773449.0,2733.0,8,R,18770338,18770462,126,1166.5,590.0,4638,NA
67,1,continuous,8,53,trial,18770716.0,18773449.0,2733.0,8,R,18770490,18770892,404,970.5,569.1,4715,NA
67,1,continuous,8,53,trial,18770716.0,18773449.0,2733.0,8,R,18770940,18771090,152,1382.4,572.4,4570,right
67,1,continuous,8,53,trial,18770716.0,18773449.0,2733.0,8,R,18771110,18771346,238,1474.5,573.5,4252,right
67,1,continuous,8,53,trial,18770716.0,18773449.0,2733.0,8,R,18771408,18771594,188,478.9,583.4,4145,left
67,1,continuous,8,53,trial,18770716.0,18773449.0,2733.0,8,R,18771616,18772210,596,424.0,575.2,4053,left
67,1,continuous,8,53,trial,18770716.0,18773449.0,2733.0,8,R,18772232,18772424,194,344.5,550.3,4157,left
67,1,continuous,8,53,trial,18770716.0,18773449.0,2733.0,8,R,18772470,18772722,254,592.8,887.1,4367,NA
67,1,continuous,8,53,trial,18770716.0,18773449.0,2733.0,8,R,18772752,18772884,134,675.4,926.2,4544,NA
67,1,continuous,8,53,trial,18770716.0,18773449.0,2733.0,8,R,18772922,18773286,366,872.1,922.6,4741,likertHorizontal
67,1,continuous,8,53,trial,18770716.0,18773449.0,2733.0,8,R,18773312,18773670,360,969.2,941.6,4889,likertHorizontal
67,1,continuous,8,53,postResponse,18770716.0,18773449.0,2733.0,8,R,18773714,18773782,70,972.5,555.7,4892,NA
67,1,continuous,9,49,fixationCross,18774332.0,18776449.0,2117.0,9,R,18773858,18773880,24,966.2,551.2,4910,NA
67,1,continuous,9,49,fixationCross,18774332.0,18776449.0,2117.0,9,R,18773902,18774200,300,908.7,495.5,4888,NA
67,1,continuous,9,49,fixationCross,18774332.0,18776449.0,2117.0,9,R,18774220,18774248,30,943.0,537.7,4832,NA
67,1,continuous,9,49,trial,18774332.0,18776449.0,2117.0,9,R,18774368,18774542,176,956.6,548.5,4851,NA
67,1,continuous,9,49,trial,18774332.0,18776449.0,2117.0,9,R,18774582,18774872,292,1354.9,546.7,4574,right
67,1,continuous,9,49,trial,18774332.0,18776449.0,2117.0,9,R,18774936,18775272,338,510.0,576.3,4258,left
67,1,continuous,9,49,trial,18774332.0,18776449.0,2117.0,9,R,18775286,18775908,624,538.0,592.5,4131,left
67,1,continuous,9,49,trial,18774332.0,18776449.0,2117.0,9,R,18775934,18776180,248,686.7,629.4,4276,left
67,1,continuous,9,49,postResponse,18774332.0,18776449.0,2117.0,9,R,18776226,18776768,544,958.0,949.7,4537,likertHorizontal
67,1,continuous,10,52,fixationCross,18777350.0,18778699.0,1349.0,10,R,18776858,18776990,134,984.7,639.6,4677,NA
67,1,continuous,10,52,fixationCross,18777350.0,18778699.0,1349.0,10,R,18777014,18777228,216,943.0,525.4,4779,NA
67,1,continuous,10,52,trial,18777350.0,18778699.0,1349.0,10,R,18777242,18777558,318,975.6,555.8,4822,NA
67,1,continuous,10,52,trial,18777350.0,18778699.0,1349.0,10,R,18777622,18777936,316,432.7,573.2,4507,left
67,1,continuous,10,52,trial,18777350.0,18778699.0,1349.0,10,R,18777944,18778238,296,400.3,566.9,4192,left
67,1,continuous,10,52,trial,18777350.0,18778699.0,1349.0,10,R,18778306,18778564,260,1399.2,628.7,4139,right
67,1,continuous,10,52,trial,18777350.0,18778699.0,1349.0,10,R,18778586,18778740,156,1337.7,627.2,4156,right
67,1,continuous,10,52,trial,18777350.0,18778699.0,1349.0,10,R,18778792,18778994,204,962.0,936.9,4258,likertHorizontal
67,1,continuous,11,84,fixationCross,18779766.0,18781399.0,1633.0,11,R,18779108,18779180,74,909.7,621.3,4459,NA
67,1,continuous,11,84,fixationCross,18779766.0,18781399.0,1633.0,11,R,18779204,18779408,206,969.1,504.3,4589,NA
67,1,continuous,11,84,fixationCross,18779766.0,18781399.0,1633.0,11,R,18779446,18779626,182,1137.8,515.7,4653,NA
67,1,continuous,11,84,trial,18779766.0,18781399.0,1633.0,11,R,18779648,18779770,124,1008.2,541.8,4716,NA
67,1,continuous,11,84,trial,18779766.0,18781399.0,1633.0,11,R,18779784,18779946,164,977.4,564.6,4775,NA
67,1,continuous,11,84,trial,18779766.0,18781399.0,1633.0,11,R,18780196,18780432,238,1417.2,471.8,4390,right
67,1,continuous,11,84,trial,18779766.0,18781399.0,1633.0,11,R,18780500,18780708,210,518.5,594.4,4338,left
67,1,continuous,11,84,trial,18779766.0,18781399.0,1633.0,11,R,18780726,18781090,366,474.4,598.9,4147,left
67,1,continuous,11,84,trial,18779766.0,18781399.0,1633.0,11,R,18781112,18781614,504,595.3,593.4,4208,left
67,1,continuous,11,84,postResponse,18779766.0,18781399.0,1633.0,11,R,18781662,18781732,72,1040.9,533.9,4390,NA
67,1,continuous,12,29,fixationCross,18782416.0,18783983.0,1567.0,12,R,18781808,18781962,156,1036.7,539.3,4518,NA
67,1,continuous,12,29,fixationCross,18782416.0,18783983.0,1567.0,12,R,18781984,18782110,128,1110.4,488.6,4656,NA
67,1,continuous,12,29,fixationCross,18782416.0,18783983.0,1567.0,12,R,18782136,18782340,206,974.4,539.9,4805,NA
67,1,continuous,12,29,trial,18782416.0,18783983.0,1567.0,12,R,18782348,18782626,280,960.8,559.7,4861,NA
67,1,continuous,12,29,trial,18782416.0,18783983.0,1567.0,12,R,18782666,18782890,226,1331.3,546.4,4571,right
67,1,continuous,12,29,trial,18782416.0,18783983.0,1567.0,12,R,18782908,18783136,230,1397.8,548.0,4280,right
67,1,continuous,12,29,trial,18782416.0,18783983.0,1567.0,12,R,18783204,18783332,130,446.6,562.6,4163,left
67,1,continuous,12,29,trial,18782416.0,18783983.0,1567.0,12,R,18783356,18783578,224,379.3,512.5,4050,left
67,1,continuous,12,29,trial,18782416.0,18783983.0,1567.0,12,R,18783636,18783750,116,888.2,1020.5,4058,likertHorizontal
67,1,continuous,12,29,trial,18782416.0,18783983.0,1567.0,12,R,18783768,18783908,142,816.0,969.1,4125,likertHorizontal
67,1,continuous,12,29,trial,18782416.0,18783983.0,1567.0,12,R,18783932,18784194,264,693.8,962.0,4303,NA
67,1,continuous,13,15,fixationCross,18784900.0,18786467.0,1567.0,13,R,18784416,18784496,82,804.0,625.5,4439,NA
67,1,continuous,13,15,fixationCross,18784900.0,18786467.0,1567.0,13,R,18784522,18784758,238,907.6,577.3,4567,NA
67,1,continuous,13,15,trial,18784900.0,18786467.0,1567.0,13,R,18784772,18785076,306,960.8,570.8,4528,NA
67,1,continuous,13,15,trial,18784900.0,18786467.0,1567.0,13,R,18785118,18785316,200,1404.5,536.3,4361,right
67,1,continuous,13,15,trial,18784900.0,18786467.0,1567.0,13,R,18785334,18785422,90,1416.6,582.8,4259,right
67,1,continuous,13,15,trial,18784900.0,18786467.0,1567.0,13,R,18785490,18785610,122,517.1,548.0,4306,left
67,1,continuous,13,15,trial,18784900.0,18786467.0,1567.0,13,R,18785628,18785966,340,483.1,529.9,4215,left
67,1,continuous,13,15,trial,18784900.0,18786467.0,1567.0,13,R,18786016,18786318,304,747.8,962.4,4283,likertHorizontal
67,1,continuous,13,15,trial,18784900.0,18786467.0,1567.0,13,R,18786342,18786684,344,614.0,949.9,4466,NA
67,1,continuous,13,15,postResponse,18784900.0,18786467.0,1567.0,13,R,18786730,18786812,84,828.5,547.6,4540,NA
67,1,continuous,14,5,fixationCross,18787366.0,18789217.0,1851.0,14,R,18786886,18786910,26,820.8,545.5,4553,NA
67,1,continuous,14,5,fixationCross,18787366.0,18789217.0,1851.0,14,R,18786934,18787212,280,899.0,542.7,4651,NA
67,1,continuous,14,5,trial,18787366.0,18789217.0,1851.0,14,R,18787230,18787518,290,966.8,567.4,4730,NA
67,1,continuous,14,5,trial,18787366.0,18789217.0,1851.0,14,R,18787556,18787772,218,1326.9,577.1,4613,right
67,1,continuous,14,5,trial,18787366.0,18789217.0,1851.0,14,R,18787788,18787860,74,1392.2,583.3,4438,right
67,1,continuous,14,5,trial,18787366.0,18789217.0,1851.0,14,R,18787934,18788148,216,522.7,537.1,4323,left
67,1,continuous,14,5,trial,18787366.0,18789217.0,1851.0,14,R,18788168,18788552,386,482.0,546.2,4138,left
67,1,continuous,14,5,trial,18787366.0,18789217.0,1851.0,14,R,18788602,18789444,844,619.8,878.2,4577,NA
67,1,continuous,14,5,postResponse,18787366.0,18789217.0,1851.0,14,R,18789482,18789548,68,782.6,616.2,4870,NA
67,1,continuous,15,82,fixationCross,18790217.0,18791533.0,1316.0,15,R,18789744,18789786,44,826.9,538.1,5046,NA
67,1,continuous,15,82,fixationCross,18790217.0,18791533.0,1316.0,15,R,18789794,18789920,128,823.5,570.7,4938,NA
67,1,continuous,15,82,fixationCross,18790217.0,18791533.0,1316.0,15,R,18789944,18790192,250,953.2,568.2,4967,NA
67,1,continuous,15,82,trial,18790217.0,18791533.0,1316.0,15,R,18790210,18790400,192,981.8,558.9,4796,NA
67,1,continuous,15,82,trial,18790217.0,18791533.0,1316.0,15,R,18790442,18790678,238,1390.0,557.6,4522,right
67,1,continuous,15,82,trial,18790217.0,18791533.0,1316.0,15,R,18790756,18790982,228,477.7,551.4,4301,left
67,1,continuous,15,82,trial,18790217.0,18791533.0,1316.0,15,R,18791002,18791158,158,434.2,564.7,4148,left
67,1,continuous,15,82,trial,18790217.0,18791533.0,1316.0,15,R,18791218,18791550,334,1244.7,917.5,4278,NA
67,1,continuous,15,82,trial,18790217.0,18791533.0,1316.0,15,R,18791612,18791782,172,509.7,583.5,4621,left
67,1,continuous,15,82,postResponse,18790217.0,18791533.0,1316.0,15,R,18791834,18791866,34,963.7,554.0,4652,NA
67,1,continuous,16,47,fixationCross,18792399.0,18793499.0,1100.0,16,R,18791940,18792078,140,961.6,558.4,4608,NA
67,1,continuous,16,47,fixationCross,18792399.0,18793499.0,1100.0,16,R,18792100,18792364,266,1049.4,523.0,4622,NA
67,1,continuous,16,47,trial,18792399.0,18793499.0,1100.0,16,R,18792386,18792628,244,974.8,563.1,4792,NA
67,1,continuous,16,47,trial,18792399.0,18793499.0,1100.0,16,R,18792668,18792926,260,1295.7,610.2,4554,right
67,1,continuous,16,47,trial,18792399.0,18793499.0,1100.0,16,R,18793000,18793334,336,507.7,554.3,4377,left
67,1,continuous,16,47,trial,18792399.0,18793499.0,1100.0,16,R,18793390,18793532,144,934.2,1004.9,4239,likertHorizontal
67,1,continuous,16,47,trial,18792399.0,18793499.0,1100.0,16,R,18793550,18793726,178,939.9,971.0,4328,likertHorizontal
67,1,continuous,16,47,postResponse,18792399.0,18793499.0,1100.0,16,R,18793782,18793832,52,969.1,568.0,4389,NA
67,1,continuous,17,50,fixationCross,18794383.0,18795133.0,750.0,17,R,18793908,18794118,212,962.6,573.7,4535,NA
67,1,continuous,17,50,fixationCross,18794383.0,18795133.0,750.0,17,R,18794144,18794362,220,910.3,514.6,4629,NA
67,1,continuous,17,50,trial,18794383.0,18795133.0,750.0,17,R,18794384,18794622,240,970.4,560.5,4664,NA
67,1,continuous,17,50,trial,18794383.0,18795133.0,750.0,17,R,18794668,18794830,164,1464.3,488.8,4525,right
67,1,continuous,17,50,trial,18794383.0,18795133.0,750.0,17,R,18794902,18795094,194,509.5,529.3,4512,left
67,1,continuous,17,50,trial,18794383.0,18795133.0,750.0,17,R,18795116,18795378,264,477.3,555.7,4417,left
67,1,continuous,18,20,fixationCross,18796050.0,18797483.0,1433.0,18,R,18795546,18795658,114,504.0,563.3,4375,left
67,1,continuous,18,20,fixationCross,18796050.0,18797483.0,1433.0,18,R,18795704,18795884,182,1056.7,566.8,4530,NA
67,1,continuous,18,20,trial,18796050.0,18797483.0,1433.0,18,R,18795906,18796212,308,996.6,561.5,4521,NA
67,1,continuous,18,20,trial,18796050.0,18797483.0,1433.0,18,R,18796254,18796476,224,1432.2,526.6,4393,right
67,1,continuous,18,20,trial,18796050.0,18797483.0,1433.0,18,R,18796550,18796762,214,519.0,509.1,4357,left
67,1,continuous,18,20,trial,18796050.0,18797483.0,1433.0,18,R,18796780,18796964,186,546.0,472.7,4202,left
67,1,continuous,18,20,trial,18796050.0,18797483.0,1433.0,18,R,18796986,18797200,216,441.7,441.1,4062,left
67,1,continuous,18,20,trial,18796050.0,18797483.0,1433.0,18,R,18797224,18797778,556,561.0,475.5,4178,left
67,1,continuous,19,36,fixationCross,18798349.0,18799616.0,1267.0,19,R,18797890,18798002,114,833.4,557.9,4423,NA
67,1,continuous,19,36,fixationCross,18798349.0,18799616.0,1267.0,19,R,18798026,18798214,190,1010.2,536.1,4509,NA
67,1,continuous,19,36,trial,18798349.0,18799616.0,1267.0,19,R,18798236,18798524,290,965.5,545.1,4715,NA
67,1,continuous,19,36,trial,18798349.0,18799616.0,1267.0,19,R,18798564,18798716,154,1341.8,550.5,4601,right
67,1,continuous,19,36,trial,18798349.0,18799616.0,1267.0,19,R,18798772,18798904,134,479.5,490.7,4351,left
67,1,continuous,19,36,trial,18798349.0,18799616.0,1267.0,19,R,18798926,18799088,164,405.9,460.9,4113,left
67,1,continuous,19,36,trial,18798349.0,18799616.0,1267.0,19,R,18799144,18799400,258,980.0,962.4,3960,likertHorizontal
67,1,continuous,19,36,trial,18798349.0,18799616.0,1267.0,19,R,18799430,18799842,414,791.3,937.7,4271,likertHorizontal
67,1,continuous,19,36,postResponse,18798349.0,18799616.0,1267.0,19,R,18799888,18799950,64,984.4,548.9,4496,NA
67,1,continuous,20,23,fixationCross,18800500.0,18801683.0,1183.0,20,R,18800026,18800152,128,980.8,549.2,4569,NA
67,1,continuous,20,23,fixationCross,18800500.0,18801683.0,1183.0,20,R,18800168,18800468,302,946.9,521.9,4646,NA
67,1,continuous,20,23,trial,18800500.0,18801683.0,1183.0,20,R,18800480,18800718,240,975.5,545.9,4615,NA
67,1,continuous,20,23,trial,18800500.0,18801683.0,1183.0,20,R,18800760,18800980,222,1323.6,498.3,4494,right
67,1,continuous,20,23,trial,18800500.0,18801683.0,1183.0,20,R,18801002,18801170,170,1368.8,545.9,4359,right
67,1,continuous,20,23,trial,18800500.0,18801683.0,1183.0,20,R,18801244,18801528,286,511.5,555.8,4274,left
67,1,continuous,20,23,trial,18800500.0,18801683.0,1183.0,20,R,18801542,18801948,408,467.3,531.0,4238,left
67,1,continuous,20,23,postResponse,18800500.0,18801683.0,1183.0,20,R,18801968,18802016,50,560.3,525.3,4275,left
67,1,continuous,21,80,fixationCross,18802850.0,18804450.0,1600.0,21,R,18802172,18802318,148,585.5,514.0,4396,left
67,1,continuous,21,80,fixationCross,18802850.0,18804450.0,1600.0,21,R,18802334,18802530,198,540.8,525.7,4544,left
67,1,continuous,21,80,fixationCross,18802850.0,18804450.0,1600.0,21,R,18802570,18802694,126,923.5,542.8,4514,NA
67,1,continuous,21,80,trial,18802850.0,18804450.0,1600.0,21,R,18802714,18803032,320,957.5,558.6,4534,NA
67,1,continuous,21,80,trial,18802850.0,18804450.0,1600.0,21,R,18803064,18803244,182,1257.0,510.9,4487,right
67,1,continuous,21,80,trial,18802850.0,18804450.0,1600.0,21,R,18803262,18803498,238,1287.9,475.5,4196,right
67,1,continuous,21,80,trial,18802850.0,18804450.0,1600.0,21,R,18803540,18803766,228,1575.6,570.0,4057,right
67,1,continuous,21,80,trial,18802850.0,18804450.0,1600.0,21,R,18803814,18803990,178,1298.1,476.1,4091,right
67,1,continuous,21,80,trial,18802850.0,18804450.0,1600.0,21,R,18804066,18804290,226,463.5,552.4,4074,left
67,1,continuous,21,80,postResponse,18802850.0,18804450.0,1600.0,21,R,18804300,18804784,486,464.0,536.7,4021,left
67,1,continuous,22,49,fixationCross,18805517.0,18806283.0,766.0,22,R,18804858,18805074,218,498.9,517.6,4129,left
67,1,continuous,22,49,fixationCross,18805517.0,18806283.0,766.0,22,R,18805126,18805254,130,1132.0,540.1,4290,NA
67,1,continuous,22,49,trial,18805517.0,18806283.0,766.0,22,R,18805280,18805742,464,959.2,552.6,4573,NA
67,1,continuous,22,49,trial,18805517.0,18806283.0,766.0,22,R,18805784,18805914,132,1383.4,566.6,4557,right
67,1,continuous,22,49,trial,18805517.0,18806283.0,766.0,22,R,18805930,18806536,608,1437.6,547.3,4187,right
67,1,continuous,22,49,postResponse,18805517.0,18806283.0,766.0,22,R,18806588,18806616,30,822.5,507.0,4166,NA
67,1,continuous,23,72,fixationCross,18807483.0,18808516.0,1033.0,23,R,18806690,18806824,136,812.6,506.1,4307,NA
67,1,continuous,23,72,fixationCross,18807483.0,18808516.0,1033.0,23,R,18806848,18806974,128,860.0,495.7,4452,NA
67,1,continuous,23,72,fixationCross,18807483.0,18808516.0,1033.0,23,R,18806998,18807180,184,800.9,507.2,4480,NA
67,1,continuous,23,72,trial,18807483.0,18808516.0,1033.0,23,R,18807206,18807620,416,948.8,547.9,4540,NA
67,1,continuous,23,72,trial,18807483.0,18808516.0,1033.0,23,R,18807670,18807836,168,572.5,489.7,4578,left
67,1,continuous,23,72,trial,18807483.0,18808516.0,1033.0,23,R,18807850,18808064,216,578.4,510.3,4244,left
67,1,continuous,23,72,trial,18807483.0,18808516.0,1033.0,23,R,18808118,18808264,148,1306.1,484.4,4135,right
67,1,continuous,23,72,postResponse,18807483.0,18808516.0,1033.0,23,R,18808284,18808846,564,1340.6,464.5,4093,right
67,1,continuous,24,30,fixationCross,18809450.0,18810383.0,933.0,24,R,18808922,18808976,56,1148.3,487.5,4204,NA
67,1,continuous,24,30,fixationCross,18809450.0,18810383.0,933.0,24,R,18809014,18809166,154,858.1,537.0,4426,NA
67,1,continuous,24,30,trial,18809450.0,18810383.0,933.0,24,R,18809186,18809666,482,942.1,522.0,4567,NA
67,1,continuous,24,30,postResponse,18809450.0,18810383.0,933.0,24,R,18809722,18810716,996,492.1,518.9,4201,left
67,1,continuous,25,76,fixationCross,18811416.0,18813417.0,2001.0,25,R,18810840,18810868,30,512.0,509.7,4301,left
67,1,continuous,25,76,fixationCross,18811416.0,18813417.0,2001.0,25,R,18810888,18811100,214,508.2,531.0,4341,left
67,1,continuous,25,76,trial,18811416.0,18813417.0,2001.0,25,R,18811150,18811568,420,965.6,556.5,4373,NA
67,1,continuous,25,76,trial,18811416.0,18813417.0,2001.0,25,R,18811606,18811944,340,1287.1,615.2,4221,right
67,1,continuous,25,76,trial,18811416.0,18813417.0,2001.0,25,R,18812008,18812372,366,532.5,552.6,4116,left
67,1,continuous,25,76,trial,18811416.0,18813417.0,2001.0,25,R,18812434,18812630,198,1455.1,625.4,3911,right
67,1,continuous,25,76,trial,18811416.0,18813417.0,2001.0,25,R,18812652,18813152,502,1355.5,633.7,4090,right
67,1,continuous,25,76,trial,18811416.0,18813417.0,2001.0,25,R,18813162,18813354,194,1379.1,640.8,4201,right
67,1,continuous,25,76,trial,18811416.0,18813417.0,2001.0,25,R,18813380,18813588,210,1422.8,511.5,4226,right
67,1,continuous,26,74,fixationCross,18833934.0,18835033.0,1099.0,26,R,18833201,18833401,202,584.3,13.0,3838,NA
67,1,continuous,26,74,fixationCross,18833934.0,18835033.0,1099.0,26,R,18833453,18833539,88,868.0,445.7,3829,NA
67,1,continuous,26,74,fixationCross,18833934.0,18835033.0,1099.0,26,R,18833689,18833771,84,981.9,606.0,3982,NA
67,1,continuous,26,74,trial,18833934.0,18835033.0,1099.0,26,R,18833789,18834149,362,968.7,583.6,4319,NA
67,1,continuous,26,74,trial,18833934.0,18835033.0,1099.0,26,R,18834191,18834351,162,1396.4,535.0,4324,right
67,1,continuous,26,74,trial,18833934.0,18835033.0,1099.0,26,R,18834423,18834677,256,587.8,554.6,4288,left
67,1,continuous,26,74,trial,18833934.0,18835033.0,1099.0,26,R,18834697,18835275,580,548.3,512.8,4396,left
67,1,continuous,26,74,postResponse,18833934.0,18835033.0,1099.0,26,R,18835315,18835367,54,866.1,512.1,4518,NA
67,1,continuous,27,31,fixationCross,18836066.0,18837233.0,1167.0,27,R,18835443,18835497,56,868.7,516.4,4584,NA
67,1,continuous,27,31,fixationCross,18836066.0,18837233.0,1167.0,27,R,18835527,18835779,254,1060.0,482.8,4679,NA
67,1,continuous,27,31,trial,18836066.0,18837233.0,1167.0,27,R,18835803,18836101,300,979.8,538.3,4803,NA
67,1,continuous,27,31,trial,18836066.0,18837233.0,1167.0,27,R,18836127,18836275,150,1091.4,495.3,4916,NA
67,1,continuous,27,31,trial,18836066.0,18837233.0,1167.0,27,R,18836569,18836717,150,529.3,625.7,4688,left
67,1,continuous,27,31,trial,18836066.0,18837233.0,1167.0,27,R,18836727,18837465,740,492.3,631.1,4364,left
67,1,continuous,28,38,fixationCross,18838117.0,18839067.0,950.0,28,R,18837695,18837917,224,951.5,499.2,4512,NA
67,1,continuous,28,38,fixationCross,18838117.0,18839067.0,950.0,28,R,18837951,18838085,136,1038.2,558.1,4786,NA
67,1,continuous,28,38,trial,18838117.0,18839067.0,950.0,28,R,18838107,18838333,228,969.3,585.3,4692,NA
67,1,continuous,28,38,trial,18838117.0,18839067.0,950.0,28,R,18838587,18838821,236,574.1,586.5,4342,left
67,1,continuous,28,38,trial,18838117.0,18839067.0,950.0,28,R,18838963,18839103,142,1256.4,643.8,4051,right
67,1,continuous,28,38,postResponse,18838117.0,18839067.0,950.0,28,R,18839155,18839399,246,507.4,607.6,4115,left
67,1,continuous,29,20,fixationCross,18839967.0,18841133.0,1166.0,29,R,18839499,18839631,134,798.1,496.5,4146,NA
67,1,continuous,29,20,trial,18839967.0,18841133.0,1166.0,29,R,18839659,18839985,328,977.3,513.6,4393,NA
67,1,continuous,29,20,trial,18839967.0,18841133.0,1166.0,29,R,18840009,18840159,152,965.4,558.3,4624,NA
67,1,continuous,29,20,trial,18839967.0,18841133.0,1166.0,29,R,18840199,18840455,258,1324.6,529.0,4383,right
67,1,continuous,29,20,trial,18839967.0,18841133.0,1166.0,29,R,18840473,18840531,60,1370.6,536.1,4168,right
67,1,continuous,29,20,trial,18839967.0,18841133.0,1166.0,29,R,18840595,18840801,208,512.6,559.8,4189,left
67,1,continuous,29,20,trial,18839967.0,18841133.0,1166.0,29,R,18840823,18840985,164,452.2,501.4,4027,left
67,1,continuous,29,20,trial,18839967.0,18841133.0,1166.0,29,R,18841005,18841385,382,411.7,443.2,3864,left
67,1,continuous,29,20,postResponse,18839967.0,18841133.0,1166.0,29,R,18841429,18841467,40,793.1,539.2,3944,NA
67,1,continuous,30,17,fixationCross,18842250.0,18843416.0,1166.0,30,R,18841567,18841591,26,790.9,538.9,4099,NA
67,1,continuous,30,17,fixationCross,18842250.0,18843416.0,1166.0,30,R,18841619,18841843,226,963.9,514.3,4275,NA
67,1,continuous,30,17,fixationCross,18842250.0,18843416.0,1166.0,30,R,18841871,18842057,188,1115.7,492.2,4497,NA
67,1,continuous,30,17,fixationCross,18842250.0,18843416.0,1166.0,30,R,18842081,18842227,148,1008.4,538.6,4633,NA
67,1,continuous,30,17,trial,18842250.0,18843416.0,1166.0,30,R,18842249,18842429,182,959.6,545.8,4684,NA
67,1,continuous,30,17,trial,18842250.0,18843416.0,1166.0,30,R,18842471,18842765,296,1342.5,510.2,4444,right
67,1,continuous,30,17,trial,18842250.0,18843416.0,1166.0,30,R,18842841,18843051,212,475.7,549.7,4224,left
67,1,continuous,30,17,trial,18842250.0,18843416.0,1166.0,30,R,18843065,18843305,242,436.2,544.0,4113,left
67,1,continuous,30,17,trial,18842250.0,18843416.0,1166.0,30,R,18843321,18843597,278,496.8,539.3,4091,left
67,1,continuous,30,17,postResponse,18842250.0,18843416.0,1166.0,30,R,18843645,18843751,108,972.1,538.4,4079,NA
67,1,continuous,31,88,fixationCross,18845067.0,18846234.0,1167.0,31,R,18843825,18844109,286,1135.8,512.4,4213,NA
67,1,continuous,31,88,fixationCross,18845067.0,18846234.0,1167.0,31,R,18844125,18844545,422,1167.5,481.0,4459,NA
67,1,continuous,31,88,fixationCross,18845067.0,18846234.0,1167.0,31,R,18844567,18844751,186,1059.2,486.2,4503,NA
67,1,continuous,31,88,trial,18845067.0,18846234.0,1167.0,31,R,18844773,18845287,516,956.3,549.1,4597,NA
67,1,continuous,31,88,trial,18845067.0,18846234.0,1167.0,31,R,18845325,18845599,276,1295.7,599.7,4338,right
67,1,continuous,31,88,trial,18845067.0,18846234.0,1167.0,31,R,18845653,18845917,266,549.3,575.4,4144,left
67,1,continuous,31,88,trial,18845067.0,18846234.0,1167.0,31,R,18845929,18846459,532,512.1,585.1,4021,left
67,1,continuous,31,88,postResponse,18845067.0,18846234.0,1167.0,31,R,18846487,18846567,82,719.1,544.0,4083,left
67,1,continuous,32,53,fixationCross,18847133.0,18848101.0,968.0,32,R,18846667,18846697,32,722.7,546.6,4230,left
67,1,continuous,32,53,fixationCross,18847133.0,18848101.0,968.0,32,R,18846725,18846947,224,963.7,544.2,4399,NA
67,1,continuous,32,53,trial,18847133.0,18848101.0,968.0,32,R,18846973,18847135,164,1041.6,523.1,4592,NA
67,1,continuous,32,53,trial,18847133.0,18848101.0,968.0,32,R,18847153,18847335,184,984.0,549.9,4613,NA
67,1,continuous,32,53,trial,18847133.0,18848101.0,968.0,32,R,18847377,18847643,268,1403.2,535.4,4395,right
67,1,continuous,32,53,trial,18847133.0,18848101.0,968.0,32,R,18847695,18847889,196,616.0,530.5,4043,left
67,1,continuous,32,53,trial,18847133.0,18848101.0,968.0,32,R,18847907,18848167,262,541.3,542.6,3908,left
67,1,continuous,32,53,trial,18847133.0,18848101.0,968.0,32,R,18848219,18848409,192,904.9,764.6,4043,likertHorizontal
67,1,continuous,33,50,fixationCross,18848967.0,18849951.0,984.0,33,R,18848509,18848793,286,917.9,530.0,4299,NA
67,1,continuous,33,50,trial,18848967.0,18849951.0,984.0,33,R,18848815,18849003,190,959.0,525.7,4487,NA
67,1,continuous,33,50,trial,18848967.0,18849951.0,984.0,33,R,18849017,18849143,128,959.2,545.7,4517,NA
67,1,continuous,33,50,trial,18848967.0,18849951.0,984.0,33,R,18849195,18849361,168,1404.7,479.3,4432,right
67,1,continuous,33,50,trial,18848967.0,18849951.0,984.0,33,R,18849377,18849543,168,1420.2,427.7,4291,right
67,1,continuous,33,50,trial,18848967.0,18849951.0,984.0,33,R,18849621,18849811,192,505.5,547.2,4287,left
67,1,continuous,33,50,trial,18848967.0,18849951.0,984.0,33,R,18849833,18850229,398,476.0,498.1,4222,left
67,1,continuous,34,6,fixationCross,18850850.0,18852133.0,1283.0,34,R,18850389,18850401,14,623.5,495.7,4245,left
67,1,continuous,34,6,fixationCross,18850850.0,18852133.0,1283.0,34,R,18850419,18850511,94,620.2,512.3,4177,left
67,1,continuous,34,6,fixationCross,18850850.0,18852133.0,1283.0,34,R,18850549,18850841,294,938.8,515.4,4282,NA
67,1,continuous,34,6,trial,18850850.0,18852133.0,1283.0,34,R,18850861,18851005,146,960.3,561.9,4345,NA
67,1,continuous,34,6,trial,18850850.0,18852133.0,1283.0,34,R,18851041,18851237,198,1279.2,547.8,4302,right
67,1,continuous,34,6,trial,18850850.0,18852133.0,1283.0,34,R,18851251,18851401,152,1295.2,515.9,4169,right
67,1,continuous,34,6,trial,18850850.0,18852133.0,1283.0,34,R,18851475,18851701,228,481.5,434.7,4085,left
67,1,continuous,34,6,trial,18850850.0,18852133.0,1283.0,34,R,18851725,18851877,154,466.7,477.3,4129,left
67,1,continuous,34,6,trial,18850850.0,18852133.0,1283.0,34,R,18851903,18852365,464,514.9,586.8,4269,left
67,1,continuous,34,6,postResponse,18850850.0,18852133.0,1283.0,34,R,18852409,18852467,60,528.8,913.1,4420,NA
67,1,continuous,35,28,fixationCross,18853067.0,18854650.0,1583.0,35,R,18852603,18852735,134,907.4,620.2,4560,NA
67,1,continuous,35,28,fixationCross,18853067.0,18854650.0,1583.0,35,R,18852765,18852999,236,1055.6,514.1,4629,NA
67,1,continuous,35,28,trial,18853067.0,18854650.0,1583.0,35,R,18853021,18853245,226,967.0,547.4,4704,NA
67,1,continuous,35,28,trial,18853067.0,18854650.0,1583.0,35,R,18853287,18853505,220,1356.7,532.8,4512,right
67,1,continuous,35,28,trial,18853067.0,18854650.0,1583.0,35,R,18853527,18853665,140,1426.2,539.0,4267,right
67,1,continuous,35,28,trial,18853067.0,18854650.0,1583.0,35,R,18853733,18853949,218,515.5,495.2,4046,left
67,1,continuous,35,28,trial,18853067.0,18854650.0,1583.0,35,R,18853961,18854905,946,519.5,469.9,4009,left
67,1,continuous,36,79,fixationCross,18855550.0,18856450.0,900.0,36,R,18855059,18855223,166,900.0,535.1,4285,NA
67,1,continuous,36,79,fixationCross,18855550.0,18856450.0,900.0,36,R,18855251,18855395,146,1055.9,526.1,4423,NA
67,1,continuous,36,79,trial,18855550.0,18856450.0,900.0,36,R,18855419,18855651,234,990.9,526.9,4419,NA
67,1,continuous,36,79,trial,18855550.0,18856450.0,900.0,36,R,18855685,18855865,182,1199.5,545.2,4282,right
67,1,continuous,36,79,trial,18855550.0,18856450.0,900.0,36,R,18855899,18856035,138,1445.4,536.7,4065,right
67,1,continuous,36,79,trial,18855550.0,18856450.0,900.0,36,R,18856059,18856253,196,1506.1,444.2,3996,right
67,1,continuous,36,79,trial,18855550.0,18856450.0,900.0,36,R,18856331,18856459,130,484.8,516.2,4107,left
67,1,continuous,36,79,trial,18855550.0,18856450.0,900.0,36,R,18856481,18856715,236,395.8,461.2,4190,left
67,1,continuous,37,50,fixationCross,18857334.0,18858001.0,667.0,37,R,18856857,18857011,156,1013.6,552.5,4208,NA
67,1,continuous,37,50,fixationCross,18857334.0,18858001.0,667.0,37,R,18857031,18857261,232,932.4,528.9,4403,NA
67,1,continuous,37,50,trial,18857334.0,18858001.0,667.0,37,R,18857275,18857503,230,961.8,534.7,4528,NA
67,1,continuous,37,50,trial,18857334.0,18858001.0,667.0,37,R,18857543,18857779,238,1303.0,481.6,4363,right
67,1,continuous,37,50,trial,18857334.0,18858001.0,667.0,37,R,18857841,18858233,394,510.9,494.6,4178,left
67,1,continuous,37,50,postResponse,18857334.0,18858001.0,667.0,37,R,18858289,18858333,46,1123.9,537.1,4159,NA
67,1,continuous,38,56,fixationCross,18858884.0,18860234.0,1350.0,38,R,18858407,18858485,80,1119.8,545.3,4245,NA
67,1,continuous,38,56,fixationCross,18858884.0,18860234.0,1350.0,38,R,18858507,18858809,304,1014.7,533.8,4450,NA
67,1,continuous,38,56,trial,18858884.0,18860234.0,1350.0,38,R,18858823,18859071,250,966.7,552.3,4661,NA
67,1,continuous,38,56,trial,18858884.0,18860234.0,1350.0,38,R,18859107,18859299,194,1276.9,523.6,4480,right
67,1,continuous,38,56,trial,18858884.0,18860234.0,1350.0,38,R,18859357,18859559,204,453.7,538.6,4228,left
67,1,continuous,38,56,trial,18858884.0,18860234.0,1350.0,38,R,18859583,18859833,252,348.6,432.1,3957,left
67,1,continuous,38,56,trial,18858884.0,18860234.0,1350.0,38,R,18859865,18860057,194,443.4,538.7,3869,left
67,1,continuous,38,56,trial,18858884.0,18860234.0,1350.0,38,R,18860107,18860521,416,1019.9,557.6,4055,NA
67,1,continuous,38,56,postResponse,18858884.0,18860234.0,1350.0,38,R,18860537,18860565,30,967.4,554.2,4286,NA
67,1,continuous,39,50,fixationCross,18861134.0,18861751.0,617.0,39,R,18860665,18860893,230,963.8,552.3,4464,NA
67,1,continuous,39,50,fixationCross,18861134.0,18861751.0,617.0,39,R,18860905,18861065,162,1000.9,542.9,4511,NA
67,1,continuous,39,50,trial,18861134.0,18861751.0,617.0,39,R,18861077,18861303,228,966.3,554.8,4517,NA
67,1,continuous,39,50,trial,18861134.0,18861751.0,617.0,39,R,18861343,18861583,242,1348.1,555.7,4360,right
67,1,continuous,39,50,trial,18861134.0,18861751.0,617.0,39,R,18861599,18861763,166,1379.3,583.2,4101,right
67,1,continuous,39,50,trial,18861134.0,18861751.0,617.0,39,R,18861823,18861971,150,635.0,569.0,4158,left
67,1,continuous,40,91,fixationCross,18862667.0,18863517.0,850.0,40,R,18862157,18862417,262,952.0,553.7,4340,NA
67,1,continuous,40,91,trial,18862667.0,18863517.0,850.0,40,R,18862429,18862731,304,946.2,527.8,4334,NA
67,1,continuous,40,91,trial,18862667.0,18863517.0,850.0,40,R,18862745,18862849,106,970.1,557.0,4174,NA
67,1,continuous,40,91,trial,18862667.0,18863517.0,850.0,40,R,18862881,18863109,230,1298.7,532.9,4024,right
67,1,continuous,40,91,trial,18862667.0,18863517.0,850.0,40,R,18863181,18863481,302,500.9,508.2,3883,left
67,1,continuous,40,91,trial,18862667.0,18863517.0,850.0,40,R,18863501,18863785,286,563.6,475.1,3951,left
67,1,continuous,41,29,fixationCross,18864400.0,18865383.0,983.0,41,R,18863923,18863971,50,1126.4,699.0,4124,NA
67,1,continuous,41,29,fixationCross,18864400.0,18865383.0,983.0,41,R,18864013,18864259,248,889.1,570.7,4315,NA
67,1,continuous,41,29,trial,18864400.0,18865383.0,983.0,41,R,18864275,18864579,306,937.8,570.4,4455,NA
67,1,continuous,41,29,trial,18864400.0,18865383.0,983.0,41,R,18864617,18864799,184,1298.6,579.5,4383,right
67,1,continuous,41,29,trial,18864400.0,18865383.0,983.0,41,R,18864859,18865105,248,557.1,520.1,4235,left
67,1,continuous,41,29,trial,18864400.0,18865383.0,983.0,41,R,18865129,18865293,166,487.1,554.6,4054,left
67,1,continuous,41,29,trial,18864400.0,18865383.0,983.0,41,R,18865313,18865619,308,445.5,576.4,4070,left
67,1,continuous,42,54,fixationCross,18866267.0,18867617.0,1350.0,42,R,18865797,18865875,80,734.7,533.4,4241,left
67,1,continuous,42,54,fixationCross,18866267.0,18867617.0,1350.0,42,R,18865901,18866091,192,889.6,530.4,4342,NA
67,1,continuous,42,54,trial,18866267.0,18867617.0,1350.0,42,R,18866115,18866419,306,968.6,556.4,4344,NA
67,1,continuous,42,54,trial,18866267.0,18867617.0,1350.0,42,R,18866455,18866779,326,1292.5,571.6,4145,right
67,1,continuous,42,54,trial,18866267.0,18867617.0,1350.0,42,R,18866839,18867125,288,518.3,517.7,3961,left
67,1,continuous,42,54,trial,18866267.0,18867617.0,1350.0,42,R,18867141,18867355,216,481.0,532.9,3949,left
67,1,continuous,42,54,trial,18866267.0,18867617.0,1350.0,42,R,18867407,18867577,172,1018.2,932.1,4082,likertHorizontal
67,1,continuous,42,54,postResponse,18866267.0,18867617.0,1350.0,42,R,18867601,18867949,350,946.7,916.3,4230,likertHorizontal
67,1,continuous,43,71,fixationCross,18868517.0,18869500.0,983.0,43,R,18868105,18868475,372,963.5,574.5,4484,NA
67,1,continuous,43,71,trial,18868517.0,18869500.0,983.0,43,R,18868489,18868699,212,959.2,551.8,4394,NA
67,1,continuous,43,71,trial,18868517.0,18869500.0,983.0,43,R,18868741,18868993,254,1258.5,556.8,4158,right
67,1,continuous,43,71,trial,18868517.0,18869500.0,983.0,43,R,18869011,18869171,162,1294.5,611.1,4060,right
67,1,continuous,43,71,trial,18868517.0,18869500.0,983.0,43,R,18869221,18869451,232,614.2,560.2,4119,left
67,1,continuous,43,71,trial,18868517.0,18869500.0,983.0,43,R,18869469,18869811,344,587.4,520.5,4124,left
67,1,continuous,44,78,fixationCross,18870384.0,18871417.0,1033.0,44,R,18870047,18870067,22,1023.5,497.9,4384,NA
67,1,continuous,44,78,fixationCross,18870384.0,18871417.0,1033.0,44,R,18870079,18870169,92,1013.5,568.4,4277,NA
67,1,continuous,44,78,trial,18870384.0,18871417.0,1033.0,44,R,18870187,18870389,204,950.7,563.6,4427,NA
67,1,continuous,44,78,trial,18870384.0,18871417.0,1033.0,44,R,18870399,18870569,172,958.2,547.8,4383,NA
67,1,continuous,44,78,trial,18870384.0,18871417.0,1033.0,44,R,18870607,18870757,152,1351.7,529.5,4183,right
67,1,continuous,44,78,trial,18870384.0,18871417.0,1033.0,44,R,18870835,18871071,238,408.5,520.6,3965,left
67,1,continuous,44,78,trial,18870384.0,18871417.0,1033.0,44,R,18871129,18871387,260,1199.6,870.6,3854,NA
67,1,continuous,44,78,trial,18870384.0,18871417.0,1033.0,44,R,18871437,18871719,284,1395.3,564.2,4134,right
67,1,continuous,45,49,fixationCross,18872300.0,18873167.0,867.0,45,R,18871825,18871917,94,742.3,598.0,4209,NA
67,1,continuous,45,49,fixationCross,18872300.0,18873167.0,867.0,45,R,18871943,18872227,286,889.3,583.5,4334,NA
67,1,continuous,45,49,trial,18872300.0,18873167.0,867.0,45,R,18872245,18872513,270,946.1,564.6,4577,NA
67,1,continuous,45,49,trial,18872300.0,18873167.0,867.0,45,R,18872555,18872997,444,1349.4,555.7,4317,right
67,1,continuous,45,49,postResponse,18872300.0,18873167.0,867.0,45,R,18873051,18873485,436,510.4,528.1,4165,left
67,1,continuous,46,16,fixationCross,18874067.0,18875250.0,1183.0,46,R,18873601,18873785,186,1088.7,542.6,4280,NA
67,1,continuous,46,16,trial,18874067.0,18875250.0,1183.0,46,R,18873803,18874219,418,1015.0,545.8,4479,NA
67,1,continuous,46,16,trial,18874067.0,18875250.0,1183.0,46,R,18874251,18874555,306,1282.3,548.3,4397,right
67,1,continuous,46,16,trial,18874067.0,18875250.0,1183.0,46,R,18874617,18874799,184,528.3,555.9,4337,left
67,1,continuous,46,16,trial,18874067.0,18875250.0,1183.0,46,R,18874827,18875081,256,362.8,421.8,4187,left
67,1,continuous,46,16,trial,18874067.0,18875250.0,1183.0,46,R,18875107,18875463,358,461.6,526.1,4053,left
67,1,continuous,47,50,fixationCross,18876683.0,18877851.0,1168.0,47,R,18875659,18875687,30,734.2,572.6,4119,left
67,1,continuous,47,50,fixationCross,18876683.0,18877851.0,1168.0,47,R,18875713,18875921,210,948.0,545.3,4233,NA
67,1,continuous,47,50,fixationCross,18876683.0,18877851.0,1168.0,47,R,18875947,18876515,570,1077.7,534.7,4378,NA
67,1,continuous,47,50,trial,18876683.0,18877851.0,1168.0,47,R,18876539,18876877,340,967.5,569.8,4452,NA
67,1,continuous,47,50,trial,18876683.0,18877851.0,1168.0,47,R,18876927,18877229,304,1416.8,570.6,4396,right
67,1,continuous,47,50,trial,18876683.0,18877851.0,1168.0,47,R,18877287,18877563,278,548.5,528.3,4257,left
67,1,continuous,47,50,trial,18876683.0,18877851.0,1168.0,47,R,18877585,18877855,272,469.8,526.6,4148,left
67,1,continuous,47,50,trial,18876683.0,18877851.0,1168.0,47,R,18877917,18878163,248,927.4,810.1,4238,likertHorizontal
67,1,continuous,48,23,fixationCross,18878767.0,18879867.0,1100.0,48,R,18878335,18878489,156,955.2,629.9,4524,NA
67,1,continuous,48,23,fixationCross,18878767.0,18879867.0,1100.0,48,R,18878515,18878717,204,1003.9,573.6,4514,NA
67,1,continuous,48,23,trial,18878767.0,18879867.0,1100.0,48,R,18878729,18878933,206,964.9,562.7,4368,NA
67,1,continuous,48,23,trial,18878767.0,18879867.0,1100.0,48,R,18878971,18879205,236,1341.2,521.1,4162,right
67,1,continuous,48,23,trial,18878767.0,18879867.0,1100.0,48,R,18879229,18879369,142,1383.5,419.0,4027,right
67,1,continuous,48,23,trial,18878767.0,18879867.0,1100.0,48,R,18879391,18879423,34,1272.2,416.1,4015,right
67,1,continuous,48,23,trial,18878767.0,18879867.0,1100.0,48,R,18879485,18879755,272,541.2,627.6,4135,left
67,1,continuous,48,23,trial,18878767.0,18879867.0,1100.0,48,R,18879779,18880065,288,432.3,608.8,4105,left
67,1,continuous,49,54,fixationCross,18880784.0,18882384.0,1600.0,49,R,18880309,18880335,28,793.8,553.5,4231,NA
67,1,continuous,49,54,fixationCross,18880784.0,18882384.0,1600.0,49,R,18880345,18880389,46,790.6,576.5,4118,NA
67,1,continuous,49,54,fixationCross,18880784.0,18882384.0,1600.0,49,R,18880421,18880621,202,1043.0,533.5,4310,NA
67,1,continuous,49,54,trial,18880784.0,18882384.0,1600.0,49,R,18880639,18880931,294,983.4,544.8,4374,NA
67,1,continuous,49,54,trial,18880784.0,18882384.0,1600.0,49,R,18880969,18881231,264,1316.8,600.5,4256,right
67,1,continuous,49,54,trial,18880784.0,18882384.0,1600.0,49,R,18881303,18881559,258,574.0,643.3,4180,left
67,1,continuous,49,54,trial,18880784.0,18882384.0,1600.0,49,R,18881579,18881851,274,532.9,597.8,4156,left
67,1,continuous,49,54,trial,18880784.0,18882384.0,1600.0,49,R,18881901,18882333,434,942.7,909.5,4174,likertHorizontal
67,1,continuous,49,54,trial,18880784.0,18882384.0,1600.0,49,R,18882351,18882625,276,987.8,949.0,4575,likertHorizontal
67,1,continuous,50,11,fixationCross,18883250.0,18884483.0,1233.0,50,R,18882797,18883147,352,969.0,590.8,4667,NA
67,1,continuous,50,11,trial,18883250.0,18884483.0,1233.0,50,R,18883165,18883459,296,962.4,549.6,4453,NA
67,1,continuous,50,11,trial,18883250.0,18884483.0,1233.0,50,R,18883499,18883697,200,1297.7,620.5,4217,right
67,1,continuous,50,11,trial,18883250.0,18884483.0,1233.0,50,R,18883751,18883981,232,535.3,567.3,4119,left
67,1,continuous,50,11,trial,18883250.0,18884483.0,1233.0,50,R,18884001,18884303,304,507.1,590.6,4045,left
67,1,continuous,50,11,trial,18883250.0,18884483.0,1233.0,50,R,18884325,18884707,384,509.9,512.9,4172,left
67,2,binary,1,1,fixationCross,18944268.0,18946001.0,1733.0,51,R,18943563,18943815,254,1037.9,809.4,4597,likertHorizontal
67,2,binary,1,1,fixationCross,18944268.0,18946001.0,1733.0,51,R,18943823,18943949,128,1063.1,817.2,4632,likertHorizontal
67,2,binary,1,1,trial,18944268.0,18946001.0,1733.0,51,R,18943987,18944441,456,972.7,536.5,4690,NA
67,2,binary,1,1,trial,18944268.0,18946001.0,1733.0,51,R,18944587,18944785,200,450.1,928.7,4450,NA
67,2,binary,1,1,trial,18944268.0,18946001.0,1733.0,51,R,18944831,18945075,246,478.3,640.5,4315,left
67,2,binary,1,1,trial,18944268.0,18946001.0,1733.0,51,R,18945097,18945313,218,513.2,580.5,4018,left
67,2,binary,1,1,trial,18944268.0,18946001.0,1733.0,51,R,18945321,18945593,274,484.6,564.6,3849,left
67,2,binary,1,1,trial,18944268.0,18946001.0,1733.0,51,R,18945653,18945891,240,1449.3,575.9,3852,right
67,2,binary,1,1,trial,18944268.0,18946001.0,1733.0,51,R,18945909,18946165,258,1470.6,546.1,4040,right
67,2,binary,1,1,postResponse,18944268.0,18946001.0,1733.0,51,R,18946235,18946335,102,595.8,878.6,4302,NA
67,2,binary,2,2,fixationCross,18947085.0,18948601.0,1516.0,52,R,18946435,18946625,192,929.0,643.1,4389,NA
67,2,binary,2,2,fixationCross,18947085.0,18948601.0,1516.0,52,R,18946653,18946779,128,1080.6,606.8,4570,NA
67,2,binary,2,2,trial,18947085.0,18948601.0,1516.0,52,R,18946803,18947307,506,973.9,556.9,4729,NA
67,2,binary,2,2,trial,18947085.0,18948601.0,1516.0,52,R,18947347,18947663,318,1346.0,517.1,4337,right
67,2,binary,2,2,trial,18947085.0,18948601.0,1516.0,52,R,18947675,18947773,100,1350.4,477.2,4117,right
67,2,binary,2,2,trial,18947085.0,18948601.0,1516.0,52,R,18947833,18948221,390,615.0,493.2,4082,left
67,2,binary,2,2,trial,18947085.0,18948601.0,1516.0,52,R,18948233,18948543,312,646.2,489.3,4113,left
67,2,binary,2,2,trial,18947085.0,18948601.0,1516.0,52,R,18948593,18948855,264,1275.3,470.7,4302,right
67,2,binary,3,1,fixationCross,18949551.0,18950835.0,1284.0,53,R,18949011,18949265,256,1077.7,495.5,4560,NA
67,2,binary,3,1,fixationCross,18949551.0,18950835.0,1284.0,53,R,18949291,18949443,154,970.0,568.1,4704,NA
67,2,binary,3,1,trial,18949551.0,18950835.0,1284.0,53,R,18949461,18949785,326,964.3,539.0,4619,NA
67,2,binary,3,1,trial,18949551.0,18950835.0,1284.0,53,R,18949829,18950133,306,1372.3,482.7,4288,right
67,2,binary,3,1,trial,18949551.0,18950835.0,1284.0,53,R,18950151,18950431,282,1410.6,494.5,4178,right
67,2,binary,3,1,trial,18949551.0,18950835.0,1284.0,53,R,18950489,18950769,282,499.1,537.4,4180,left
67,2,binary,3,1,trial,18949551.0,18950835.0,1284.0,53,R,18950791,18951039,250,480.8,590.8,4190,left
67,2,binary,3,1,postResponse,18949551.0,18950835.0,1284.0,53,R,18951101,18951167,68,1046.1,508.7,4274,NA
67,2,binary,4,2,fixationCross,18951902.0,18953185.0,1283.0,54,R,18951267,18951327,62,1042.8,509.0,4239,NA
67,2,binary,4,2,fixationCross,18951902.0,18953185.0,1283.0,54,R,18951349,18951597,250,1125.0,500.9,4343,NA
67,2,binary,4,2,trial,18951902.0,18953185.0,1283.0,54,R,18951623,18951907,286,987.1,534.2,4602,NA
67,2,binary,4,2,trial,18951902.0,18953185.0,1283.0,54,R,18951915,18952069,156,975.7,548.7,4581,NA
67,2,binary,4,2,trial,18951902.0,18953185.0,1283.0,54,R,18952109,18952265,158,1358.5,490.9,4457,right
67,2,binary,4,2,trial,18951902.0,18953185.0,1283.0,54,R,18952283,18952455,174,1358.4,439.2,4296,right
67,2,binary,4,2,trial,18951902.0,18953185.0,1283.0,54,R,18952535,18952801,268,416.5,540.3,4263,left
67,2,binary,4,2,trial,18951902.0,18953185.0,1283.0,54,R,18952823,18953063,242,525.5,491.5,4042,left
67,2,binary,4,2,trial,18951902.0,18953185.0,1283.0,54,R,18953081,18953357,278,528.7,539.8,4024,left
67,2,binary,5,2,fixationCross,18954201.0,18955334.0,1133.0,55,R,18953591,18953653,64,904.5,508.2,4128,NA
67,2,binary,5,2,fixationCross,18954201.0,18955334.0,1133.0,55,R,18953683,18953905,224,1056.8,475.0,4278,NA
67,2,binary,5,2,fixationCross,18954201.0,18955334.0,1133.0,55,R,18953927,18954119,194,989.9,516.7,4287,NA
67,2,binary,5,2,trial,18954201.0,18955334.0,1133.0,55,R,18954131,18954357,228,967.1,527.1,4226,NA
67,2,binary,5,2,trial,18954201.0,18955334.0,1133.0,55,R,18954395,18954683,290,1326.9,518.6,4093,right
67,2,binary,5,2,trial,18954201.0,18955334.0,1133.0,55,R,18954739,18954969,232,516.1,578.0,3995,left
67,2,binary,5,2,trial,18954201.0,18955334.0,1133.0,55,R,18954991,18955353,364,462.7,602.1,3876,left
67,2,binary,5,2,postResponse,18954201.0,18955334.0,1133.0,55,R,18955383,18955653,272,675.0,527.3,3895,left
67,2,binary,6,1,fixationCross,18956235.0,18956935.0,700.0,56,R,18955749,18955899,152,941.9,471.8,4101,NA
67,2,binary,6,1,fixationCross,18956235.0,18956935.0,700.0,56,R,18955931,18956161,232,867.9,529.0,4311,NA
67,2,binary,6,1,trial,18956235.0,18956935.0,700.0,56,R,18956181,18956485,306,975.0,536.5,4469,NA
67,2,binary,6,1,trial,18956235.0,18956935.0,700.0,56,R,18956535,18956885,352,569.7,516.5,4270,left
67,2,binary,6,1,postResponse,18956235.0,18956935.0,700.0,56,R,18956897,18957269,374,596.2,501.4,4055,left
67,2,binary,7,1,fixationCross,18958118.0,18959734.0,1616.0,57,R,18957419,18957523,106,927.2,536.7,4235,NA
67,2,binary,7,1,fixationCross,18958118.0,18959734.0,1616.0,57,R,18957551,18957815,266,1101.2,523.3,4369,NA
67,2,binary,7,1,trial,18958118.0,18959734.0,1616.0,57,R,18957839,18958183,346,989.3,532.9,4400,NA
67,2,binary,7,1,trial,18958118.0,18959734.0,1616.0,57,R,18958201,18958301,102,1071.5,526.6,4336,NA
67,2,binary,7,1,trial,18958118.0,18959734.0,1616.0,57,R,18958341,18958615,276,1414.4,504.8,4233,right
67,2,binary,7,1,trial,18958118.0,18959734.0,1616.0,57,R,18958681,18958947,268,593.9,549.7,4199,left
67,2,binary,7,1,trial,18958118.0,18959734.0,1616.0,57,R,18958961,18959423,464,558.0,530.4,4159,left
67,2,binary,7,1,trial,18958118.0,18959734.0,1616.0,57,R,18959445,18959917,474,444.3,550.7,4277,left
67,2,binary,7,1,postResponse,18958118.0,18959734.0,1616.0,57,R,18959971,18960067,98,1021.0,491.3,4304,NA
67,2,binary,8,2,fixationCross,18960785.0,18961735.0,950.0,58,R,18960167,18960229,64,1013.7,494.1,4363,NA
67,2,binary,8,2,fixationCross,18960785.0,18961735.0,950.0,58,R,18960255,18960475,222,1170.0,502.1,4505,NA
67,2,binary,8,2,fixationCross,18960785.0,18961735.0,950.0,58,R,18960503,18960637,136,992.6,531.4,4627,NA
67,2,binary,8,2,trial,18960785.0,18961735.0,950.0,58,R,18960649,18960965,318,953.4,540.1,4525,NA
67,2,binary,8,2,trial,18960785.0,18961735.0,950.0,58,R,18961007,18961215,210,1397.2,559.6,4358,right
67,2,binary,8,2,trial,18960785.0,18961735.0,950.0,58,R,18961281,18961585,306,520.0,539.3,4467,left
67,2,binary,8,2,trial,18960785.0,18961735.0,950.0,58,R,18961607,18961989,384,482.2,463.7,4165,left
67,2,binary,9,2,fixationCross,18962635.0,18963568.0,933.0,59,R,18962173,18962309,138,776.2,519.2,4241,NA
67,2,binary,9,2,trial,18962635.0,18963568.0,933.0,59,R,18962333,18962639,308,912.3,503.2,4370,NA
67,2,binary,9,2,trial,18962635.0,18963568.0,933.0,59,R,18962657,18962847,192,953.1,536.5,4314,NA
67,2,binary,9,2,trial,18962635.0,18963568.0,933.0,59,R,18962899,18963071,174,494.9,543.1,4288,left
67,2,binary,9,2,trial,18962635.0,18963568.0,933.0,59,R,18963129,18963733,606,1382.0,545.7,3947,right
67,2,binary,9,2,postResponse,18962635.0,18963568.0,933.0,59,R,18963791,18963903,114,798.7,560.8,4159,NA
67,2,binary,10,1,fixationCross,18964435.0,18965618.0,1183.0,60,R,18963977,18964045,70,798.3,559.7,4290,NA
67,2,binary,10,1,fixationCross,18964435.0,18965618.0,1183.0,60,R,18964073,18964373,302,946.0,517.2,4425,NA
67,2,binary,10,1,trial,18964435.0,18965618.0,1183.0,60,R,18964385,18964649,266,979.0,533.2,4528,NA
67,2,binary,10,1,trial,18964435.0,18965618.0,1183.0,60,R,18964677,18964785,110,976.2,533.1,4546,NA
67,2,binary,10,1,trial,18964435.0,18965618.0,1183.0,60,R,18964823,18964963,142,608.2,500.4,4407,left
67,2,binary,10,1,trial,18964435.0,18965618.0,1183.0,60,R,18965019,18965181,164,1437.6,535.6,4302,right
67,2,binary,10,1,trial,18964435.0,18965618.0,1183.0,60,R,18965199,18965799,602,1498.1,520.9,4073,right
67,2,binary,10,1,postResponse,18964435.0,18965618.0,1183.0,60,R,18965851,18965951,102,904.0,516.5,4190,NA
67,2,binary,11,2,fixationCross,18966518.0,18967502.0,984.0,61,R,18966051,18966139,90,900.7,519.6,4320,NA
67,2,binary,11,2,fixationCross,18966518.0,18967502.0,984.0,61,R,18966151,18966377,228,875.4,523.0,4462,NA
67,2,binary,11,2,trial,18966518.0,18967502.0,984.0,61,R,18966399,18966709,312,960.8,541.4,4503,NA
67,2,binary,11,2,trial,18966518.0,18967502.0,984.0,61,R,18966761,18966943,184,534.8,546.2,4445,left
67,2,binary,11,2,trial,18966518.0,18967502.0,984.0,61,R,18967009,18967551,544,1418.0,601.0,4224,right
67,2,binary,11,2,trial,18966518.0,18967502.0,984.0,61,R,18967577,18967689,114,1330.6,498.9,4316,right
67,2,binary,12,1,fixationCross,18968402.0,18969569.0,1167.0,62,R,18967933,18967981,50,931.0,569.6,4484,NA
67,2,binary,12,1,fixationCross,18968402.0,18969569.0,1167.0,62,R,18968003,18968217,216,1047.2,553.8,4567,NA
67,2,binary,12,1,trial,18968402.0,18969569.0,1167.0,62,R,18968235,18968571,338,985.6,545.1,4424,NA
67,2,binary,12,1,trial,18968402.0,18969569.0,1167.0,62,R,18968613,18968859,248,1389.7,549.7,4214,right
67,2,binary,12,1,trial,18968402.0,18969569.0,1167.0,62,R,18968879,18969095,218,1420.1,489.6,4173,right
67,2,binary,12,1,trial,18968402.0,18969569.0,1167.0,62,R,18969175,18969309,136,502.2,587.1,4306,left
67,2,binary,12,1,trial,18968402.0,18969569.0,1167.0,62,R,18969327,18969815,490,450.3,548.9,4047,left
67,2,binary,13,1,fixationCross,18970985.0,18972635.0,1650.0,63,R,18970007,18970163,158,1002.8,525.9,4042,NA
67,2,binary,13,1,fixationCross,18970985.0,18972635.0,1650.0,63,R,18970189,18970655,468,1145.8,507.4,4305,NA
67,2,binary,13,1,fixationCross,18970985.0,18972635.0,1650.0,63,R,18970675,18970891,218,1047.8,524.4,4340,NA
67,2,binary,13,1,trial,18970985.0,18972635.0,1650.0,63,R,18970911,18971195,286,980.8,533.5,4495,NA
67,2,binary,13,1,trial,18970985.0,18972635.0,1650.0,63,R,18971233,18971435,204,1314.7,515.5,4378,right
67,2,binary,13,1,trial,18970985.0,18972635.0,1650.0,63,R,18971495,18972015,522,578.4,536.7,4134,left
67,2,binary,13,1,trial,18970985.0,18972635.0,1650.0,63,R,18972073,18972361,290,1374.5,513.0,4063,right
67,2,binary,13,1,trial,18970985.0,18972635.0,1650.0,63,R,18972385,18972849,466,1420.7,601.1,4171,right
67,2,binary,13,1,postResponse,18970985.0,18972635.0,1650.0,63,R,18972891,18972967,78,1144.4,527.0,4196,NA
67,2,binary,14,2,fixationCross,18973635.0,18975568.0,1933.0,64,R,18973151,18973335,186,1135.7,497.9,4400,NA
67,2,binary,14,2,fixationCross,18973635.0,18975568.0,1933.0,64,R,18973365,18973487,124,951.6,553.1,4539,NA
67,2,binary,14,2,trial,18973635.0,18975568.0,1933.0,64,R,18973499,18973787,290,978.9,539.0,4373,NA
67,2,binary,14,2,trial,18973635.0,18975568.0,1933.0,64,R,18973829,18974029,202,1410.7,501.4,4112,right
67,2,binary,14,2,trial,18973635.0,18975568.0,1933.0,64,R,18974043,18974419,378,1441.1,476.8,4030,right
67,2,binary,14,2,trial,18973635.0,18975568.0,1933.0,64,R,18974485,18974725,242,623.5,557.9,4255,left
67,2,binary,14,2,trial,18973635.0,18975568.0,1933.0,64,R,18974781,18975213,434,1429.4,523.8,4184,right
67,2,binary,14,2,trial,18973635.0,18975568.0,1933.0,64,R,18975235,18975823,590,1441.7,488.7,4433,right
67,2,binary,15,2,fixationCross,18976585.0,18977801.0,1216.0,65,R,18976001,18976027,28,1297.3,420.3,4723,right
67,2,binary,15,2,fixationCross,18976585.0,18977801.0,1216.0,65,R,18976037,18976061,26,1288.5,472.1,4572,right
67,2,binary,15,2,fixationCross,18976585.0,18977801.0,1216.0,65,R,18976117,18976275,160,844.8,516.4,4756,NA
67,2,binary,15,2,fixationCross,18976585.0,18977801.0,1216.0,65,R,18976313,18976467,156,980.4,529.6,4627,NA
67,2,binary,15,2,trial,18976585.0,18977801.0,1216.0,65,R,18976479,18976805,328,967.9,546.7,4467,NA
67,2,binary,15,2,trial,18976585.0,18977801.0,1216.0,65,R,18976859,18977025,168,521.9,572.6,4320,left
67,2,binary,15,2,trial,18976585.0,18977801.0,1216.0,65,R,18977083,18977371,290,1410.4,522.7,3889,right
67,2,binary,15,2,trial,18976585.0,18977801.0,1216.0,65,R,18977395,18977833,440,1543.7,541.8,3827,right
67,2,binary,15,2,trial,18976585.0,18977801.0,1216.0,65,R,18977859,18978099,242,1393.3,440.5,4014,right
67,2,binary,16,2,fixationCross,18978902.0,18979952.0,1050.0,66,R,18978233,18978479,248,1100.8,490.1,4425,NA
67,2,binary,16,2,fixationCross,18978902.0,18979952.0,1050.0,66,R,18978499,18978663,166,1066.0,507.8,4690,NA
67,2,binary,16,2,trial,18978902.0,18979952.0,1050.0,66,R,18978685,18979099,416,970.7,539.1,4681,NA
67,2,binary,16,2,trial,18978902.0,18979952.0,1050.0,66,R,18979151,18979297,148,541.7,576.6,4482,left
67,2,binary,16,2,trial,18978902.0,18979952.0,1050.0,66,R,18979351,18979527,178,1376.6,502.3,4203,right
67,2,binary,16,2,trial,18978902.0,18979952.0,1050.0,66,R,18979539,18979735,198,1399.4,519.9,4090,right
67,2,binary,16,2,trial,18978902.0,18979952.0,1050.0,66,R,18979761,18979903,144,1425.9,402.9,4052,right
67,2,binary,16,2,postResponse,18978902.0,18979952.0,1050.0,66,R,18979915,18980269,356,1455.4,407.3,4064,right
67,2,binary,17,1,fixationCross,18980852.0,18981519.0,667.0,67,R,18980387,18980501,116,806.6,594.1,4492,NA
67,2,binary,17,1,fixationCross,18980852.0,18981519.0,667.0,67,R,18980523,18980739,218,868.5,558.7,4561,NA
67,2,binary,17,1,trial,18980852.0,18981519.0,667.0,67,R,18980755,18980879,126,900.9,539.9,4530,NA
67,2,binary,17,1,trial,18980852.0,18981519.0,667.0,67,R,18980897,18981053,158,958.2,533.7,4485,NA
67,2,binary,17,1,trial,18980852.0,18981519.0,667.0,67,R,18981107,18981335,230,505.0,503.0,4382,left
67,2,binary,17,1,trial,18980852.0,18981519.0,667.0,67,R,18981353,18981569,218,492.4,458.3,4103,left
67,2,binary,17,1,postResponse,18980852.0,18981519.0,667.0,67,R,18981581,18981851,272,489.8,428.3,3913,left
67,2,binary,18,1,fixationCross,18982519.0,18983535.0,1016.0,68,R,18981973,18982207,236,1305.4,537.7,3982,right
67,2,binary,18,1,fixationCross,18982519.0,18983535.0,1016.0,68,R,18982249,18982371,124,1033.5,526.0,4166,NA
67,2,binary,18,1,trial,18982519.0,18983535.0,1016.0,68,R,18982401,18982565,166,967.9,528.6,4280,NA
67,2,binary,18,1,trial,18982519.0,18983535.0,1016.0,68,R,18982617,18982751,136,618.0,460.3,4306,left
67,2,binary,18,1,trial,18982519.0,18983535.0,1016.0,68,R,18982783,18982851,70,461.6,477.7,4255,left
67,2,binary,18,1,trial,18982519.0,18983535.0,1016.0,68,R,18982933,18983129,198,1502.2,505.4,4068,right
67,2,binary,18,1,trial,18982519.0,18983535.0,1016.0,68,R,18983143,18983757,616,1483.2,470.6,4077,right
67,2,binary,18,1,postResponse,18982519.0,18983535.0,1016.0,68,R,18983797,18983869,74,1211.2,464.4,4273,right
67,2,binary,19,2,fixationCross,18984468.0,18985269.0,801.0,69,R,18983993,18984273,282,1023.5,480.2,4484,NA
67,2,binary,19,2,trial,18984468.0,18985269.0,801.0,69,R,18984295,18984647,354,948.8,516.1,4561,NA
67,2,binary,19,2,trial,18984468.0,18985269.0,801.0,69,R,18984691,18984837,148,487.2,510.8,4507,left
67,2,binary,19,2,trial,18984468.0,18985269.0,801.0,69,R,18984891,18985027,138,1344.5,536.4,4217,right
67,2,binary,19,2,trial,18984468.0,18985269.0,801.0,69,R,18985051,18985503,454,1410.8,526.4,4070,right
67,2,binary,19,2,postResponse,18984468.0,18985269.0,801.0,69,R,18985545,18985607,64,1114.1,518.5,4163,NA
67,2,binary,20,1,fixationCross,18986319.0,18987219.0,900.0,70,R,18985707,18985733,28,1106.2,520.8,4258,NA
67,2,binary,20,1,fixationCross,18986319.0,18987219.0,900.0,70,R,18985777,18986007,232,732.9,524.2,4456,left
67,2,binary,20,1,fixationCross,18986319.0,18987219.0,900.0,70,R,18986035,18986167,134,900.8,523.7,4548,NA
67,2,binary,20,1,trial,18986319.0,18987219.0,900.0,70,R,18986181,18986485,306,949.3,538.0,4498,NA
67,2,binary,20,1,trial,18986319.0,18987219.0,900.0,70,R,18986529,18986785,258,1411.1,550.1,4364,right
67,2,binary,20,1,trial,18986319.0,18987219.0,900.0,70,R,18986853,18987483,632,478.0,462.3,4043,left
67,2,binary,21,2,fixationCross,18989119.0,18990069.0,950.0,71,R,18987639,18987773,136,484.9,521.1,4163,left
67,2,binary,21,2,fixationCross,18989119.0,18990069.0,950.0,71,R,18987829,18988019,192,1235.4,543.8,4285,right
67,2,binary,21,2,fixationCross,18989119.0,18990069.0,950.0,71,R,18988041,18988527,488,1283.7,496.9,4313,right
67,2,binary,21,2,fixationCross,18989119.0,18990069.0,950.0,71,R,18988545,18988793,250,1327.4,522.0,4474,right
67,2,binary,21,2,fixationCross,18989119.0,18990069.0,950.0,71,R,18988831,18988977,148,983.2,535.6,4693,NA
67,2,binary,21,2,trial,18989119.0,18990069.0,950.0,71,R,18989005,18989251,248,768.5,529.0,4741,NA
67,2,binary,21,2,trial,18989119.0,18990069.0,950.0,71,R,18989289,18989507,220,470.9,484.3,4509,left
67,2,binary,21,2,trial,18989119.0,18990069.0,950.0,71,R,18989521,18989595,76,416.6,469.5,4194,left
67,2,binary,21,2,trial,18989119.0,18990069.0,950.0,71,R,18989657,18990055,400,1432.9,504.1,3900,right
67,2,binary,21,2,trial,18989119.0,18990069.0,950.0,71,R,18990069,18990329,262,1393.1,526.2,4117,right
67,2,binary,22,1,fixationCross,18991052.0,18991969.0,917.0,72,R,18990507,18990659,154,1018.8,504.4,4414,NA
67,2,binary,22,1,fixationCross,18991052.0,18991969.0,917.0,72,R,18990693,18990811,120,849.7,525.2,4505,NA
67,2,binary,22,1,trial,18991052.0,18991969.0,917.0,72,R,18990835,18991235,402,961.0,536.4,4429,NA
67,2,binary,22,1,trial,18991052.0,18991969.0,917.0,72,R,18991287,18991533,248,568.8,516.9,4355,left
67,2,binary,22,1,trial,18991052.0,18991969.0,917.0,72,R,18991607,18992241,636,1349.8,549.3,4129,right
67,2,binary,23,2,fixationCross,18992852.0,18994852.0,2000.0,73,R,18992371,18992549,180,1094.5,565.9,4612,NA
67,2,binary,23,2,fixationCross,18992852.0,18994852.0,2000.0,73,R,18992565,18992783,220,1039.1,548.6,4777,NA
67,2,binary,23,2,trial,18992852.0,18994852.0,2000.0,73,R,18992801,18993069,270,965.5,534.0,4844,NA
67,2,binary,23,2,trial,18992852.0,18994852.0,2000.0,73,R,18993119,18993259,142,560.1,557.6,4623,left
67,2,binary,23,2,trial,18992852.0,18994852.0,2000.0,73,R,18993317,18993623,308,1392.9,486.7,4125,right
67,2,binary,23,2,trial,18992852.0,18994852.0,2000.0,73,R,18993639,18994079,442,1412.7,438.8,4004,right
67,2,binary,23,2,trial,18992852.0,18994852.0,2000.0,73,R,18994095,18995121,1028,1417.2,487.1,4383,right
67,2,binary,24,2,fixationCross,18995852.0,18997152.0,1300.0,74,R,18995285,18995327,44,1334.3,448.0,4729,right
67,2,binary,24,2,fixationCross,18995852.0,18997152.0,1300.0,74,R,18995339,18995443,106,1322.7,502.5,4559,right
67,2,binary,24,2,fixationCross,18995852.0,18997152.0,1300.0,74,R,18995495,18995603,110,833.9,553.0,4652,NA
67,2,binary,24,2,trial,18995852.0,18997152.0,1300.0,74,R,18995629,18995991,364,965.8,535.7,4403,NA
67,2,binary,24,2,trial,18995852.0,18997152.0,1300.0,74,R,18996033,18996175,144,548.5,525.6,4227,left
67,2,binary,24,2,trial,18995852.0,18997152.0,1300.0,74,R,18996197,18996507,312,497.9,543.3,3988,left
67,2,binary,24,2,trial,18995852.0,18997152.0,1300.0,74,R,18996571,18996963,394,1410.9,540.5,3814,right
67,2,binary,24,2,postResponse,18995852.0,18997152.0,1300.0,74,R,18997031,18997485,456,494.8,552.0,3981,left
67,2,binary,25,2,fixationCross,18998202.0,18999086.0,884.0,75,R,18997561,18997723,164,637.5,537.7,4067,left
67,2,binary,25,2,fixationCross,18998202.0,18999086.0,884.0,75,R,18997773,18997947,176,1122.3,582.0,4168,NA
67,2,binary,25,2,fixationCross,18998202.0,18999086.0,884.0,75,R,18997969,18998105,138,1020.0,538.3,4292,NA
67,2,binary,25,2,trial,18998202.0,18999086.0,884.0,75,R,18998119,18998431,314,971.5,534.7,4385,NA
67,2,binary,25,2,trial,18998202.0,18999086.0,884.0,75,R,18998483,18998709,228,542.5,544.4,4202,left
67,2,binary,25,2,trial,18998202.0,18999086.0,884.0,75,R,18998763,18999131,370,1369.9,567.9,3952,right
67,2,binary,25,2,trial,18998202.0,18999086.0,884.0,75,R,18999151,18999355,206,1364.4,512.8,3944,right
67,2,binary,26,2,fixationCross,19062969.0,19064219.0,1250.0,76,R,19062495,19062919,426,955.9,510.8,4224,NA
67,2,binary,26,2,trial,19062969.0,19064219.0,1250.0,76,R,19062937,19063283,348,962.1,552.1,4420,NA
67,2,binary,26,2,trial,19062969.0,19064219.0,1250.0,76,R,19063339,19063535,198,490.8,935.3,4166,NA
67,2,binary,26,2,trial,19062969.0,19064219.0,1250.0,76,R,19063605,19064039,436,1398.5,560.0,4089,right
67,2,binary,26,2,postResponse,19062969.0,19064219.0,1250.0,76,R,19064101,19064553,454,598.8,509.4,4033,left
67,2,binary,27,2,fixationCross,19065086.0,19066369.0,1283.0,77,R,19064627,19064787,162,1164.3,476.7,3918,NA
67,2,binary,27,2,fixationCross,19065086.0,19066369.0,1283.0,77,R,19064811,19064985,176,1035.4,493.8,4079,NA
67,2,binary,27,2,trial,19065086.0,19066369.0,1283.0,77,R,19065009,19065317,310,960.1,537.5,4395,NA
67,2,binary,27,2,trial,19065086.0,19066369.0,1283.0,77,R,19065369,19065487,120,580.8,592.5,4357,left
67,2,binary,27,2,trial,19065086.0,19066369.0,1283.0,77,R,19065549,19065773,226,1366.6,597.5,4032,right
67,2,binary,27,2,trial,19065086.0,19066369.0,1283.0,77,R,19065839,19065981,144,488.2,453.9,3860,left
67,2,binary,27,2,trial,19065086.0,19066369.0,1283.0,77,R,19066005,19066431,428,365.3,460.7,3791,left
67,2,binary,27,2,trial,19065086.0,19066369.0,1283.0,77,R,19066457,19066585,130,556.3,468.3,3840,left
67,2,binary,27,2,postResponse,19065086.0,19066369.0,1283.0,77,R,19066637,19066701,66,1120.7,507.4,3888,NA
67,2,binary,28,2,fixationCross,19067470.0,19068653.0,1183.0,78,R,19066801,19067107,308,1110.0,512.3,4199,NA
67,2,binary,28,2,trial,19067470.0,19068653.0,1183.0,78,R,19067315,19067491,178,972.8,528.1,4427,NA
67,2,binary,28,2,trial,19067470.0,19068653.0,1183.0,78,R,19067501,19067709,210,952.4,540.5,4501,NA
67,2,binary,28,2,trial,19067470.0,19068653.0,1183.0,78,R,19067761,19067961,202,478.5,507.3,4281,left
67,2,binary,28,2,trial,19067470.0,19068653.0,1183.0,78,R,19067979,19068075,98,450.0,500.0,4084,left
67,2,binary,28,2,trial,19067470.0,19068653.0,1183.0,78,R,19068145,19068411,268,1464.7,530.4,3738,right
67,2,binary,28,2,trial,19067470.0,19068653.0,1183.0,78,R,19068431,19068969,540,1426.2,474.2,3994,right
67,2,binary,29,1,fixationCross,19069836.0,19070853.0,1017.0,79,R,19069059,19069093,36,1260.0,506.3,4280,right
67,2,binary,29,1,fixationCross,19069836.0,19070853.0,1017.0,79,R,19069149,19069329,182,746.5,530.5,4520,NA
67,2,binary,29,1,fixationCross,19069836.0,19070853.0,1017.0,79,R,19069353,19069529,178,651.0,568.0,4741,left
67,2,binary,29,1,trial,19069836.0,19070853.0,1017.0,79,R,19069561,19069979,420,962.2,573.4,4754,NA
67,2,binary,29,1,trial,19069836.0,19070853.0,1017.0,79,R,19070031,19070345,316,577.6,605.0,4847,left
67,2,binary,29,1,trial,19069836.0,19070853.0,1017.0,79,R,19070407,19070899,494,1503.7,529.5,4288,right
67,2,binary,29,1,trial,19069836.0,19070853.0,1017.0,79,R,19070919,19071103,186,1525.2,580.6,4252,right
67,2,binary,30,1,fixationCross,19071720.0,19072636.0,916.0,80,R,19071261,19071309,50,820.5,556.6,4443,NA
67,2,binary,30,1,fixationCross,19071720.0,19072636.0,916.0,80,R,19071335,19071605,272,937.9,510.5,4468,NA
67,2,binary,30,1,trial,19071720.0,19072636.0,916.0,80,R,19071617,19071881,266,975.7,529.9,4503,NA
67,2,binary,30,1,trial,19071720.0,19072636.0,916.0,80,R,19071911,19072169,260,1305.4,547.0,4326,right
67,2,binary,30,1,trial,19071720.0,19072636.0,916.0,80,R,19072243,19072673,432,483.0,520.6,4022,left
67,2,binary,30,1,trial,19071720.0,19072636.0,916.0,80,R,19072691,19072873,184,378.1,505.1,3746,left
67,2,binary,31,2,fixationCross,19073686.0,19074536.0,850.0,81,R,19073069,19073165,98,1266.5,534.6,3787,right
67,2,binary,31,2,fixationCross,19073686.0,19074536.0,850.0,81,R,19073187,19073379,194,1179.5,464.2,4043,NA
67,2,binary,31,2,trial,19073686.0,19074536.0,850.0,81,R,19073409,19073695,288,961.9,519.8,4386,NA
67,2,binary,31,2,trial,19073686.0,19074536.0,850.0,81,R,19073743,19073923,182,547.9,492.3,4440,left
67,2,binary,31,2,trial,19073686.0,19074536.0,850.0,81,R,19073943,19074027,86,460.1,510.0,4354,left
67,2,binary,31,2,trial,19073686.0,19074536.0,850.0,81,R,19074087,19074401,316,1414.5,550.8,3976,right
67,2,binary,31,2,trial,19073686.0,19074536.0,850.0,81,R,19074419,19074773,356,1379.5,597.1,4012,right
67,2,binary,31,2,postResponse,19073686.0,19074536.0,850.0,81,R,19074827,19074869,44,767.4,466.2,4176,NA
67,2,binary,32,1,fixationCross,19076820.0,19078236.0,1416.0,82,R,19074969,19075055,88,763.7,469.4,4318,NA
67,2,binary,32,1,fixationCross,19076820.0,19078236.0,1416.0,82,R,19075087,19075353,268,609.3,446.2,4474,left
67,2,binary,32,1,fixationCross,19076820.0,19078236.0,1416.0,82,R,19075377,19075595,220,559.4,535.4,4594,left
67,2,binary,32,1,fixationCross,19076820.0,19078236.0,1416.0,82,R,19075613,19076011,400,506.2,530.9,4637,left
67,2,binary,32,1,fixationCross,19076820.0,19078236.0,1416.0,82,R,19076029,19076241,214,554.1,497.7,4482,left
67,2,binary,32,1,fixationCross,19076820.0,19078236.0,1416.0,82,R,19076257,19076489,234,500.8,494.3,4521,left
67,2,binary,32,1,trial,19076820.0,19078236.0,1416.0,82,R,19076531,19076971,442,958.3,543.8,4564,NA
67,2,binary,32,1,trial,19076820.0,19078236.0,1416.0,82,R,19077023,19077299,278,514.1,560.7,4417,left
67,2,binary,32,1,trial,19076820.0,19078236.0,1416.0,82,R,19077359,19077547,190,1376.2,518.7,3984,right
67,2,binary,32,1,trial,19076820.0,19078236.0,1416.0,82,R,19077561,19077873,314,1336.9,504.0,3927,right
67,2,binary,32,1,trial,19076820.0,19078236.0,1416.0,82,R,19077939,19078107,170,537.3,560.0,4184,left
67,2,binary,32,1,trial,19076820.0,19078236.0,1416.0,82,R,19078129,19078525,398,513.8,583.9,4185,left
67,2,binary,33,1,fixationCross,19079403.0,19080470.0,1067.0,83,R,19078749,19078997,250,1157.9,492.6,4182,NA
67,2,binary,33,1,fixationCross,19079403.0,19080470.0,1067.0,83,R,19079021,19079163,144,1052.8,496.1,4324,NA
67,2,binary,33,1,trial,19079403.0,19080470.0,1067.0,83,R,19079185,19079599,416,955.8,522.1,4302,NA
67,2,binary,33,1,trial,19079403.0,19080470.0,1067.0,83,R,19079651,19079761,112,548.1,504.7,4250,left
67,2,binary,33,1,trial,19079403.0,19080470.0,1067.0,83,R,19079785,19079877,94,535.5,417.0,4186,left
67,2,binary,33,1,trial,19079403.0,19080470.0,1067.0,83,R,19079939,19080469,532,1357.3,496.9,4004,right
67,2,binary,33,1,postResponse,19079403.0,19080470.0,1067.0,83,R,19080485,19080803,320,1382.4,541.3,4225,right
67,2,binary,34,1,fixationCross,19081503.0,19082519.0,1016.0,84,R,19080975,19081217,244,802.8,548.9,4344,NA
67,2,binary,34,1,fixationCross,19081503.0,19082519.0,1016.0,84,R,19081241,19081381,142,913.8,537.1,4365,NA
67,2,binary,34,1,trial,19081503.0,19082519.0,1016.0,84,R,19081391,19081651,262,947.1,540.7,4255,NA
67,2,binary,34,1,trial,19081503.0,19082519.0,1016.0,84,R,19081701,19081875,176,511.5,511.8,4262,left
67,2,binary,34,1,trial,19081503.0,19082519.0,1016.0,84,R,19081941,19082093,154,1419.3,552.4,4027,right
67,2,binary,34,1,postResponse,19081503.0,19082519.0,1016.0,84,R,19082151,19082853,704,585.4,469.2,4063,left
67,2,binary,35,2,fixationCross,19083537.0,19084720.0,1183.0,85,R,19082927,19083225,300,597.0,483.3,4272,left
67,2,binary,35,2,fixationCross,19083537.0,19084720.0,1183.0,85,R,19083263,19083387,126,990.5,529.5,4335,NA
67,2,binary,35,2,trial,19083537.0,19084720.0,1183.0,85,R,19083401,19083739,340,959.8,533.6,4392,NA
67,2,binary,35,2,trial,19083537.0,19084720.0,1183.0,85,R,19083789,19083935,148,628.0,536.8,4369,left
67,2,binary,35,2,trial,19083537.0,19084720.0,1183.0,85,R,19083995,19084141,148,1556.3,523.1,4045,right
67,2,binary,35,2,trial,19083537.0,19084720.0,1183.0,85,R,19084159,19084325,168,1579.6,481.1,3926,right
67,2,binary,35,2,trial,19083537.0,19084720.0,1183.0,85,R,19084351,19084615,266,1452.4,582.2,3904,right
67,2,binary,35,2,trial,19083537.0,19084720.0,1183.0,85,R,19084683,19084939,258,552.9,531.3,4074,left
67,2,binary,36,2,fixationCross,19085720.0,19087019.0,1299.0,86,R,19085123,19085215,94,614.6,474.7,4098,left
67,2,binary,36,2,fixationCross,19085720.0,19087019.0,1299.0,86,R,19085263,19085423,162,1143.1,536.6,4202,NA
67,2,binary,36,2,trial,19085720.0,19087019.0,1299.0,86,R,19085451,19085901,452,973.0,532.6,4209,NA
67,2,binary,36,2,trial,19085720.0,19087019.0,1299.0,86,R,19085941,19086143,204,1381.7,568.2,4054,right
67,2,binary,36,2,trial,19085720.0,19087019.0,1299.0,86,R,19086165,19086487,324,1463.4,532.8,3876,right
67,2,binary,36,2,trial,19085720.0,19087019.0,1299.0,86,R,19086539,19086715,178,705.2,525.9,3911,left
67,2,binary,36,2,trial,19085720.0,19087019.0,1299.0,86,R,19086743,19087229,488,571.4,538.0,4001,left
67,2,binary,36,2,postResponse,19085720.0,19087019.0,1299.0,86,R,19087259,19087351,94,756.2,510.3,4043,NA
67,2,binary,37,2,fixationCross,19087936.0,19089236.0,1300.0,87,R,19087425,19087443,20,753.6,507.8,4074,NA
67,2,binary,37,2,fixationCross,19087936.0,19089236.0,1300.0,87,R,19087495,19087633,140,1284.0,599.7,4108,right
67,2,binary,37,2,fixationCross,19087936.0,19089236.0,1300.0,87,R,19087665,19087857,194,1030.5,549.9,4312,NA
67,2,binary,37,2,trial,19087936.0,19089236.0,1300.0,87,R,19087875,19088137,264,963.5,522.8,4394,NA
67,2,binary,37,2,trial,19087936.0,19089236.0,1300.0,87,R,19088181,19088353,174,1391.5,560.1,4208,right
67,2,binary,37,2,trial,19087936.0,19089236.0,1300.0,87,R,19088367,19088563,198,1431.2,579.4,4063,right
67,2,binary,37,2,trial,19087936.0,19089236.0,1300.0,87,R,19088641,19088785,146,499.7,537.0,4041,left
67,2,binary,37,2,trial,19087936.0,19089236.0,1300.0,87,R,19088797,19089487,692,531.0,537.9,4050,left
67,2,binary,38,2,fixationCross,19090420.0,19091503.0,1083.0,88,R,19089675,19089787,114,971.4,521.5,4169,NA
67,2,binary,38,2,fixationCross,19090420.0,19091503.0,1083.0,88,R,19089811,19090125,316,1092.3,518.8,4288,NA
67,2,binary,38,2,trial,19090420.0,19091503.0,1083.0,88,R,19090149,19090617,470,959.9,534.4,4245,NA
67,2,binary,38,2,trial,19090420.0,19091503.0,1083.0,88,R,19090655,19091001,348,1304.9,582.5,4115,right
67,2,binary,38,2,trial,19090420.0,19091503.0,1083.0,88,R,19091065,19091229,166,465.5,450.8,4067,left
67,2,binary,38,2,trial,19090420.0,19091503.0,1083.0,88,R,19091245,19091745,502,414.6,454.5,4115,left
67,2,binary,39,1,fixationCross,19092520.0,19093604.0,1084.0,89,R,19091909,19091977,70,475.1,506.5,4244,left
67,2,binary,39,1,fixationCross,19092520.0,19093604.0,1084.0,89,R,19092029,19092211,184,1100.6,550.9,4349,NA
67,2,binary,39,1,trial,19092520.0,19093604.0,1084.0,89,R,19092235,19092687,454,969.8,535.7,4262,NA
67,2,binary,39,1,trial,19092520.0,19093604.0,1084.0,89,R,19092723,19092959,238,1309.2,572.8,4108,right
67,2,binary,39,1,trial,19092520.0,19093604.0,1084.0,89,R,19092981,19093263,284,1429.2,550.3,4016,right
67,2,binary,39,1,trial,19092520.0,19093604.0,1084.0,89,R,19093333,19093503,172,471.7,505.0,4133,left
67,2,binary,39,1,trial,19092520.0,19093604.0,1084.0,89,R,19093523,19093889,368,440.9,526.5,4064,left
67,2,binary,40,1,fixationCross,19094486.0,19095654.0,1168.0,90,R,19094011,19094269,260,912.1,507.9,4092,NA
67,2,binary,40,1,trial,19094486.0,19095654.0,1168.0,90,R,19094287,19094711,426,977.5,527.5,4359,NA
67,2,binary,40,1,trial,19094486.0,19095654.0,1168.0,90,R,19094753,19095051,300,1351.3,551.4,4151,right
67,2,binary,40,1,trial,19094486.0,19095654.0,1168.0,90,R,19095109,19095433,326,465.9,496.3,3731,left
67,2,binary,40,1,postResponse,19094486.0,19095654.0,1168.0,90,R,19095455,19095985,532,527.6,415.2,3721,left
67,2,binary,41,1,fixationCross,19096837.0,19098203.0,1366.0,91,R,19096153,19096377,226,530.4,484.3,4056,left
67,2,binary,41,1,fixationCross,19096837.0,19098203.0,1366.0,91,R,19096409,19096523,116,838.5,485.0,4104,NA
67,2,binary,41,1,trial,19096837.0,19098203.0,1366.0,91,R,19096547,19097045,500,946.4,515.9,4052,NA
67,2,binary,41,1,trial,19096837.0,19098203.0,1366.0,91,R,19097087,19097333,248,1299.5,539.1,4042,right
67,2,binary,41,1,trial,19096837.0,19098203.0,1366.0,91,R,19097357,19097471,116,1478.2,558.0,4026,right
67,2,binary,41,1,trial,19096837.0,19098203.0,1366.0,91,R,19097543,19097725,184,483.8,507.8,4153,left
67,2,binary,41,1,trial,19096837.0,19098203.0,1366.0,91,R,19097749,19098247,500,435.9,519.8,4029,left
67,2,binary,41,1,trial,19096837.0,19098203.0,1366.0,91,R,19098265,19098475,212,421.9,566.4,4118,left
67,2,binary,42,1,fixationCross,19099303.0,19100203.0,900.0,92,R,19098647,19098671,26,536.5,522.0,4341,left
67,2,binary,42,1,fixationCross,19099303.0,19100203.0,900.0,92,R,19098689,19098807,120,529.8,548.3,4264,left
67,2,binary,42,1,fixationCross,19099303.0,19100203.0,900.0,92,R,19098859,19099061,204,1088.4,568.4,4248,NA
67,2,binary,42,1,trial,19099303.0,19100203.0,900.0,92,R,19099085,19099365,282,980.7,535.2,4176,NA
67,2,binary,42,1,trial,19099303.0,19100203.0,900.0,92,R,19099375,19099473,100,962.3,521.3,4215,NA
67,2,binary,42,1,trial,19099303.0,19100203.0,900.0,92,R,19099513,19099649,138,1359.7,570.0,4171,right
67,2,binary,42,1,trial,19099303.0,19100203.0,900.0,92,R,19099673,19099827,156,1517.5,563.8,4026,right
67,2,binary,42,1,trial,19099303.0,19100203.0,900.0,92,R,19099899,19100411,514,429.2,527.8,4070,left
67,2,binary,43,2,fixationCross,19101287.0,19102654.0,1367.0,93,R,19100639,19100689,52,514.9,497.1,4195,left
67,2,binary,43,2,fixationCross,19101287.0,19102654.0,1367.0,93,R,19100713,19100957,246,638.2,494.6,4303,left
67,2,binary,43,2,fixationCross,19101287.0,19102654.0,1367.0,93,R,19100985,19101089,106,895.0,497.9,4169,NA
67,2,binary,43,2,trial,19101287.0,19102654.0,1367.0,93,R,19101107,19101437,332,947.3,526.4,4152,NA
67,2,binary,43,2,trial,19101287.0,19102654.0,1367.0,93,R,19101489,19101589,102,507.5,536.1,4293,left
67,2,binary,43,2,trial,19101287.0,19102654.0,1367.0,93,R,19101657,19101857,202,1461.1,538.7,3942,right
67,2,binary,43,2,trial,19101287.0,19102654.0,1367.0,93,R,19101879,19102057,180,1528.8,459.7,3766,right
67,2,binary,43,2,trial,19101287.0,19102654.0,1367.0,93,R,19102083,19102609,528,1320.0,520.9,3910,right
67,2,binary,43,2,trial,19101287.0,19102654.0,1367.0,93,R,19102633,19102919,288,1425.0,544.3,4086,right
67,2,binary,44,1,fixationCross,19103603.0,19104519.0,916.0,94,R,19103089,19103117,30,1312.7,447.4,4420,right
67,2,binary,44,1,fixationCross,19103603.0,19104519.0,916.0,94,R,19103133,19103275,144,1298.9,514.9,4292,right
67,2,binary,44,1,trial,19103603.0,19104519.0,916.0,94,R,19103321,19103659,340,894.3,493.2,4407,NA
67,2,binary,44,1,trial,19103603.0,19104519.0,916.0,94,R,19103673,19103785,114,924.4,512.7,4268,NA
67,2,binary,44,1,trial,19103603.0,19104519.0,916.0,94,R,19103827,19103979,154,559.3,526.2,4243,left
67,2,binary,44,1,trial,19103603.0,19104519.0,916.0,94,R,19104005,19104147,144,346.7,587.8,4067,left
67,2,binary,44,1,trial,19103603.0,19104519.0,916.0,94,R,19104209,19104493,286,1317.1,555.6,3840,right
67,2,binary,44,1,trial,19103603.0,19104519.0,916.0,94,R,19104515,19104825,312,1432.3,543.9,3904,right
67,2,binary,45,2,fixationCross,19105570.0,19106870.0,1300.0,95,R,19104927,19105021,96,598.1,544.1,4106,left
67,2,binary,45,2,fixationCross,19105570.0,19106870.0,1300.0,95,R,19105055,19105253,200,780.3,497.6,4235,NA
67,2,binary,45,2,fixationCross,19105570.0,19106870.0,1300.0,95,R,19105277,19105405,130,932.3,525.3,4266,NA
67,2,binary,45,2,trial,19105570.0,19106870.0,1300.0,95,R,19105417,19105731,316,961.3,537.8,4356,NA
67,2,binary,45,2,trial,19105570.0,19106870.0,1300.0,95,R,19105785,19105935,152,497.9,519.5,4398,left
67,2,binary,45,2,trial,19105570.0,19106870.0,1300.0,95,R,19106005,19106187,184,1458.9,510.8,4063,right
67,2,binary,45,2,trial,19105570.0,19106870.0,1300.0,95,R,19106209,19106521,314,1389.9,458.6,4006,right
67,2,binary,45,2,trial,19105570.0,19106870.0,1300.0,95,R,19106545,19106819,276,1421.3,545.6,4095,right
67,2,binary,45,2,trial,19105570.0,19106870.0,1300.0,95,R,19106845,19107175,332,1386.7,447.0,4179,right
67,2,binary,46,2,fixationCross,19107936.0,19109120.0,1184.0,96,R,19107333,19107355,24,1292.7,403.3,4394,right
67,2,binary,46,2,fixationCross,19107936.0,19109120.0,1184.0,96,R,19107365,19107405,42,1288.6,460.8,4224,right
67,2,binary,46,2,fixationCross,19107936.0,19109120.0,1184.0,96,R,19107457,19107627,172,719.3,500.5,4399,left
67,2,binary,46,2,fixationCross,19107936.0,19109120.0,1184.0,96,R,19107657,19107935,280,941.5,521.2,4300,NA
67,2,binary,46,2,trial,19107936.0,19109120.0,1184.0,96,R,19107977,19108153,178,591.4,510.2,4193,left
67,2,binary,46,2,trial,19107936.0,19109120.0,1184.0,96,R,19108175,19108315,142,489.5,529.8,4068,left
67,2,binary,46,2,trial,19107936.0,19109120.0,1184.0,96,R,19108383,19108757,376,1404.4,529.6,3756,right
67,2,binary,46,2,trial,19107936.0,19109120.0,1184.0,96,R,19108775,19109351,578,1440.7,510.1,4018,right
67,2,binary,47,1,fixationCross,19110003.0,19111154.0,1151.0,97,R,19109541,19109563,24,1143.6,420.4,4547,NA
67,2,binary,47,1,fixationCross,19110003.0,19111154.0,1151.0,97,R,19109581,19109651,72,1131.5,491.6,4413,NA
67,2,binary,47,1,trial,19110003.0,19111154.0,1151.0,97,R,19109681,19110019,340,946.1,507.6,4555,NA
67,2,binary,47,1,trial,19110003.0,19111154.0,1151.0,97,R,19110039,19110171,134,845.8,509.0,4431,NA
67,2,binary,47,1,trial,19110003.0,19111154.0,1151.0,97,R,19110211,19110381,172,535.7,513.0,4285,left
67,2,binary,47,1,trial,19110003.0,19111154.0,1151.0,97,R,19110437,19110667,232,1381.4,553.2,3971,right
67,2,binary,47,1,trial,19110003.0,19111154.0,1151.0,97,R,19110683,19111413,732,1360.4,579.0,3665,right
67,2,binary,48,1,fixationCross,19112153.0,19113087.0,934.0,98,R,19111635,19111867,234,703.5,523.5,4137,left
67,2,binary,48,1,fixationCross,19112153.0,19113087.0,934.0,98,R,19111895,19112015,122,911.4,522.7,4220,NA
67,2,binary,48,1,trial,19112153.0,19113087.0,934.0,98,R,19112027,19112343,318,946.8,526.8,4069,NA
67,2,binary,48,1,trial,19112153.0,19113087.0,934.0,98,R,19112387,19112583,198,479.2,518.6,4019,left
67,2,binary,48,1,trial,19112153.0,19113087.0,934.0,98,R,19112595,19112759,166,479.0,486.9,3935,left
67,2,binary,48,1,trial,19112153.0,19113087.0,934.0,98,R,19112787,19112927,142,620.5,590.0,3867,left
67,2,binary,48,1,trial,19112153.0,19113087.0,934.0,98,R,19112983,19113323,342,1414.3,517.5,3851,right
67,2,binary,49,2,fixationCross,19114170.0,19115104.0,934.0,99,R,19113557,19113785,230,788.5,505.5,4093,NA
67,2,binary,49,2,fixationCross,19114170.0,19115104.0,934.0,99,R,19113813,19113863,52,693.3,480.7,4184,left
67,2,binary,49,2,trial,19114170.0,19115104.0,934.0,99,R,19113891,19114307,418,879.6,490.5,4074,NA
67,2,binary,49,2,trial,19114170.0,19115104.0,934.0,99,R,19114347,19114521,176,575.4,480.7,4114,left
67,2,binary,49,2,trial,19114170.0,19115104.0,934.0,99,R,19114587,19114837,252,1395.7,519.8,3878,right
67,2,binary,49,2,postResponse,19114170.0,19115104.0,934.0,99,R,19114855,19115439,586,1422.2,552.8,3944,right
67,2,binary,50,2,fixationCross,19116220.0,19117237.0,1017.0,100,R,19115513,19115585,74,1425.4,485.8,4153,right
67,2,binary,50,2,fixationCross,19116220.0,19117237.0,1017.0,100,R,19115619,19115719,102,1191.4,474.7,4306,right
67,2,binary,50,2,fixationCross,19116220.0,19117237.0,1017.0,100,R,19115775,19115965,192,755.9,497.4,4474,NA
67,2,binary,50,2,trial,19116220.0,19117237.0,1017.0,100,R,19115993,19116307,316,942.8,524.0,4393,NA
67,2,binary,50,2,trial,19116220.0,19117237.0,1017.0,100,R,19116349,19116489,142,686.6,524.7,4317,left
67,2,binary,50,2,trial,19116220.0,19117237.0,1017.0,100,R,19116561,19116789,230,1461.2,469.4,3898,right
67,2,binary,50,2,trial,19116220.0,19117237.0,1017.0,100,R,19116809,19117019,212,1525.6,453.4,3802,right
67,2,binary,50,2,trial,19116220.0,19117237.0,1017.0,100,R,19117091,19117289,200,443.3,479.6,3935,left
67,2,binary,50,2,postResponse,19116220.0,19117237.0,1017.0,100,R,19117311,19117569,260,372.2,449.4,3887,left
67,3,valuation,1,5,fixationCross,19161720.0,19164388.0,2668.0,101,R,19160982,19161036,56,982.3,451.4,4312,NA
67,3,valuation,1,5,fixationCross,19161720.0,19164388.0,2668.0,101,R,19161054,19161174,122,886.6,463.6,4314,NA
67,3,valuation,1,5,fixationCross,19161720.0,19164388.0,2668.0,101,R,19161200,19161406,208,772.3,598.7,4364,NA
67,3,valuation,1,5,fixationCross,19161720.0,19164388.0,2668.0,101,R,19161530,19161630,102,981.2,561.3,4366,NA
67,3,valuation,1,5,trial,19161720.0,19164388.0,2668.0,101,R,19161640,19161836,198,954.1,552.9,4399,NA
67,3,valuation,1,5,trial,19161720.0,19164388.0,2668.0,101,R,19162010,19162078,70,558.2,485.8,4365,likertVertical
67,3,valuation,1,5,trial,19161720.0,19164388.0,2668.0,101,R,19162102,19162342,242,492.0,524.5,4323,likertVertical
67,3,valuation,1,5,trial,19161720.0,19164388.0,2668.0,101,R,19162374,19162588,216,559.4,263.0,4190,likertVertical
67,3,valuation,1,5,trial,19161720.0,19164388.0,2668.0,101,R,19162610,19162746,138,649.3,280.7,4136,likertVertical
67,3,valuation,1,5,trial,19161720.0,19164388.0,2668.0,101,R,19162804,19163030,228,1436.4,518.3,4123,right
67,3,valuation,1,5,trial,19161720.0,19164388.0,2668.0,101,R,19163052,19163230,180,1467.4,514.6,4144,right
67,3,valuation,1,5,trial,19161720.0,19164388.0,2668.0,101,R,19163312,19163456,146,551.3,806.2,4242,likertVertical
67,3,valuation,1,5,trial,19161720.0,19164388.0,2668.0,101,R,19163492,19163992,502,507.1,454.3,4241,likertVertical
67,3,valuation,1,5,trial,19161720.0,19164388.0,2668.0,101,R,19164004,19164362,360,486.1,466.5,4407,likertVertical
67,3,valuation,1,5,trial,19161720.0,19164388.0,2668.0,101,R,19164372,19164626,256,513.3,460.5,4431,likertVertical
67,3,valuation,1,5,postResponse,19161720.0,19164388.0,2668.0,101,R,19164684,19164724,42,1275.3,445.8,4296,right
67,3,valuation,2,4,fixationCross,19165437.0,19167071.0,1634.0,102,R,19164824,19165072,250,1266.1,456.4,4381,right
67,3,valuation,2,4,fixationCross,19165437.0,19167071.0,1634.0,102,R,19165092,19165152,62,1185.7,467.8,4503,right
67,3,valuation,2,4,fixationCross,19165437.0,19167071.0,1634.0,102,R,19165182,19165308,128,1024.6,530.2,4591,NA
67,3,valuation,2,4,trial,19165437.0,19167071.0,1634.0,102,R,19165330,19165602,274,988.2,569.4,4670,NA
67,3,valuation,2,4,trial,19165437.0,19167071.0,1634.0,102,R,19165656,19165778,124,527.8,506.1,4611,likertVertical
67,3,valuation,2,4,trial,19165437.0,19167071.0,1634.0,102,R,19165836,19166034,200,1415.3,591.7,4260,right
67,3,valuation,2,4,trial,19165437.0,19167071.0,1634.0,102,R,19166098,19166226,130,531.8,360.5,4126,likertVertical
67,3,valuation,2,4,trial,19165437.0,19167071.0,1634.0,102,R,19166248,19166408,162,495.9,389.6,3986,likertVertical
67,3,valuation,2,4,trial,19165437.0,19167071.0,1634.0,102,R,19166440,19166578,140,497.7,467.7,4032,likertVertical
67,3,valuation,2,4,trial,19165437.0,19167071.0,1634.0,102,R,19166612,19166906,296,495.9,594.0,4312,likertVertical
67,3,valuation,2,4,trial,19165437.0,19167071.0,1634.0,102,R,19166930,19167300,372,483.8,551.7,4450,likertVertical
67,3,valuation,2,4,postResponse,19165437.0,19167071.0,1634.0,102,R,19167322,19167404,84,593.2,522.7,4346,likertVertical
67,3,valuation,3,6,fixationCross,19168204.0,19169521.0,1317.0,103,R,19167520,19167908,390,1289.8,538.1,4389,right
67,3,valuation,3,6,trial,19168204.0,19169521.0,1317.0,103,R,19167956,19168340,386,972.9,558.6,4586,NA
67,3,valuation,3,6,trial,19168204.0,19169521.0,1317.0,103,R,19168380,19168562,184,1351.9,515.7,4362,right
67,3,valuation,3,6,trial,19168204.0,19169521.0,1317.0,103,R,19168584,19168738,156,1405.0,449.0,4135,right
67,3,valuation,3,6,trial,19168204.0,19169521.0,1317.0,103,R,19168752,19168830,80,1389.3,413.2,3963,right
67,3,valuation,3,6,trial,19168204.0,19169521.0,1317.0,103,R,19168888,19169702,816,486.9,361.1,4014,likertVertical
67,3,valuation,4,4,fixationCross,19170537.0,19171470.0,933.0,104,R,19169928,19170258,332,1262.7,502.6,4339,right
67,3,valuation,4,4,fixationCross,19170537.0,19171470.0,933.0,104,R,19170288,19170422,136,1039.7,543.6,4520,NA
67,3,valuation,4,4,trial,19170537.0,19171470.0,933.0,104,R,19170438,19170622,186,978.1,562.5,4454,NA
67,3,valuation,4,4,trial,19170537.0,19171470.0,933.0,104,R,19170654,19170854,202,1321.6,539.0,4350,right
67,3,valuation,4,4,trial,19170537.0,19171470.0,933.0,104,R,19170876,19171038,164,1409.4,578.7,4146,right
67,3,valuation,4,4,trial,19170537.0,19171470.0,933.0,104,R,19171104,19171216,114,563.3,632.0,4038,likertVertical
67,3,valuation,4,4,trial,19170537.0,19171470.0,933.0,104,R,19171242,19171408,168,494.7,503.6,3884,likertVertical
67,3,valuation,4,4,trial,19170537.0,19171470.0,933.0,104,R,19171426,19171556,132,508.8,551.1,3869,likertVertical
67,3,valuation,4,4,postResponse,19170537.0,19171470.0,933.0,104,R,19171616,19171802,188,1287.4,562.4,4076,right
67,3,valuation,5,3,fixationCross,19173721.0,19175438.0,1717.0,105,R,19171890,19172110,222,1303.1,527.1,4355,right
67,3,valuation,5,3,fixationCross,19173721.0,19175438.0,1717.0,105,R,19172128,19172454,328,1216.8,544.8,4482,right
67,3,valuation,5,3,fixationCross,19173721.0,19175438.0,1717.0,105,R,19172474,19172746,274,1259.5,583.9,4526,right
67,3,valuation,5,3,fixationCross,19173721.0,19175438.0,1717.0,105,R,19172762,19172958,198,1326.8,585.0,4592,right
67,3,valuation,5,3,fixationCross,19173721.0,19175438.0,1717.0,105,R,19172980,19173234,256,1420.0,583.3,4572,right
67,3,valuation,5,3,fixationCross,19173721.0,19175438.0,1717.0,105,R,19173252,19173420,170,1340.2,569.9,4587,right
67,3,valuation,5,3,trial,19173721.0,19175438.0,1717.0,105,R,19173460,19173906,448,977.2,565.3,4588,NA
67,3,valuation,5,3,trial,19173721.0,19175438.0,1717.0,105,R,19173950,19174100,152,1481.7,508.8,4346,right
67,3,valuation,5,3,trial,19173721.0,19175438.0,1717.0,105,R,19174120,19174400,282,1534.5,439.9,3961,right
67,3,valuation,5,3,trial,19173721.0,19175438.0,1717.0,105,R,19174426,19174888,464,1436.4,589.3,3702,right
67,3,valuation,5,3,trial,19173721.0,19175438.0,1717.0,105,R,19174956,19175178,224,494.8,589.2,3837,likertVertical
67,3,valuation,5,3,trial,19173721.0,19175438.0,1717.0,105,R,19175202,19175534,334,482.3,634.8,4096,likertVertical
67,3,valuation,5,3,trial,19173721.0,19175438.0,1717.0,105,R,19175554,19175682,130,518.8,642.7,4280,likertVertical
67,3,valuation,5,3,postResponse,19173721.0,19175438.0,1717.0,105,R,19175742,19175770,30,1255.7,514.6,4192,right
67,3,valuation,6,5,fixationCross,19176421.0,19177554.0,1133.0,106,R,19175844,19175884,42,1250.8,517.9,4220,right
67,3,valuation,6,5,fixationCross,19176421.0,19177554.0,1133.0,106,R,19175910,19176124,216,1421.3,494.4,4267,right
67,3,valuation,6,5,fixationCross,19176421.0,19177554.0,1133.0,106,R,19176172,19176286,116,1003.3,529.3,4500,NA
67,3,valuation,6,5,trial,19176421.0,19177554.0,1133.0,106,R,19176300,19176482,184,969.5,545.0,4573,NA
67,3,valuation,6,5,trial,19176421.0,19177554.0,1133.0,106,R,19176522,19176652,132,1368.8,491.1,4517,right
67,3,valuation,6,5,trial,19176421.0,19177554.0,1133.0,106,R,19176672,19176968,298,1393.7,558.2,4346,right
67,3,valuation,6,5,trial,19176421.0,19177554.0,1133.0,106,R,19177034,19177162,130,535.9,396.0,4233,likertVertical
67,3,valuation,6,5,trial,19176421.0,19177554.0,1133.0,106,R,19177172,19177474,304,510.6,382.1,4205,likertVertical
67,3,valuation,6,5,trial,19176421.0,19177554.0,1133.0,106,R,19177498,19177742,246,512.2,454.7,4302,likertVertical
67,3,valuation,6,5,postResponse,19176421.0,19177554.0,1133.0,106,R,19177802,19177886,86,1284.8,508.7,4349,right
67,3,valuation,7,7,fixationCross,19178554.0,19179804.0,1250.0,107,R,19177960,19177996,38,1279.3,507.5,4337,right
67,3,valuation,7,7,fixationCross,19178554.0,19179804.0,1250.0,107,R,19178020,19178266,248,1212.5,439.7,4410,right
67,3,valuation,7,7,fixationCross,19178554.0,19179804.0,1250.0,107,R,19178296,19178480,186,1028.5,510.8,4567,NA
67,3,valuation,7,7,trial,19178554.0,19179804.0,1250.0,107,R,19178510,19178770,262,1252.9,467.7,4524,right
67,3,valuation,7,7,trial,19178554.0,19179804.0,1250.0,107,R,19178792,19178908,118,1322.2,522.4,4409,right
67,3,valuation,7,7,trial,19178554.0,19179804.0,1250.0,107,R,19178968,19179102,136,521.6,381.3,4132,likertVertical
67,3,valuation,7,7,trial,19178554.0,19179804.0,1250.0,107,R,19179126,19179540,416,512.4,308.8,4106,likertVertical
67,3,valuation,7,7,trial,19178554.0,19179804.0,1250.0,107,R,19179552,19179820,270,503.6,287.4,4234,likertVertical
67,3,valuation,7,7,trial,19178554.0,19179804.0,1250.0,107,R,19179890,19180080,192,1400.0,569.5,4324,right
67,3,valuation,7,7,postResponse,19178554.0,19179804.0,1250.0,107,R,19180106,19180136,32,1254.3,528.9,4359,right
67,3,valuation,8,5,fixationCross,19181487.0,19183854.0,2367.0,108,R,19180210,19180394,186,1242.1,527.8,4459,right
67,3,valuation,8,5,fixationCross,19181487.0,19183854.0,2367.0,108,R,19180410,19181014,606,1273.6,498.3,4510,right
67,3,valuation,8,5,fixationCross,19181487.0,19183854.0,2367.0,108,R,19181032,19181186,156,1189.0,482.5,4505,right
67,3,valuation,8,5,fixationCross,19181487.0,19183854.0,2367.0,108,R,19181214,19181368,156,969.1,563.8,4490,NA
67,3,valuation,8,5,trial,19181487.0,19183854.0,2367.0,108,R,19181378,19181664,288,976.8,554.7,4501,NA
67,3,valuation,8,5,trial,19181487.0,19183854.0,2367.0,108,R,19181716,19181836,122,546.8,431.1,4463,likertVertical
67,3,valuation,8,5,trial,19181487.0,19183854.0,2367.0,108,R,19181902,19182026,126,1454.8,497.5,4231,right
67,3,valuation,8,5,trial,19181487.0,19183854.0,2367.0,108,R,19182050,19182262,214,1420.0,448.7,4123,right
67,3,valuation,8,5,trial,19181487.0,19183854.0,2367.0,108,R,19182340,19182460,122,524.1,611.2,4138,likertVertical
67,3,valuation,8,5,trial,19181487.0,19183854.0,2367.0,108,R,19182482,19182746,266,500.2,633.8,4197,likertVertical
67,3,valuation,8,5,trial,19181487.0,19183854.0,2367.0,108,R,19182774,19184030,1258,496.4,464.3,4317,likertVertical
67,3,valuation,8,5,trial,19181487.0,19183854.0,2367.0,108,R,19184090,19184168,80,1290.5,459.0,4241,right
67,3,valuation,9,4,fixationCross,19184988.0,19185821.0,833.0,109,R,19184288,19184310,24,1309.0,421.2,4488,right
67,3,valuation,9,4,fixationCross,19184988.0,19185821.0,833.0,109,R,19184322,19184562,242,1296.5,474.6,4473,right
67,3,valuation,9,4,fixationCross,19184988.0,19185821.0,833.0,109,R,19184590,19184886,298,1060.7,527.4,4611,NA
67,3,valuation,9,4,trial,19184988.0,19185821.0,833.0,109,R,19184922,19185200,280,1297.0,496.6,4486,right
67,3,valuation,9,4,trial,19184988.0,19185821.0,833.0,109,R,19185272,19185410,140,531.6,529.9,4447,likertVertical
67,3,valuation,9,4,trial,19184988.0,19185821.0,833.0,109,R,19185426,19185560,136,495.2,506.3,4291,likertVertical
67,3,valuation,9,4,trial,19184988.0,19185821.0,833.0,109,R,19185594,19185808,216,490.0,586.9,4271,likertVertical
67,3,valuation,9,4,trial,19184988.0,19185821.0,833.0,109,R,19185818,19185984,168,506.8,566.1,4326,likertVertical
67,3,valuation,9,4,postResponse,19184988.0,19185821.0,833.0,109,R,19186048,19186154,108,1359.7,501.1,4269,right
67,3,valuation,10,5,fixationCross,19186838.0,19187905.0,1067.0,110,R,19186244,19186560,318,1192.0,488.6,4424,right
67,3,valuation,10,5,trial,19186838.0,19187905.0,1067.0,110,R,19186590,19186970,382,974.7,543.0,4587,NA
67,3,valuation,10,5,trial,19186838.0,19187905.0,1067.0,110,R,19187028,19187170,144,475.2,545.0,4651,likertVertical
67,3,valuation,10,5,trial,19186838.0,19187905.0,1067.0,110,R,19187228,19187362,136,1383.8,568.8,4362,right
67,3,valuation,10,5,trial,19186838.0,19187905.0,1067.0,110,R,19187386,19187574,190,1440.8,521.6,4197,right
67,3,valuation,10,5,trial,19186838.0,19187905.0,1067.0,110,R,19187642,19187824,184,535.6,422.3,4065,likertVertical
67,3,valuation,10,5,trial,19186838.0,19187905.0,1067.0,110,R,19187846,19187966,122,504.2,453.2,4015,likertVertical
67,3,valuation,10,5,postResponse,19186838.0,19187905.0,1067.0,110,R,19188024,19188238,216,1382.5,506.1,4119,right
67,3,valuation,11,4,fixationCross,19189904.0,19190688.0,784.0,111,R,19188314,19188552,240,1312.9,492.2,4424,right
67,3,valuation,11,4,fixationCross,19189904.0,19190688.0,784.0,111,R,19188572,19188970,400,1319.0,545.8,4572,right
67,3,valuation,11,4,fixationCross,19189904.0,19190688.0,784.0,111,R,19188984,19189600,618,1326.7,516.3,4495,right
67,3,valuation,11,4,trial,19189904.0,19190688.0,784.0,111,R,19189640,19190086,448,978.4,558.6,4622,NA
67,3,valuation,11,4,trial,19189904.0,19190688.0,784.0,111,R,19190130,19190272,144,585.3,471.7,4539,likertVertical
67,3,valuation,11,4,trial,19189904.0,19190688.0,784.0,111,R,19190290,19190502,214,519.6,455.9,4302,likertVertical
67,3,valuation,11,4,trial,19189904.0,19190688.0,784.0,111,R,19190524,19190876,354,503.6,524.2,4212,likertVertical
67,3,valuation,11,4,postResponse,19189904.0,19190688.0,784.0,111,R,19190942,19191020,80,1335.7,545.5,4181,right
67,3,valuation,12,5,fixationCross,19191804.0,19192771.0,967.0,112,R,19191228,19191252,26,1318.3,481.9,4431,right
