participantNo,block,task,blockTrial,response,trialStage,trialStartTime,trialFinishTime,rt,trial,eye,fixStart,fixEnd,fixLength,fixPosX,fixPosY,dilation,aoi
10,1,binary,1,1,fixationCross,2155067.0,2157684.0,2617.0,1,R,2154364,2154772,410,986.7,642.8,4441,NA
10,1,binary,1,1,fixationCross,2155067.0,2157684.0,2617.0,1,R,2154794,2154882,90,1004.9,566.7,4542,NA
10,1,binary,1,1,trial,2155067.0,2157684.0,2617.0,1,R,2155032,2155164,134,927.4,552.3,4631,NA
10,1,binary,1,1,trial,2155067.0,2157684.0,2617.0,1,R,2155186,2155358,174,976.5,557.9,4772,NA
10,1,binary,1,1,trial,2155067.0,2157684.0,2617.0,1,R,2155408,2155680,274,444.5,609.6,4634,left
10,1,binary,1,1,trial,2155067.0,2157684.0,2617.0,1,R,2155722,2156000,280,774.8,496.8,4021,NA
10,1,binary,1,1,trial,2155067.0,2157684.0,2617.0,1,R,2156054,2156172,120,410.0,866.1,3697,NA
10,1,binary,1,1,trial,2155067.0,2157684.0,2617.0,1,R,2156194,2156320,128,437.3,957.1,3718,NA
10,1,binary,1,1,trial,2155067.0,2157684.0,2617.0,1,R,2156338,2156512,176,446.2,1009.9,3825,NA
10,1,binary,1,1,trial,2155067.0,2157684.0,2617.0,1,R,2156574,2156738,166,587.7,564.6,3964,left
10,1,binary,1,1,trial,2155067.0,2157684.0,2617.0,1,R,2156800,2156988,190,1510.9,514.2,3671,right
10,1,binary,1,1,trial,2155067.0,2157684.0,2617.0,1,R,2157002,2157198,198,1500.7,465.5,3482,right
10,1,binary,1,1,trial,2155067.0,2157684.0,2617.0,1,R,2157272,2157574,304,406.8,534.0,3367,left
10,1,binary,1,1,postResponse,2155067.0,2157684.0,2617.0,1,R,2157610,2158050,442,563.7,457.2,3242,left
10,1,binary,2,2,fixationCross,2158867.0,2161250.0,2383.0,2,R,2158124,2158528,406,568.6,458.9,3544,left
10,1,binary,2,2,trial,2158867.0,2161250.0,2383.0,2,R,2158572,2159094,524,973.6,513.2,4041,NA
10,1,binary,2,2,trial,2158867.0,2161250.0,2383.0,2,R,2159146,2159320,176,502.9,518.0,4122,left
10,1,binary,2,2,trial,2158867.0,2161250.0,2383.0,2,R,2159372,2159482,112,389.2,966.5,3828,NA
10,1,binary,2,2,trial,2158867.0,2161250.0,2383.0,2,R,2159506,2159570,66,484.7,1023.1,3787,NA
10,1,binary,2,2,trial,2158867.0,2161250.0,2383.0,2,R,2159640,2159784,146,1507.9,958.2,3795,NA
10,1,binary,2,2,trial,2158867.0,2161250.0,2383.0,2,R,2159802,2159880,80,1485.9,1017.5,3852,NA
10,1,binary,2,2,trial,2158867.0,2161250.0,2383.0,2,R,2159928,2160266,340,1458.9,583.4,3906,right
10,1,binary,2,2,trial,2158867.0,2161250.0,2383.0,2,R,2160332,2160632,302,580.0,566.7,3961,left
10,1,binary,2,2,trial,2158867.0,2161250.0,2383.0,2,R,2160710,2161160,452,1492.6,1020.3,3868,NA
10,1,binary,2,2,postResponse,2158867.0,2161250.0,2383.0,2,R,2161170,2161614,446,1472.5,995.7,4094,NA
10,1,binary,3,2,fixationCross,2163583.0,2165050.0,1467.0,3,R,2161716,2162438,724,1460.9,971.6,4374,NA
10,1,binary,3,2,fixationCross,2163583.0,2165050.0,1467.0,3,R,2162486,2162860,376,1115.1,752.5,4625,likertHorizontal
10,1,binary,3,2,fixationCross,2163583.0,2165050.0,1467.0,3,R,2162890,2163574,686,993.6,640.4,4501,NA
10,1,binary,3,2,trial,2163583.0,2165050.0,1467.0,3,R,2163732,2163872,142,954.8,562.6,4449,NA
10,1,binary,3,2,trial,2163583.0,2165050.0,1467.0,3,R,2163922,2164166,246,517.2,535.0,4440,left
10,1,binary,3,2,trial,2163583.0,2165050.0,1467.0,3,R,2164230,2164610,382,1460.6,582.1,3704,right
10,1,binary,3,2,trial,2163583.0,2165050.0,1467.0,3,R,2164670,2164796,128,1454.5,954.6,3524,NA
10,1,binary,3,2,trial,2163583.0,2165050.0,1467.0,3,R,2164818,2164936,120,1471.4,1039.6,3591,NA
10,1,binary,3,2,postResponse,2163583.0,2165050.0,1467.0,3,R,2165012,2165388,378,496.9,546.2,3866,left
10,1,binary,4,2,fixationCross,2166366.0,2167567.0,1201.0,4,R,2165488,2166034,548,493.3,543.4,3821,left
10,1,binary,4,2,fixationCross,2166366.0,2167567.0,1201.0,4,R,2166086,2166272,188,910.8,558.8,4071,NA
10,1,binary,4,2,trial,2166366.0,2167567.0,1201.0,4,R,2166292,2166566,276,978.6,538.3,4104,NA
10,1,binary,4,2,trial,2166366.0,2167567.0,1201.0,4,R,2166614,2166866,254,570.2,493.2,4019,left
10,1,binary,4,2,trial,2166366.0,2167567.0,1201.0,4,R,2166928,2167108,182,1452.8,554.2,3691,right
10,1,binary,4,2,trial,2166366.0,2167567.0,1201.0,4,R,2167130,2167388,260,1376.3,508.4,3731,right
10,1,binary,4,2,postResponse,2166366.0,2167567.0,1201.0,4,R,2167458,2167938,482,441.0,497.9,3866,left
10,1,binary,5,1,fixationCross,2168884.0,2170251.0,1367.0,5,R,2168040,2168364,326,455.1,494.7,3990,left
10,1,binary,5,1,fixationCross,2168884.0,2170251.0,1367.0,5,R,2168406,2168566,162,752.2,561.0,4090,NA
10,1,binary,5,1,fixationCross,2168884.0,2170251.0,1367.0,5,R,2168594,2168760,168,938.0,541.2,4118,NA
10,1,binary,5,1,trial,2168884.0,2170251.0,1367.0,5,R,2168774,2169122,350,978.2,531.1,4138,NA
10,1,binary,5,1,trial,2168884.0,2170251.0,1367.0,5,R,2169170,2169494,326,1468.4,484.8,3855,right
10,1,binary,5,1,trial,2168884.0,2170251.0,1367.0,5,R,2169560,2170130,572,518.6,531.0,3646,left
10,1,binary,5,1,postResponse,2168884.0,2170251.0,1367.0,5,R,2170198,2170606,410,1429.5,475.9,3176,right
10,1,binary,6,2,fixationCross,2171450.0,2172850.0,1400.0,6,R,2170690,2170906,218,978.7,579.0,3517,NA
10,1,binary,6,2,fixationCross,2171450.0,2172850.0,1400.0,6,R,2171140,2171254,116,786.7,522.9,3831,NA
10,1,binary,6,2,trial,2171450.0,2172850.0,1400.0,6,R,2171286,2171636,352,990.0,517.4,3926,NA
10,1,binary,6,2,trial,2171450.0,2172850.0,1400.0,6,R,2171686,2171956,272,479.1,516.1,3897,left
10,1,binary,6,2,trial,2171450.0,2172850.0,1400.0,6,R,2172024,2172224,202,1484.9,541.3,3458,right
10,1,binary,6,2,trial,2171450.0,2172850.0,1400.0,6,R,2172242,2172486,246,1420.9,501.4,3426,right
10,1,binary,6,2,trial,2171450.0,2172850.0,1400.0,6,R,2172504,2172656,154,1375.8,557.9,3563,right
10,1,binary,6,2,trial,2171450.0,2172850.0,1400.0,6,R,2172706,2172810,106,1476.7,922.1,3711,NA
10,1,binary,6,2,postResponse,2171450.0,2172850.0,1400.0,6,R,2172830,2173198,370,1477.0,986.0,3788,NA
10,1,binary,7,1,fixationCross,2174067.0,2175033.0,966.0,7,R,2173272,2173558,288,1464.8,965.8,3775,NA
10,1,binary,7,1,fixationCross,2174067.0,2175033.0,966.0,7,R,2173620,2173766,148,894.0,653.5,4000,NA
10,1,binary,7,1,fixationCross,2174067.0,2175033.0,966.0,7,R,2173792,2173854,64,931.7,555.3,4058,NA
10,1,binary,7,1,trial,2174067.0,2175033.0,966.0,7,R,2173876,2174266,392,998.0,491.9,4117,NA
10,1,binary,7,1,trial,2174067.0,2175033.0,966.0,7,R,2174314,2174864,552,531.1,571.7,3888,left
10,1,binary,7,1,postResponse,2174067.0,2175033.0,966.0,7,R,2174878,2175364,488,475.1,599.6,3480,left
10,1,binary,8,1,fixationCross,2176633.0,2177767.0,1134.0,8,R,2175464,2175606,144,467.8,595.1,3506,left
10,1,binary,8,1,fixationCross,2176633.0,2177767.0,1134.0,8,R,2175700,2176098,400,1328.3,516.7,3835,right
10,1,binary,8,1,fixationCross,2176633.0,2177767.0,1134.0,8,R,2176124,2176366,244,1160.2,554.0,4145,NA
10,1,binary,8,1,trial,2176633.0,2177767.0,1134.0,8,R,2176390,2176692,304,1016.6,542.5,4200,NA
10,1,binary,8,1,trial,2176633.0,2177767.0,1134.0,8,R,2176706,2176884,180,952.5,530.6,4097,NA
10,1,binary,8,1,trial,2176633.0,2177767.0,1134.0,8,R,2176932,2177128,198,1432.4,520.3,3848,right
10,1,binary,8,1,trial,2176633.0,2177767.0,1134.0,8,R,2177200,2177494,296,387.5,522.2,3890,left
10,1,binary,8,1,trial,2176633.0,2177767.0,1134.0,8,R,2177504,2177628,126,398.6,496.6,3846,left
10,1,binary,8,1,postResponse,2176633.0,2177767.0,1134.0,8,R,2177638,2178114,478,386.1,458.9,3779,left
10,1,binary,9,2,fixationCross,2179150.0,2180217.0,1067.0,9,R,2178188,2178640,454,381.2,448.0,3811,left
10,1,binary,9,2,fixationCross,2179150.0,2180217.0,1067.0,9,R,2178694,2178876,184,832.3,492.7,4087,NA
10,1,binary,9,2,trial,2179150.0,2180217.0,1067.0,9,R,2178904,2179304,402,1003.0,484.3,4060,NA
10,1,binary,9,2,trial,2179150.0,2180217.0,1067.0,9,R,2179356,2179478,124,517.8,472.8,4089,left
10,1,binary,9,2,trial,2179150.0,2180217.0,1067.0,9,R,2179496,2179612,118,459.0,433.2,3888,left
10,1,binary,9,2,trial,2179150.0,2180217.0,1067.0,9,R,2179676,2180262,588,1359.2,518.9,3530,right
10,1,binary,9,2,postResponse,2179150.0,2180217.0,1067.0,9,R,2180330,2180562,234,430.5,415.2,3781,left
10,1,binary,10,2,fixationCross,2181800.0,2183000.0,1200.0,10,R,2180926,2181266,342,1168.8,512.9,3863,NA
10,1,binary,10,2,fixationCross,2181800.0,2183000.0,1200.0,10,R,2181318,2181540,224,719.0,539.4,4092,left
10,1,binary,10,2,fixationCross,2181800.0,2183000.0,1200.0,10,R,2181564,2181740,178,895.4,519.5,3875,NA
10,1,binary,10,2,trial,2181800.0,2183000.0,1200.0,10,R,2181762,2182024,264,993.7,502.3,3750,NA
10,1,binary,10,2,trial,2181800.0,2183000.0,1200.0,10,R,2182072,2182176,106,604.1,492.3,3842,left
10,1,binary,10,2,trial,2181800.0,2183000.0,1200.0,10,R,2182234,2182838,606,1476.3,520.4,3672,right
10,1,binary,10,2,postResponse,2181800.0,2183000.0,1200.0,10,R,2182906,2183344,440,588.5,489.4,3741,left
10,1,binary,11,2,fixationCross,2184266.0,2185966.0,1700.0,11,R,2183444,2183898,456,566.7,483.7,3622,left
10,1,binary,11,2,fixationCross,2184266.0,2185966.0,1700.0,11,R,2183924,2183970,48,761.2,502.1,3811,NA
10,1,binary,11,2,fixationCross,2184266.0,2185966.0,1700.0,11,R,2184004,2184172,170,997.7,548.8,3863,NA
10,1,binary,11,2,trial,2184266.0,2185966.0,1700.0,11,R,2184198,2184420,224,839.0,539.7,3966,NA
10,1,binary,11,2,trial,2184266.0,2185966.0,1700.0,11,R,2184468,2184696,230,456.9,491.5,3942,left
10,1,binary,11,2,trial,2184266.0,2185966.0,1700.0,11,R,2184774,2184966,194,1489.4,446.4,3417,right
10,1,binary,11,2,trial,2184266.0,2185966.0,1700.0,11,R,2184984,2185346,364,1551.4,453.8,3303,right
10,1,binary,11,2,trial,2184266.0,2185966.0,1700.0,11,R,2185372,2185928,558,1351.0,458.2,3579,right
10,1,binary,11,2,postResponse,2184266.0,2185966.0,1700.0,11,R,2185968,2186310,344,1624.0,451.5,3875,right
10,1,binary,12,2,fixationCross,2187284.0,2188450.0,1166.0,12,R,2186384,2186940,558,1618.6,468.4,3924,right
10,1,binary,12,2,fixationCross,2187284.0,2188450.0,1166.0,12,R,2187010,2187240,232,918.1,514.8,4224,NA
10,1,binary,12,2,trial,2187284.0,2188450.0,1166.0,12,R,2187254,2187450,198,983.4,538.2,4230,NA
10,1,binary,12,2,trial,2187284.0,2188450.0,1166.0,12,R,2187500,2188038,540,528.4,523.5,4024,left
10,1,binary,12,2,trial,2187284.0,2188450.0,1166.0,12,R,2188100,2188338,240,1437.4,508.0,3444,right
10,1,binary,12,2,trial,2187284.0,2188450.0,1166.0,12,R,2188360,2188460,102,1467.5,603.8,3419,right
10,1,binary,12,2,postResponse,2187284.0,2188450.0,1166.0,12,R,2188472,2188796,326,1479.8,633.7,3456,right
10,1,binary,13,1,fixationCross,2189567.0,2190734.0,1167.0,13,R,2188870,2189228,360,1472.6,632.4,3560,right
10,1,binary,13,1,trial,2189567.0,2190734.0,1167.0,13,R,2189286,2189736,452,984.4,575.8,3874,NA
10,1,binary,13,1,trial,2189567.0,2190734.0,1167.0,13,R,2189786,2190164,380,578.5,472.7,3802,left
10,1,binary,13,1,trial,2189567.0,2190734.0,1167.0,13,R,2190184,2190330,148,550.7,535.4,3550,left
10,1,binary,13,1,trial,2189567.0,2190734.0,1167.0,13,R,2190346,2190584,240,501.0,567.6,3445,left
10,1,binary,13,1,postResponse,2189567.0,2190734.0,1167.0,13,R,2190654,2191078,426,1492.5,484.8,3216,right
10,1,binary,14,2,fixationCross,2191966.0,2193051.0,1085.0,14,R,2191178,2191436,260,1479.1,483.3,3134,right
10,1,binary,14,2,fixationCross,2191966.0,2193051.0,1085.0,14,R,2191502,2191712,212,809.5,547.5,3611,NA
10,1,binary,14,2,trial,2191966.0,2193051.0,1085.0,14,R,2191738,2192150,414,945.5,492.1,3827,NA
10,1,binary,14,2,trial,2191966.0,2193051.0,1085.0,14,R,2192196,2192394,200,574.1,472.5,3807,left
10,1,binary,14,2,trial,2191966.0,2193051.0,1085.0,14,R,2192454,2192824,372,1426.9,505.9,3476,right
10,1,binary,14,2,postResponse,2191966.0,2193051.0,1085.0,14,R,2192838,2193398,562,1475.7,535.2,3348,right
10,1,binary,15,1,fixationCross,2194000.0,2195100.0,1100.0,15,R,2193472,2193668,198,1469.9,532.6,3478,right
10,1,binary,15,1,fixationCross,2194000.0,2195100.0,1100.0,15,R,2193726,2193898,174,999.8,547.8,3882,NA
10,1,binary,15,1,trial,2194000.0,2195100.0,1100.0,15,R,2193920,2194100,182,898.5,548.5,4117,NA
10,1,binary,15,1,trial,2194000.0,2195100.0,1100.0,15,R,2194134,2194244,112,703.1,529.2,4212,left
10,1,binary,15,1,trial,2194000.0,2195100.0,1100.0,15,R,2194276,2194504,230,497.4,456.0,4051,left
10,1,binary,15,1,trial,2194000.0,2195100.0,1100.0,15,R,2194566,2194884,320,1397.7,481.5,3600,right
10,1,binary,15,1,postResponse,2194000.0,2195100.0,1100.0,15,R,2194904,2195446,544,1362.3,440.9,3471,right
10,1,binary,16,2,fixationCross,2196234.0,2197351.0,1117.0,16,R,2195520,2195594,76,1358.0,434.6,3516,right
10,1,binary,16,2,fixationCross,2196234.0,2197351.0,1117.0,16,R,2195662,2195688,28,935.9,532.8,3706,NA
10,1,binary,16,2,fixationCross,2196234.0,2197351.0,1117.0,16,R,2195710,2195916,208,714.8,631.8,3861,left
10,1,binary,16,2,trial,2196234.0,2197351.0,1117.0,16,R,2195962,2196388,428,996.1,513.5,4047,NA
10,1,binary,16,2,trial,2196234.0,2197351.0,1117.0,16,R,2196432,2196586,156,617.0,484.9,4026,left
10,1,binary,16,2,trial,2196234.0,2197351.0,1117.0,16,R,2196646,2196874,230,1445.3,519.2,3685,right
10,1,binary,16,2,postResponse,2196234.0,2197351.0,1117.0,16,R,2196888,2197694,808,1432.5,564.2,3700,right
10,1,binary,17,2,fixationCross,2198467.0,2199400.0,933.0,17,R,2197768,2197920,154,1433.2,550.8,3575,right
10,1,binary,17,2,fixationCross,2198467.0,2199400.0,933.0,17,R,2197994,2198202,210,719.7,558.6,3755,left
10,1,binary,17,2,fixationCross,2198467.0,2199400.0,933.0,17,R,2198228,2198414,188,887.1,491.4,3865,NA
10,1,binary,17,2,trial,2198467.0,2199400.0,933.0,17,R,2198438,2198706,270,1028.3,480.6,3881,NA
10,1,binary,17,2,trial,2198467.0,2199400.0,933.0,17,R,2198734,2198864,132,937.2,504.0,3915,NA
10,1,binary,17,2,trial,2198467.0,2199400.0,933.0,17,R,2198882,2198926,46,875.4,503.8,3919,NA
10,1,binary,17,2,trial,2198467.0,2199400.0,933.0,17,R,2198974,2199298,326,1406.5,534.6,3693,right
10,1,binary,17,2,postResponse,2198467.0,2199400.0,933.0,17,R,2199366,2199746,382,579.6,502.4,3692,left
10,1,binary,18,2,fixationCross,2201767.0,2202834.0,1067.0,18,R,2199820,2200368,550,593.1,499.1,3625,left
10,1,binary,18,2,fixationCross,2201767.0,2202834.0,1067.0,18,R,2200404,2201456,1054,807.5,517.7,3899,NA
10,1,binary,18,2,fixationCross,2201767.0,2202834.0,1067.0,18,R,2201472,2201652,182,887.5,508.7,3833,NA
10,1,binary,18,2,trial,2201767.0,2202834.0,1067.0,18,R,2201670,2201924,256,972.4,530.1,3859,NA
10,1,binary,18,2,trial,2201767.0,2202834.0,1067.0,18,R,2201974,2202252,280,506.3,518.8,3912,left
10,1,binary,18,2,trial,2201767.0,2202834.0,1067.0,18,R,2202314,2202822,510,1389.4,507.5,3352,right
10,1,binary,18,2,postResponse,2201767.0,2202834.0,1067.0,18,R,2202842,2203176,336,1460.6,516.6,3425,right
10,1,binary,19,2,fixationCross,2204234.0,2205300.0,1066.0,19,R,2203250,2203422,174,1463.2,517.9,3609,right
10,1,binary,19,2,fixationCross,2204234.0,2205300.0,1066.0,19,R,2203592,2203942,352,1175.2,550.6,3974,NA
10,1,binary,19,2,trial,2204234.0,2205300.0,1066.0,19,R,2203978,2204374,398,933.6,511.4,3958,NA
10,1,binary,19,2,trial,2204234.0,2205300.0,1066.0,19,R,2204420,2204726,308,541.4,475.3,3695,left
10,1,binary,19,2,trial,2204234.0,2205300.0,1066.0,19,R,2204744,2204872,130,460.2,463.8,3516,left
10,1,binary,19,2,trial,2204234.0,2205300.0,1066.0,19,R,2204936,2205228,294,1437.1,484.0,3372,right
10,1,binary,19,2,postResponse,2204234.0,2205300.0,1066.0,19,R,2205248,2205646,400,1339.6,459.5,3446,right
10,1,binary,20,1,fixationCross,2206550.0,2207650.0,1100.0,20,R,2205720,2206226,508,1299.2,467.3,3744,right
10,1,binary,20,1,trial,2206550.0,2207650.0,1100.0,20,R,2206272,2206696,426,926.2,476.8,4152,NA
10,1,binary,20,1,trial,2206550.0,2207650.0,1100.0,20,R,2206744,2206854,112,548.0,456.0,4130,left
10,1,binary,20,1,trial,2206550.0,2207650.0,1100.0,20,R,2206872,2207018,148,490.2,428.2,3997,left
10,1,binary,20,1,trial,2206550.0,2207650.0,1100.0,20,R,2207028,2207292,266,463.4,420.7,3764,left
10,1,binary,20,1,trial,2206550.0,2207650.0,1100.0,20,R,2207310,2207474,166,518.3,476.8,3646,left
10,1,binary,20,1,postResponse,2206550.0,2207650.0,1100.0,20,R,2207536,2207996,462,1374.8,492.6,3660,right
10,1,binary,21,1,fixationCross,2209001.0,2210017.0,1016.0,21,R,2208368,2208676,310,742.3,551.0,3956,NA
10,1,binary,21,1,trial,2209001.0,2210017.0,1016.0,21,R,2208700,2209150,452,873.6,486.4,3797,NA
10,1,binary,21,1,trial,2209001.0,2210017.0,1016.0,21,R,2209192,2209432,242,561.7,460.5,3597,left
10,1,binary,21,1,trial,2209001.0,2210017.0,1016.0,21,R,2209494,2209946,454,1449.9,484.3,3319,right
10,1,binary,21,1,postResponse,2209001.0,2210017.0,1016.0,21,R,2209966,2210362,398,1358.0,465.3,3311,right
10,1,binary,22,1,fixationCross,2211384.0,2212534.0,1150.0,22,R,2210436,2210782,348,1358.7,468.0,3528,right
10,1,binary,22,1,fixationCross,2211384.0,2212534.0,1150.0,22,R,2210822,2211094,274,1058.6,494.0,3935,NA
10,1,binary,22,1,fixationCross,2211384.0,2212534.0,1150.0,22,R,2211112,2211168,58,982.1,501.5,4066,NA
10,1,binary,22,1,trial,2211384.0,2212534.0,1150.0,22,R,2211188,2211552,366,893.2,518.2,4049,NA
10,1,binary,22,1,trial,2211384.0,2212534.0,1150.0,22,R,2211594,2211770,178,522.5,462.8,3931,left
10,1,binary,22,1,trial,2211384.0,2212534.0,1150.0,22,R,2211780,2211906,128,516.4,435.7,3766,left
10,1,binary,22,1,trial,2211384.0,2212534.0,1150.0,22,R,2211966,2212454,490,1396.2,485.3,3365,right
10,1,binary,22,1,postResponse,2211384.0,2212534.0,1150.0,22,R,2212482,2212878,398,1610.2,466.9,3205,right
10,1,binary,23,2,fixationCross,2213984.0,2214884.0,900.0,23,R,2212980,2213652,674,1602.2,476.8,3581,right
10,1,binary,23,2,fixationCross,2213984.0,2214884.0,900.0,23,R,2213720,2213872,154,1019.9,564.8,3983,NA
10,1,binary,23,2,trial,2213984.0,2214884.0,900.0,23,R,2213894,2214142,250,916.6,528.1,3926,NA
10,1,binary,23,2,trial,2213984.0,2214884.0,900.0,23,R,2214178,2214456,280,650.4,488.1,3771,left
10,1,binary,23,2,trial,2213984.0,2214884.0,900.0,23,R,2214516,2214776,262,1514.7,503.2,3393,right
10,1,binary,23,2,postResponse,2213984.0,2214884.0,900.0,23,R,2214800,2215218,420,1479.1,402.0,3357,right
10,1,binary,24,1,fixationCross,2215767.0,2216767.0,1000.0,24,R,2215298,2215356,60,1225.0,444.2,3387,right
10,1,binary,24,1,fixationCross,2215767.0,2216767.0,1000.0,24,R,2215366,2215722,358,913.4,524.0,3539,NA
10,1,binary,24,1,trial,2215767.0,2216767.0,1000.0,24,R,2215746,2215948,204,813.5,477.2,3762,NA
10,1,binary,24,1,trial,2215767.0,2216767.0,1000.0,24,R,2215978,2216528,552,571.9,484.3,3657,left
10,1,binary,24,1,trial,2215767.0,2216767.0,1000.0,24,R,2216590,2217028,440,1382.8,493.2,3581,right
10,1,binary,25,2,fixationCross,2217984.0,2219051.0,1067.0,25,R,2217396,2217640,246,705.3,542.0,3790,left
10,1,binary,25,2,fixationCross,2217984.0,2219051.0,1067.0,25,R,2217672,2217874,204,922.4,489.9,3799,NA
10,1,binary,25,2,trial,2217984.0,2219051.0,1067.0,25,R,2217888,2218236,350,971.8,490.6,3521,NA
10,1,binary,25,2,trial,2217984.0,2219051.0,1067.0,25,R,2218286,2218898,614,1424.2,471.9,3449,right
10,1,binary,25,2,postResponse,2217984.0,2219051.0,1067.0,25,R,2218922,2219380,460,1540.8,486.3,3767,right
10,1,binary,26,1,fixationCross,2248018.0,2249401.0,1383.0,26,R,2247362,2247712,352,1124.5,614.8,3491,NA
10,1,binary,26,1,fixationCross,2248018.0,2249401.0,1383.0,26,R,2247742,2247878,138,956.3,540.1,3849,NA
10,1,binary,26,1,trial,2248018.0,2249401.0,1383.0,26,R,2247888,2248296,410,979.7,527.5,4053,NA
10,1,binary,26,1,trial,2248018.0,2249401.0,1383.0,26,R,2248338,2248650,314,600.1,537.6,4097,left
10,1,binary,26,1,trial,2248018.0,2249401.0,1383.0,26,R,2248714,2249238,526,1410.0,516.7,3716,right
10,1,binary,26,1,trial,2248018.0,2249401.0,1383.0,26,R,2249308,2249710,404,476.7,519.5,3799,left
10,1,binary,26,1,postResponse,2248018.0,2249401.0,1383.0,26,R,2249720,2249748,30,428.8,525.7,3561,left
10,1,binary,27,2,fixationCross,2250468.0,2252218.0,1750.0,27,R,2249822,2249960,140,412.5,524.9,3460,left
10,1,binary,27,2,fixationCross,2250468.0,2252218.0,1750.0,27,R,2249982,2250134,154,572.0,509.8,3524,left
10,1,binary,27,2,fixationCross,2250468.0,2252218.0,1750.0,27,R,2250176,2250356,182,916.4,500.0,3695,NA
10,1,binary,27,2,trial,2250468.0,2252218.0,1750.0,27,R,2250372,2250710,340,973.2,504.9,3929,NA
10,1,binary,27,2,trial,2250468.0,2252218.0,1750.0,27,R,2250756,2251126,372,567.2,487.2,3918,left
10,1,binary,27,2,trial,2250468.0,2252218.0,1750.0,27,R,2251184,2251538,356,1401.4,483.8,3710,right
10,1,binary,27,2,trial,2250468.0,2252218.0,1750.0,27,R,2251592,2252114,524,1452.9,1001.2,3744,NA
10,1,binary,27,2,postResponse,2250468.0,2252218.0,1750.0,27,R,2252236,2252562,328,561.9,483.2,4137,left
10,1,binary,28,1,fixationCross,2253401.0,2254335.0,934.0,28,R,2252662,2253074,414,552.9,505.9,3942,left
10,1,binary,28,1,fixationCross,2253401.0,2254335.0,934.0,28,R,2253124,2253278,156,1006.0,536.0,4082,NA
10,1,binary,28,1,trial,2253401.0,2254335.0,934.0,28,R,2253294,2253658,366,951.7,523.9,4102,NA
10,1,binary,28,1,trial,2253401.0,2254335.0,934.0,28,R,2253708,2254296,590,1419.1,517.5,3819,right
10,1,binary,28,1,postResponse,2253401.0,2254335.0,934.0,28,R,2254370,2254678,310,517.6,472.9,3744,left
10,1,binary,29,1,fixationCross,2255585.0,2256401.0,816.0,29,R,2254752,2255054,304,514.3,466.7,3710,left
10,1,binary,29,1,fixationCross,2255585.0,2256401.0,816.0,29,R,2255086,2255254,170,714.1,491.0,3723,left
10,1,binary,29,1,fixationCross,2255585.0,2256401.0,816.0,29,R,2255278,2255482,206,908.7,496.9,3786,NA
10,1,binary,29,1,trial,2255585.0,2256401.0,816.0,29,R,2255504,2255848,346,996.3,495.0,3821,NA
10,1,binary,29,1,trial,2255585.0,2256401.0,816.0,29,R,2255900,2256038,140,491.3,540.2,3747,left
10,1,binary,29,1,trial,2255585.0,2256401.0,816.0,29,R,2256056,2256308,254,432.5,565.7,3598,left
10,1,binary,29,1,postResponse,2255585.0,2256401.0,816.0,29,R,2256378,2256746,370,1426.1,501.9,3251,right
10,1,binary,30,2,fixationCross,2257567.0,2258185.0,618.0,30,R,2256846,2256870,26,930.7,529.1,3458,NA
10,1,binary,30,2,fixationCross,2257567.0,2258185.0,618.0,30,R,2256894,2257066,174,702.8,550.5,3557,left
10,1,binary,30,2,fixationCross,2257567.0,2258185.0,618.0,30,R,2257086,2257248,164,835.8,555.1,3661,NA
10,1,binary,30,2,trial,2257567.0,2258185.0,618.0,30,R,2257272,2257770,500,977.8,509.2,3773,NA
10,1,binary,30,2,trial,2257567.0,2258185.0,618.0,30,R,2257818,2258106,290,1423.0,446.5,3509,right
10,1,binary,30,2,postResponse,2257567.0,2258185.0,618.0,30,R,2258122,2258526,406,1375.5,404.0,3462,right
10,1,binary,31,1,fixationCross,2259084.0,2259601.0,517.0,31,R,2258600,2258700,102,1370.1,405.6,3564,right
10,1,binary,31,1,fixationCross,2259084.0,2259601.0,517.0,31,R,2258746,2258944,200,1033.0,473.9,3885,NA
10,1,binary,31,1,trial,2259084.0,2259601.0,517.0,31,R,2258984,2259228,246,825.6,524.6,4170,NA
10,1,binary,31,1,trial,2259084.0,2259601.0,517.0,31,R,2259260,2259556,298,608.1,503.2,4328,left
10,1,binary,31,1,postResponse,2259084.0,2259601.0,517.0,31,R,2259616,2259942,328,1432.2,521.2,3847,right
10,1,binary,32,1,fixationCross,2260517.0,2261334.0,817.0,32,R,2260016,2260038,24,1424.7,517.0,3694,right
10,1,binary,32,1,fixationCross,2260517.0,2261334.0,817.0,32,R,2260102,2260444,344,873.3,545.0,3929,NA
10,1,binary,32,1,trial,2260517.0,2261334.0,817.0,32,R,2260468,2260712,246,984.8,494.5,4048,NA
10,1,binary,32,1,trial,2260517.0,2261334.0,817.0,32,R,2260758,2261260,504,1425.7,487.1,3751,right
10,1,binary,32,1,postResponse,2260517.0,2261334.0,817.0,32,R,2261330,2261676,348,545.1,510.9,3688,left
10,1,binary,33,2,fixationCross,2262518.0,2263218.0,700.0,33,R,2261776,2261968,194,533.7,506.2,3440,left
10,1,binary,33,2,fixationCross,2262518.0,2263218.0,700.0,33,R,2262004,2262184,182,778.7,505.2,3420,NA
10,1,binary,33,2,fixationCross,2262518.0,2263218.0,700.0,33,R,2262208,2262462,256,926.8,482.2,3526,NA
10,1,binary,33,2,trial,2262518.0,2263218.0,700.0,33,R,2262482,2262864,384,1030.8,472.1,3785,NA
10,1,binary,33,2,trial,2262518.0,2263218.0,700.0,33,R,2262906,2263168,264,1399.8,482.4,3456,right
10,1,binary,33,2,postResponse,2262518.0,2263218.0,700.0,33,R,2263232,2263552,322,512.7,427.9,3399,left
10,1,binary,34,1,fixationCross,2264868.0,2265551.0,683.0,34,R,2263652,2263888,238,498.6,434.1,3343,left
10,1,binary,34,1,fixationCross,2264868.0,2265551.0,683.0,34,R,2263912,2264126,216,633.1,519.0,3591,left
10,1,binary,34,1,fixationCross,2264868.0,2265551.0,683.0,34,R,2264148,2264564,418,796.7,523.0,3800,NA
10,1,binary,34,1,trial,2264868.0,2265551.0,683.0,34,R,2264584,2265028,446,904.2,486.0,3793,NA
10,1,binary,34,1,trial,2264868.0,2265551.0,683.0,34,R,2265072,2265424,354,546.8,493.5,3819,left
10,1,binary,34,1,postResponse,2264868.0,2265551.0,683.0,34,R,2265488,2265896,410,1433.8,491.0,3438,right
10,1,binary,35,2,fixationCross,2266484.0,2267534.0,1050.0,35,R,2265998,2266012,16,1426.7,488.7,3241,right
10,1,binary,35,2,trial,2266484.0,2267534.0,1050.0,35,R,2266062,2266494,434,994.3,531.0,3442,NA
10,1,binary,35,2,trial,2266484.0,2267534.0,1050.0,35,R,2266516,2266640,126,876.8,532.5,3722,NA
10,1,binary,35,2,trial,2266484.0,2267534.0,1050.0,35,R,2266674,2267006,334,632.5,505.3,3762,left
10,1,binary,35,2,trial,2266484.0,2267534.0,1050.0,35,R,2267018,2267250,234,657.1,532.3,3570,left
10,1,binary,35,2,trial,2266484.0,2267534.0,1050.0,35,R,2267308,2267548,242,1364.0,552.7,3416,right
10,1,binary,35,2,postResponse,2266484.0,2267534.0,1050.0,35,R,2267574,2267878,306,1572.5,563.3,3276,right
10,1,binary,36,1,fixationCross,2268868.0,2269517.0,649.0,36,R,2267978,2268134,158,1564.9,555.4,3169,right
10,1,binary,36,1,fixationCross,2268868.0,2269517.0,649.0,36,R,2268208,2268628,422,815.9,549.9,3619,NA
10,1,binary,36,1,trial,2268868.0,2269517.0,649.0,36,R,2268654,2269060,408,897.8,517.0,3816,NA
10,1,binary,36,1,trial,2268868.0,2269517.0,649.0,36,R,2269102,2269374,274,580.1,499.0,3781,left
10,1,binary,36,1,postResponse,2268868.0,2269517.0,649.0,36,R,2269436,2269860,426,1428.1,517.5,3578,right
10,1,binary,37,1,fixationCross,2270585.0,2271501.0,916.0,37,R,2269960,2270254,296,1415.0,514.1,3672,right
10,1,binary,37,1,trial,2270585.0,2271501.0,916.0,37,R,2270310,2270748,440,942.5,515.7,4013,NA
10,1,binary,37,1,trial,2270585.0,2271501.0,916.0,37,R,2270784,2270994,212,669.1,525.3,4073,left
10,1,binary,37,1,trial,2270585.0,2271501.0,916.0,37,R,2271018,2271374,358,553.4,448.4,3827,left
10,1,binary,37,1,postResponse,2270585.0,2271501.0,916.0,37,R,2271440,2271848,410,1473.1,494.4,3472,right
10,1,binary,38,1,fixationCross,2272735.0,2273667.0,932.0,38,R,2271922,2272058,138,1351.8,538.1,3431,right
10,1,binary,38,1,fixationCross,2272735.0,2273667.0,932.0,38,R,2272114,2272488,376,833.7,522.5,3649,NA
10,1,binary,38,1,trial,2272735.0,2273667.0,932.0,38,R,2272512,2272948,438,912.2,468.2,3696,NA
10,1,binary,38,1,trial,2272735.0,2273667.0,932.0,38,R,2273002,2273148,148,1400.6,560.5,3688,right
10,1,binary,38,1,trial,2272735.0,2273667.0,932.0,38,R,2273210,2273550,342,534.6,584.3,3684,left
10,1,binary,38,1,trial,2272735.0,2273667.0,932.0,38,R,2273602,2273924,324,410.9,902.6,3376,NA
10,1,binary,39,1,fixationCross,2274752.0,2275634.0,882.0,39,R,2274240,2274422,184,1166.3,639.0,3414,NA
10,1,binary,39,1,trial,2274752.0,2275634.0,882.0,39,R,2274462,2274802,342,905.0,559.8,3688,NA
10,1,binary,39,1,trial,2274752.0,2275634.0,882.0,39,R,2274820,2274980,162,943.2,511.7,3640,NA
10,1,binary,39,1,trial,2274752.0,2275634.0,882.0,39,R,2275028,2275382,356,529.4,573.2,3593,left
10,1,binary,39,1,postResponse,2274752.0,2275634.0,882.0,39,R,2275452,2275966,516,1448.3,587.6,3416,right
10,1,binary,40,1,fixationCross,2276534.0,2277701.0,1167.0,40,R,2276066,2276180,116,1451.5,585.7,3472,right
10,1,binary,40,1,trial,2276534.0,2277701.0,1167.0,40,R,2276240,2276612,374,884.6,544.9,3846,NA
10,1,binary,40,1,trial,2276534.0,2277701.0,1167.0,40,R,2276634,2276776,144,960.2,523.7,4049,NA
10,1,binary,40,1,trial,2276534.0,2277701.0,1167.0,40,R,2276816,2277110,296,657.4,563.7,4024,left
10,1,binary,40,1,trial,2276534.0,2277701.0,1167.0,40,R,2277174,2277556,384,1475.7,555.7,3521,right
10,1,binary,40,1,trial,2276534.0,2277701.0,1167.0,40,R,2277582,2277716,136,1312.4,508.0,3444,right
10,1,binary,40,1,postResponse,2276534.0,2277701.0,1167.0,40,R,2277788,2278032,246,494.3,910.2,3453,NA
10,1,binary,41,1,fixationCross,2278917.0,2280002.0,1085.0,41,R,2278188,2278312,126,714.7,626.2,3578,left
10,1,binary,41,1,fixationCross,2278917.0,2280002.0,1085.0,41,R,2278352,2278634,284,800.7,494.1,3695,NA
10,1,binary,41,1,trial,2278917.0,2280002.0,1085.0,41,R,2278654,2279134,482,924.5,493.2,3933,NA
10,1,binary,41,1,trial,2278917.0,2280002.0,1085.0,41,R,2279182,2279408,228,503.4,531.2,3964,left
10,1,binary,41,1,trial,2278917.0,2280002.0,1085.0,41,R,2279470,2279886,418,1342.2,525.5,3466,right
10,1,binary,41,1,trial,2278917.0,2280002.0,1085.0,41,R,2279908,2280232,326,1439.8,475.7,3293,right
10,1,binary,42,2,fixationCross,2281134.0,2281952.0,818.0,42,R,2280630,2280816,188,638.4,519.6,3472,left
10,1,binary,42,2,trial,2281134.0,2281952.0,818.0,42,R,2280860,2281138,280,902.7,493.1,3648,NA
10,1,binary,42,2,trial,2281134.0,2281952.0,818.0,42,R,2281156,2281302,148,990.3,474.4,3513,NA
10,1,binary,42,2,trial,2281134.0,2281952.0,818.0,42,R,2281346,2281548,204,632.0,414.1,3488,left
10,1,binary,42,2,trial,2281134.0,2281952.0,818.0,42,R,2281608,2281892,286,1489.8,489.1,3451,right
10,1,binary,42,2,postResponse,2281134.0,2281952.0,818.0,42,R,2281918,2282282,366,1587.6,501.3,3452,right
10,1,binary,43,1,fixationCross,2282851.0,2283318.0,467.0,43,R,2282380,2282512,134,1573.8,499.6,3459,right
10,1,binary,43,1,fixationCross,2282851.0,2283318.0,467.0,43,R,2282574,2282738,166,1027.2,514.0,3753,NA
10,1,binary,43,1,trial,2282851.0,2283318.0,467.0,43,R,2282770,2283002,234,835.0,482.9,3986,NA
10,1,binary,43,1,trial,2282851.0,2283318.0,467.0,43,R,2283044,2283302,260,522.7,451.8,3952,left
10,1,binary,43,1,trial,2282851.0,2283318.0,467.0,43,R,2283324,2283376,54,588.0,441.5,3699,left
10,1,binary,43,1,postResponse,2282851.0,2283318.0,467.0,43,R,2283438,2283650,214,1412.6,495.5,3486,right
10,1,binary,44,1,fixationCross,2284568.0,2285318.0,750.0,44,R,2283724,2283808,86,1398.4,490.5,3432,right
10,1,binary,44,1,fixationCross,2284568.0,2285318.0,750.0,44,R,2283862,2283912,52,956.1,468.1,3584,NA
10,1,binary,44,1,fixationCross,2284568.0,2285318.0,750.0,44,R,2283936,2284122,188,669.8,471.5,3664,left
10,1,binary,44,1,fixationCross,2284568.0,2285318.0,750.0,44,R,2284148,2284320,174,777.5,480.3,3746,NA
10,1,binary,44,1,trial,2284568.0,2285318.0,750.0,44,R,2284344,2284788,446,934.6,502.1,3821,NA
10,1,binary,44,1,trial,2284568.0,2285318.0,750.0,44,R,2284838,2285586,750,519.1,515.5,3497,left
10,1,binary,45,1,fixationCross,2286468.0,2287184.0,716.0,45,R,2285902,2285948,48,606.3,497.2,3441,left
10,1,binary,45,1,fixationCross,2286468.0,2287184.0,716.0,45,R,2285964,2286138,176,724.6,526.0,3538,left
10,1,binary,45,1,fixationCross,2286468.0,2287184.0,716.0,45,R,2286162,2286352,192,868.8,506.9,3736,NA
10,1,binary,45,1,trial,2286468.0,2287184.0,716.0,45,R,2286372,2286676,306,967.8,503.6,3590,NA
10,1,binary,45,1,trial,2286468.0,2287184.0,716.0,45,R,2286724,2287212,490,534.3,508.3,3533,left
10,1,binary,45,1,trial,2286468.0,2287184.0,716.0,45,R,2287280,2287464,186,1383.2,477.2,3229,right
10,1,binary,46,2,fixationCross,2288718.0,2289485.0,767.0,46,R,2287698,2288436,740,838.2,481.8,3779,NA
10,1,binary,46,2,trial,2288718.0,2289485.0,767.0,46,R,2288462,2288940,480,983.9,484.3,3772,NA
10,1,binary,46,2,trial,2288718.0,2289485.0,767.0,46,R,2288988,2289116,130,567.8,481.7,3957,left
10,1,binary,46,2,trial,2288718.0,2289485.0,767.0,46,R,2289180,2289564,386,1436.2,499.4,3555,right
10,1,binary,46,2,postResponse,2288718.0,2289485.0,767.0,46,R,2289582,2289814,234,1385.6,467.3,3434,right
10,1,binary,47,1,fixationCross,2291168.0,2291901.0,733.0,47,R,2290274,2290536,264,718.4,532.7,3647,left
10,1,binary,47,1,fixationCross,2291168.0,2291901.0,733.0,47,R,2290558,2290882,326,846.4,512.3,3633,NA
10,1,binary,47,1,fixationCross,2291168.0,2291901.0,733.0,47,R,2290898,2291162,266,939.3,486.1,3435,NA
10,1,binary,47,1,trial,2291168.0,2291901.0,733.0,47,R,2291176,2291364,190,986.7,494.4,3540,NA
10,1,binary,47,1,trial,2291168.0,2291901.0,733.0,47,R,2291410,2291710,302,585.2,506.7,3636,left
10,1,binary,47,1,trial,2291168.0,2291901.0,733.0,47,R,2291780,2292124,346,1477.0,537.6,3268,right
10,1,binary,48,1,fixationCross,2293251.0,2293968.0,717.0,48,R,2292518,2292848,332,701.0,551.6,3440,left
10,1,binary,48,1,trial,2293251.0,2293968.0,717.0,48,R,2292882,2293404,524,867.8,496.2,3483,NA
10,1,binary,48,1,trial,2293251.0,2293968.0,717.0,48,R,2293442,2293602,162,623.6,493.4,3489,left
10,1,binary,48,1,trial,2293251.0,2293968.0,717.0,48,R,2293620,2293810,192,534.9,481.1,3407,left
10,1,binary,48,1,postResponse,2293251.0,2293968.0,717.0,48,R,2293830,2294312,484,545.7,397.0,3243,left
10,1,binary,49,1,fixationCross,2295168.0,2295918.0,750.0,49,R,2294386,2294652,268,544.4,396.4,3211,left
10,1,binary,49,1,fixationCross,2295168.0,2295918.0,750.0,49,R,2294676,2294854,180,676.5,472.0,3422,left
10,1,binary,49,1,trial,2295168.0,2295918.0,750.0,49,R,2294900,2295342,444,950.5,504.6,3594,NA
10,1,binary,49,1,trial,2295168.0,2295918.0,750.0,49,R,2295380,2295502,124,660.9,529.1,3622,left
10,1,binary,49,1,trial,2295168.0,2295918.0,750.0,49,R,2295570,2295874,306,1545.7,551.5,3196,right
10,1,binary,49,1,trial,2295168.0,2295918.0,750.0,49,R,2295894,2296178,286,1611.1,449.4,3028,right
10,1,binary,50,1,fixationCross,2296985.0,2297685.0,700.0,50,R,2296522,2296680,160,767.8,540.7,3235,NA
10,1,binary,50,1,trial,2296985.0,2297685.0,700.0,50,R,2296724,2297214,492,979.9,480.9,3351,NA
10,1,binary,50,1,trial,2296985.0,2297685.0,700.0,50,R,2297262,2297628,368,493.5,481.0,3385,left
10,1,binary,50,1,postResponse,2296985.0,2297685.0,700.0,50,R,2297698,2298016,320,1499.2,438.9,3098,right
10,2,continuous,1,1,fixationCross,2418370.0,2420586.0,2216.0,51,R,2417846,2418062,218,865.1,852.9,4680,likertHorizontal
10,2,continuous,1,1,fixationCross,2418370.0,2420586.0,2216.0,51,R,2418112,2418366,256,995.2,502.2,4582,NA
10,2,continuous,1,1,trial,2418370.0,2420586.0,2216.0,51,R,2418382,2418604,224,961.2,537.6,4501,NA
10,2,continuous,1,1,trial,2418370.0,2420586.0,2216.0,51,R,2418652,2419266,616,505.3,507.5,4204,left
10,2,continuous,1,1,trial,2418370.0,2420586.0,2216.0,51,R,2419332,2419476,146,1419.5,529.4,3673,right
10,2,continuous,1,1,trial,2418370.0,2420586.0,2216.0,51,R,2419546,2419820,276,485.9,976.6,3814,NA
10,2,continuous,1,1,trial,2418370.0,2420586.0,2216.0,51,R,2419832,2420326,496,493.4,983.4,3846,NA
10,2,continuous,1,1,trial,2418370.0,2420586.0,2216.0,51,R,2420394,2420554,162,1490.7,987.6,3697,NA
10,2,continuous,1,1,postResponse,2418370.0,2420586.0,2216.0,51,R,2420568,2420920,354,1445.1,990.1,3848,NA
10,2,continuous,2,100,fixationCross,2421503.0,2423353.0,1850.0,52,R,2420996,2421022,28,1437.7,981.4,3850,NA
10,2,continuous,2,100,fixationCross,2421503.0,2423353.0,1850.0,52,R,2421094,2421444,352,917.8,620.3,3952,NA
10,2,continuous,2,100,trial,2421503.0,2423353.0,1850.0,52,R,2421468,2421730,264,997.0,546.6,4059,NA
10,2,continuous,2,100,trial,2421503.0,2423353.0,1850.0,52,R,2421784,2422160,378,468.2,519.5,3993,left
10,2,continuous,2,100,trial,2421503.0,2423353.0,1850.0,52,R,2422226,2422612,388,1460.5,502.5,3560,right
10,2,continuous,2,100,trial,2421503.0,2423353.0,1850.0,52,R,2422662,2423422,762,1429.0,968.4,3677,NA
10,2,continuous,2,100,trial,2421503.0,2423353.0,1850.0,52,R,2423468,2423608,142,1236.9,631.5,3797,right
10,2,continuous,2,100,postResponse,2421503.0,2423353.0,1850.0,52,R,2423632,2423698,68,1036.7,668.8,3838,NA
10,2,continuous,3,1,fixationCross,2424386.0,2425569.0,1183.0,53,R,2423804,2424070,268,826.1,654.9,3920,NA
10,2,continuous,3,1,fixationCross,2424386.0,2425569.0,1183.0,53,R,2424094,2424272,180,937.2,586.5,4035,NA
10,2,continuous,3,1,trial,2424386.0,2425569.0,1183.0,53,R,2424288,2424708,422,958.7,533.7,4063,NA
10,2,continuous,3,1,trial,2424386.0,2425569.0,1183.0,53,R,2424758,2425210,454,503.6,473.0,3835,left
10,2,continuous,3,1,trial,2424386.0,2425569.0,1183.0,53,R,2425272,2425498,228,1336.2,523.8,3649,right
10,2,continuous,3,1,trial,2424386.0,2425569.0,1183.0,53,R,2425522,2425796,276,1473.7,511.0,3616,right
10,2,continuous,3,1,postResponse,2424386.0,2425569.0,1183.0,53,R,2425872,2425914,44,952.0,673.9,3597,NA
10,2,continuous,4,1,fixationCross,2426753.0,2427869.0,1116.0,54,R,2426014,2426440,428,895.0,714.6,3683,NA
10,2,continuous,4,1,trial,2426753.0,2427869.0,1116.0,54,R,2426478,2427126,650,957.4,548.5,3952,NA
10,2,continuous,4,1,trial,2426753.0,2427869.0,1116.0,54,R,2427172,2427480,310,569.4,506.9,3672,left
10,2,continuous,4,1,trial,2426753.0,2427869.0,1116.0,54,R,2427532,2427732,202,626.8,921.3,3642,NA
10,2,continuous,4,1,trial,2426753.0,2427869.0,1116.0,54,R,2427762,2427832,72,479.1,945.0,3622,NA
10,2,continuous,4,1,postResponse,2426753.0,2427869.0,1116.0,54,R,2427902,2428214,314,1450.9,518.0,3561,right
10,2,continuous,5,95,fixationCross,2429037.0,2430053.0,1016.0,55,R,2428360,2428744,386,815.0,651.1,3826,NA
10,2,continuous,5,95,trial,2429037.0,2430053.0,1016.0,55,R,2428774,2429226,454,972.2,516.9,4038,NA
10,2,continuous,5,95,trial,2429037.0,2430053.0,1016.0,55,R,2429274,2429480,208,569.9,501.6,3989,left
10,2,continuous,5,95,trial,2429037.0,2430053.0,1016.0,55,R,2429540,2430064,526,1397.9,559.9,3653,right
10,2,continuous,5,95,postResponse,2429037.0,2430053.0,1016.0,55,R,2430076,2430392,318,1349.2,563.5,3504,right
10,2,continuous,6,81,fixationCross,2430953.0,2432203.0,1250.0,56,R,2430526,2430888,364,918.7,595.0,3744,NA
10,2,continuous,6,81,trial,2430953.0,2432203.0,1250.0,56,R,2430912,2431142,232,971.7,518.0,3974,NA
10,2,continuous,6,81,trial,2430953.0,2432203.0,1250.0,56,R,2431184,2431396,214,631.3,488.0,3962,left
10,2,continuous,6,81,trial,2430953.0,2432203.0,1250.0,56,R,2431458,2431806,350,1516.5,454.6,3605,right
10,2,continuous,6,81,trial,2430953.0,2432203.0,1250.0,56,R,2431832,2432090,260,1377.6,542.9,3531,right
10,2,continuous,6,81,trial,2430953.0,2432203.0,1250.0,56,R,2432108,2432394,288,1468.7,577.5,3472,right
10,2,continuous,6,81,postResponse,2430953.0,2432203.0,1250.0,56,R,2432504,2432546,44,624.7,555.5,3497,left
10,2,continuous,7,77,fixationCross,2433353.0,2434986.0,1633.0,57,R,2432646,2433028,384,554.4,618.0,3560,left
10,2,continuous,7,77,trial,2433353.0,2434986.0,1633.0,57,R,2433078,2433512,436,984.6,552.2,3758,NA
10,2,continuous,7,77,trial,2433353.0,2434986.0,1633.0,57,R,2433564,2433890,328,496.8,528.7,3745,left
10,2,continuous,7,77,trial,2433353.0,2434986.0,1633.0,57,R,2433952,2434288,338,1426.5,494.8,3448,right
10,2,continuous,7,77,trial,2433353.0,2434986.0,1633.0,57,R,2434298,2434522,226,1447.5,511.9,3460,right
10,2,continuous,7,77,postResponse,2433353.0,2434986.0,1633.0,57,R,2434594,2435320,728,415.5,494.3,3448,left
10,2,continuous,8,9,fixationCross,2436119.0,2437269.0,1150.0,58,R,2435394,2435600,208,409.7,492.9,3538,left
10,2,continuous,8,9,fixationCross,2436119.0,2437269.0,1150.0,58,R,2435648,2435820,174,771.5,508.5,3677,NA
10,2,continuous,8,9,fixationCross,2436119.0,2437269.0,1150.0,58,R,2435844,2436026,184,936.6,504.2,3822,NA
10,2,continuous,8,9,trial,2436119.0,2437269.0,1150.0,58,R,2436042,2436356,316,987.0,517.9,3949,NA
10,2,continuous,8,9,trial,2436119.0,2437269.0,1150.0,58,R,2436404,2436868,466,533.7,529.3,3719,left
10,2,continuous,8,9,trial,2436119.0,2437269.0,1150.0,58,R,2436930,2437258,330,1439.7,482.7,3340,right
10,2,continuous,8,9,postResponse,2436119.0,2437269.0,1150.0,58,R,2437274,2437616,344,1382.3,452.0,3251,right
10,2,continuous,9,5,fixationCross,2438353.0,2439219.0,866.0,59,R,2437690,2438030,342,1374.1,443.2,3189,right
10,2,continuous,9,5,fixationCross,2438353.0,2439219.0,866.0,59,R,2438078,2438314,238,1002.1,517.9,3615,NA
10,2,continuous,9,5,trial,2438353.0,2439219.0,866.0,59,R,2438332,2438526,196,914.5,522.8,3747,NA
10,2,continuous,9,5,trial,2438353.0,2439219.0,866.0,59,R,2438572,2438754,184,571.9,533.3,3848,left
10,2,continuous,9,5,trial,2438353.0,2439219.0,866.0,59,R,2438776,2439050,276,636.9,548.7,3645,left
10,2,continuous,9,5,postResponse,2438353.0,2439219.0,866.0,59,R,2439116,2439564,450,1472.0,498.4,3408,right
10,2,continuous,10,17,fixationCross,2440253.0,2441104.0,851.0,60,R,2439638,2439918,282,1469.7,489.9,3386,right
10,2,continuous,10,17,trial,2440253.0,2441104.0,851.0,60,R,2439974,2440436,464,994.6,535.2,3843,NA
10,2,continuous,10,17,trial,2440253.0,2441104.0,851.0,60,R,2440484,2440696,214,542.4,528.6,3998,left
10,2,continuous,10,17,trial,2440253.0,2441104.0,851.0,60,R,2440776,2441104,330,1484.9,507.4,3553,right
10,2,continuous,10,17,postResponse,2440253.0,2441104.0,851.0,60,R,2441184,2441448,266,681.2,846.7,3578,NA
10,2,continuous,11,100,fixationCross,2442237.0,2443387.0,1150.0,61,R,2441522,2441578,58,673.2,832.1,3537,NA
10,2,continuous,11,100,fixationCross,2442237.0,2443387.0,1150.0,61,R,2441626,2441760,136,913.4,585.5,3545,NA
10,2,continuous,11,100,fixationCross,2442237.0,2443387.0,1150.0,61,R,2441800,2442048,250,848.4,428.8,3613,NA
10,2,continuous,11,100,trial,2442237.0,2443387.0,1150.0,61,R,2442070,2442408,340,963.9,472.6,3810,NA
10,2,continuous,11,100,trial,2442237.0,2443387.0,1150.0,61,R,2442452,2442846,396,592.8,444.1,3806,left
10,2,continuous,11,100,trial,2442237.0,2443387.0,1150.0,61,R,2442906,2443226,322,1384.6,538.9,3481,right
10,2,continuous,11,100,trial,2442237.0,2443387.0,1150.0,61,R,2443252,2443440,190,1574.3,533.1,3441,right
10,2,continuous,11,100,postResponse,2442237.0,2443387.0,1150.0,61,R,2443466,2443720,256,1419.3,656.6,3501,right
10,2,continuous,12,97,fixationCross,2444270.0,2445736.0,1466.0,62,R,2443794,2443884,92,1393.9,664.4,3560,right
10,2,continuous,12,97,fixationCross,2444270.0,2445736.0,1466.0,62,R,2443938,2444172,236,990.2,513.9,3712,NA
10,2,continuous,12,97,trial,2444270.0,2445736.0,1466.0,62,R,2444188,2444472,286,927.2,502.8,3723,NA
10,2,continuous,12,97,trial,2444270.0,2445736.0,1466.0,62,R,2444518,2444782,266,525.3,503.6,3675,left
10,2,continuous,12,97,trial,2444270.0,2445736.0,1466.0,62,R,2444842,2445222,382,1403.0,462.3,3419,right
10,2,continuous,12,97,trial,2444270.0,2445736.0,1466.0,62,R,2445236,2445504,270,1444.0,448.1,3347,right
10,2,continuous,12,97,trial,2444270.0,2445736.0,1466.0,62,R,2445530,2446028,500,1561.7,510.3,3356,right
10,2,continuous,12,97,postResponse,2444270.0,2445736.0,1466.0,62,R,2446040,2446070,32,1337.9,498.3,3384,right
10,2,continuous,13,2,fixationCross,2446653.0,2447320.0,667.0,63,R,2446170,2446566,398,971.8,515.5,3456,NA
10,2,continuous,13,2,trial,2446653.0,2447320.0,667.0,63,R,2446582,2446840,260,917.1,503.0,3655,NA
10,2,continuous,13,2,trial,2446653.0,2447320.0,667.0,63,R,2446890,2447232,344,460.9,477.3,3598,left
10,2,continuous,13,2,postResponse,2446653.0,2447320.0,667.0,63,R,2447294,2447666,374,1389.7,501.6,3358,right
10,2,continuous,14,97,fixationCross,2448337.0,2449120.0,783.0,64,R,2447740,2448008,270,1380.9,498.8,3415,right
10,2,continuous,14,97,trial,2448337.0,2449120.0,783.0,64,R,2448058,2448538,482,938.5,515.8,3829,NA
10,2,continuous,14,97,trial,2448337.0,2449120.0,783.0,64,R,2448568,2448748,182,695.4,523.8,4004,left
10,2,continuous,14,97,trial,2448337.0,2449120.0,783.0,64,R,2448802,2449082,282,1374.8,492.2,3559,right
10,2,continuous,14,97,trial,2448337.0,2449120.0,783.0,64,R,2449096,2449354,260,1379.5,436.0,3359,right
10,2,continuous,15,81,fixationCross,2450320.0,2451186.0,866.0,65,R,2449610,2449986,378,722.9,565.2,3572,left
10,2,continuous,15,81,fixationCross,2450320.0,2451186.0,866.0,65,R,2450012,2450212,202,864.4,533.1,3609,NA
10,2,continuous,15,81,trial,2450320.0,2451186.0,866.0,65,R,2450236,2450590,356,984.9,469.9,3522,NA
10,2,continuous,15,81,trial,2450320.0,2451186.0,866.0,65,R,2450632,2451078,448,1348.8,514.4,3399,right
10,2,continuous,15,81,trial,2450320.0,2451186.0,866.0,65,R,2451098,2451234,138,1453.2,495.3,3243,right
10,2,continuous,15,81,postResponse,2450320.0,2451186.0,866.0,65,R,2451304,2451520,218,541.5,481.6,3391,left
10,2,continuous,16,17,fixationCross,2452337.0,2452970.0,633.0,66,R,2451594,2451830,238,535.9,484.8,3450,left
10,2,continuous,16,17,fixationCross,2452337.0,2452970.0,633.0,66,R,2451866,2452030,166,783.7,517.0,3602,NA
10,2,continuous,16,17,trial,2452337.0,2452970.0,633.0,66,R,2452054,2452496,444,947.1,508.0,3781,NA
10,2,continuous,16,17,trial,2452337.0,2452970.0,633.0,66,R,2452542,2452962,422,543.2,479.4,3748,left
10,2,continuous,16,17,trial,2452337.0,2452970.0,633.0,66,R,2453032,2453270,240,1343.2,521.4,3495,right
10,2,continuous,17,91,trial,2453870.0,2454587.0,717.0,67,R,2453398,2453894,498,1042.7,511.0,3724,NA
10,2,continuous,17,91,trial,2453870.0,2454587.0,717.0,67,R,2453912,2454142,232,971.7,503.2,3859,NA
10,2,continuous,17,91,trial,2453870.0,2454587.0,717.0,67,R,2454188,2454302,116,600.1,456.5,3697,left
10,2,continuous,17,91,trial,2453870.0,2454587.0,717.0,67,R,2454356,2454576,222,1328.9,512.6,3479,right
10,2,continuous,17,91,postResponse,2453870.0,2454587.0,717.0,67,R,2454588,2454920,334,1355.6,524.2,3437,right
10,2,continuous,18,9,fixationCross,2455803.0,2456453.0,650.0,68,R,2455020,2455158,140,1342.7,513.2,3485,right
10,2,continuous,18,9,fixationCross,2455803.0,2456453.0,650.0,68,R,2455186,2455258,74,1112.6,475.5,3600,NA
10,2,continuous,18,9,fixationCross,2455803.0,2456453.0,650.0,68,R,2455304,2455572,270,804.4,448.6,3720,NA
10,2,continuous,18,9,trial,2455803.0,2456453.0,650.0,68,R,2455594,2456040,448,922.1,486.0,3776,NA
10,2,continuous,18,9,trial,2455803.0,2456453.0,650.0,68,R,2456084,2456352,270,586.6,472.0,3753,left
10,2,continuous,18,9,postResponse,2455803.0,2456453.0,650.0,68,R,2456414,2456782,370,1405.3,436.6,3426,right
10,2,continuous,19,88,fixationCross,2457587.0,2458220.0,633.0,69,R,2456996,2457052,58,852.8,588.2,3674,NA
10,2,continuous,19,88,fixationCross,2457587.0,2458220.0,633.0,69,R,2457066,2457276,212,785.2,636.2,3772,NA
10,2,continuous,19,88,fixationCross,2457587.0,2458220.0,633.0,69,R,2457304,2457490,188,966.1,534.3,3906,NA
10,2,continuous,19,88,trial,2457587.0,2458220.0,633.0,69,R,2457508,2457802,296,999.2,520.8,3856,NA
10,2,continuous,19,88,trial,2457587.0,2458220.0,633.0,69,R,2457842,2458244,404,1355.6,514.0,3618,right
10,2,continuous,19,88,trial,2457587.0,2458220.0,633.0,69,R,2458312,2458492,182,462.4,497.8,3553,left
10,2,continuous,20,22,fixationCross,2459120.0,2459720.0,600.0,70,R,2458788,2459052,266,889.7,511.3,3495,NA
10,2,continuous,20,22,trial,2459120.0,2459720.0,600.0,70,R,2459070,2459382,314,972.5,513.9,3670,NA
10,2,continuous,20,22,trial,2459120.0,2459720.0,600.0,70,R,2459430,2459736,308,1390.9,490.1,3436,right
10,2,continuous,20,22,trial,2459120.0,2459720.0,600.0,70,R,2459746,2459898,154,1413.0,492.2,3422,right
10,2,continuous,20,22,postResponse,2459120.0,2459720.0,600.0,70,R,2459942,2460064,124,1057.0,619.9,3547,NA
10,2,continuous,21,50,fixationCross,2461837.0,2462237.0,400.0,71,R,2460138,2460300,164,1035.2,610.0,3634,NA
10,2,continuous,21,50,fixationCross,2461837.0,2462237.0,400.0,71,R,2460326,2460428,104,1067.0,534.5,3772,NA
10,2,continuous,21,50,fixationCross,2461837.0,2462237.0,400.0,71,R,2460452,2461246,796,1201.6,519.4,3936,right
10,2,continuous,21,50,fixationCross,2461837.0,2462237.0,400.0,71,R,2461270,2461540,272,1081.8,516.2,3814,NA
10,2,continuous,21,50,fixationCross,2461837.0,2462237.0,400.0,71,R,2461556,2461696,142,1000.1,517.4,3889,NA
10,2,continuous,21,50,trial,2461837.0,2462237.0,400.0,71,R,2461716,2461852,138,906.7,536.8,3923,NA
10,2,continuous,21,50,trial,2461837.0,2462237.0,400.0,71,R,2462096,2462322,228,461.3,526.6,3787,left
10,2,continuous,21,50,trial,2461837.0,2462237.0,400.0,71,R,2462362,2462452,92,638.8,762.1,3705,NA
10,2,continuous,21,50,postResponse,2461837.0,2462237.0,400.0,71,R,2462486,2462570,86,760.6,926.4,3451,likertHorizontal
10,2,continuous,22,100,fixationCross,2463454.0,2464704.0,1250.0,72,R,2462644,2462972,330,780.2,911.6,3334,likertHorizontal
10,2,continuous,22,100,fixationCross,2463454.0,2464704.0,1250.0,72,R,2463020,2463138,120,906.1,661.0,3572,NA
10,2,continuous,22,100,fixationCross,2463454.0,2464704.0,1250.0,72,R,2463170,2463382,214,989.2,507.3,3739,NA
10,2,continuous,22,100,trial,2463454.0,2464704.0,1250.0,72,R,2463396,2463716,322,934.6,503.3,3885,NA
10,2,continuous,22,100,trial,2463454.0,2464704.0,1250.0,72,R,2463764,2463916,154,1369.6,511.0,3667,right
10,2,continuous,22,100,trial,2463454.0,2464704.0,1250.0,72,R,2463974,2464330,358,611.9,536.5,3604,left
10,2,continuous,22,100,trial,2463454.0,2464704.0,1250.0,72,R,2464388,2464692,306,1380.3,523.9,3160,right
10,2,continuous,22,100,postResponse,2463454.0,2464704.0,1250.0,72,R,2464710,2465044,336,1460.5,509.4,3212,right
10,2,continuous,23,100,fixationCross,2465870.0,2466737.0,867.0,73,R,2465144,2465388,246,1444.1,511.4,3469,right
10,2,continuous,23,100,fixationCross,2465870.0,2466737.0,867.0,73,R,2465410,2465522,114,1336.5,504.9,3627,right
10,2,continuous,23,100,trial,2465870.0,2466737.0,867.0,73,R,2465572,2466096,526,966.8,504.3,3861,NA
10,2,continuous,23,100,trial,2465870.0,2466737.0,867.0,73,R,2466138,2466594,458,1371.3,528.7,3477,right
10,2,continuous,23,100,postResponse,2465870.0,2466737.0,867.0,73,R,2466654,2467070,418,580.9,561.4,3550,left
10,2,continuous,24,1,fixationCross,2467637.0,2468720.0,1083.0,74,R,2467144,2467238,96,577.3,556.3,3546,left
10,2,continuous,24,1,trial,2467637.0,2468720.0,1083.0,74,R,2467284,2467644,362,916.7,579.8,3558,NA
10,2,continuous,24,1,trial,2467637.0,2468720.0,1083.0,74,R,2467666,2467860,196,1003.0,501.4,3748,NA
10,2,continuous,24,1,trial,2467637.0,2468720.0,1083.0,74,R,2467908,2468158,252,1433.4,439.3,3666,right
10,2,continuous,24,1,trial,2467637.0,2468720.0,1083.0,74,R,2468220,2468534,316,628.8,522.5,3745,left
10,2,continuous,24,1,trial,2467637.0,2468720.0,1083.0,74,R,2468556,2468718,164,557.6,563.5,3646,left
10,2,continuous,24,1,postResponse,2467637.0,2468720.0,1083.0,74,R,2468784,2469064,282,1548.7,499.6,3289,right
10,2,continuous,25,1,fixationCross,2469870.0,2471037.0,1167.0,75,R,2469164,2469342,180,1533.6,497.3,3280,right
10,2,continuous,25,1,fixationCross,2469870.0,2471037.0,1167.0,75,R,2469394,2469574,182,1090.1,494.5,3650,NA
10,2,continuous,25,1,trial,2469870.0,2471037.0,1167.0,75,R,2469598,2470114,518,957.5,497.8,3937,NA
10,2,continuous,25,1,trial,2469870.0,2471037.0,1167.0,75,R,2470162,2470414,254,1451.8,498.5,3720,right
10,2,continuous,25,1,trial,2469870.0,2471037.0,1167.0,75,R,2470508,2470824,318,474.4,471.6,3543,left
10,2,continuous,25,1,postResponse,2469870.0,2471037.0,1167.0,75,R,2470840,2471370,532,464.3,401.7,3496,left
10,2,continuous,26,97,fixationCross,2499187.0,2500170.0,983.0,76,R,2498453,2498729,278,394.0,286.4,4211,NA
10,2,continuous,26,97,fixationCross,2499187.0,2500170.0,983.0,76,R,2498789,2498901,114,783.9,478.9,4400,NA
10,2,continuous,26,97,trial,2499187.0,2500170.0,983.0,76,R,2498927,2499499,574,951.8,551.3,4613,NA
10,2,continuous,26,97,trial,2499187.0,2500170.0,983.0,76,R,2499547,2499857,312,498.8,528.6,4388,left
10,2,continuous,26,97,trial,2499187.0,2500170.0,983.0,76,R,2499915,2500121,208,1265.4,607.6,4035,right
10,2,continuous,26,97,trial,2499187.0,2500170.0,983.0,76,R,2500145,2500479,336,1421.1,557.1,3873,right
10,2,continuous,27,1,fixationCross,2501304.0,2502054.0,750.0,77,R,2500597,2500747,152,540.3,554.3,3811,left
10,2,continuous,27,1,fixationCross,2501304.0,2502054.0,750.0,77,R,2500771,2501001,232,612.5,579.0,3873,left
10,2,continuous,27,1,trial,2501304.0,2502054.0,750.0,77,R,2501039,2501587,550,966.4,536.7,4120,NA
10,2,continuous,27,1,trial,2501304.0,2502054.0,750.0,77,R,2501625,2501921,298,645.6,491.4,4065,left
10,2,continuous,27,1,postResponse,2501304.0,2502054.0,750.0,77,R,2501985,2502399,416,1477.7,451.4,3941,right
10,2,continuous,28,100,fixationCross,2503037.0,2503837.0,800.0,78,R,2502473,2502703,232,1470.6,447.6,3891,right
10,2,continuous,28,100,trial,2503037.0,2503837.0,800.0,78,R,2502771,2503061,292,905.8,529.0,4294,NA
10,2,continuous,28,100,trial,2503037.0,2503837.0,800.0,78,R,2503083,2503279,198,1002.1,509.1,4408,NA
10,2,continuous,28,100,trial,2503037.0,2503837.0,800.0,78,R,2503327,2503467,142,577.1,499.6,4341,left
10,2,continuous,28,100,trial,2503037.0,2503837.0,800.0,78,R,2503525,2504071,548,1400.9,458.8,3787,right
10,2,continuous,29,7,fixationCross,2505054.0,2505604.0,550.0,79,R,2504377,2504545,170,648.2,518.1,3738,left
10,2,continuous,29,7,fixationCross,2505054.0,2505604.0,550.0,79,R,2504573,2504749,178,840.1,520.9,3884,NA
10,2,continuous,29,7,trial,2505054.0,2505604.0,550.0,79,R,2504771,2505223,454,943.7,500.1,3867,NA
10,2,continuous,29,7,trial,2505054.0,2505604.0,550.0,79,R,2505269,2505585,318,527.3,494.5,3860,left
10,2,continuous,29,7,postResponse,2505054.0,2505604.0,550.0,79,R,2505607,2505951,346,406.4,489.1,3765,left
10,2,continuous,30,1,fixationCross,2506637.0,2507454.0,817.0,80,R,2506025,2506087,64,400.8,484.3,3586,left
10,2,continuous,30,1,fixationCross,2506637.0,2507454.0,817.0,80,R,2506175,2506299,126,1207.9,513.0,3478,right
10,2,continuous,30,1,trial,2506637.0,2507454.0,817.0,80,R,2506325,2506905,582,1030.7,509.6,3745,NA
10,2,continuous,30,1,trial,2506637.0,2507454.0,817.0,80,R,2506957,2507413,458,567.4,490.6,3811,left
10,2,continuous,30,1,trial,2506637.0,2507454.0,817.0,80,R,2507481,2507743,264,1438.9,434.8,3628,right
10,2,continuous,31,100,fixationCross,2508370.0,2509021.0,651.0,81,R,2508149,2508363,216,917.5,586.1,3952,NA
10,2,continuous,31,100,trial,2508370.0,2509021.0,651.0,81,R,2508381,2508617,238,972.3,560.6,4012,NA
10,2,continuous,31,100,trial,2508370.0,2509021.0,651.0,81,R,2508661,2509045,386,1389.9,544.2,3506,right
10,2,continuous,31,100,postResponse,2508370.0,2509021.0,651.0,81,R,2509121,2509363,244,393.1,496.0,3380,left
10,2,continuous,32,10,fixationCross,2510288.0,2510971.0,683.0,82,R,2509463,2509521,60,379.8,492.5,3268,left
10,2,continuous,32,10,fixationCross,2510288.0,2510971.0,683.0,82,R,2509553,2509717,166,613.4,518.0,3284,left
10,2,continuous,32,10,fixationCross,2510288.0,2510971.0,683.0,82,R,2509741,2509993,254,781.2,522.1,3390,NA
10,2,continuous,32,10,fixationCross,2510288.0,2510971.0,683.0,82,R,2510015,2510219,206,914.2,532.9,3643,NA
10,2,continuous,32,10,trial,2510288.0,2510971.0,683.0,82,R,2510237,2510609,374,1004.5,509.5,3857,NA
10,2,continuous,32,10,trial,2510288.0,2510971.0,683.0,82,R,2510659,2510937,280,596.0,543.6,4067,left
10,2,continuous,32,10,postResponse,2510288.0,2510971.0,683.0,82,R,2510959,2511301,344,493.3,506.4,3779,left
10,2,continuous,33,92,fixationCross,2512204.0,2512954.0,750.0,83,R,2511375,2511677,304,486.5,490.8,3416,left
10,2,continuous,33,92,fixationCross,2512204.0,2512954.0,750.0,83,R,2511713,2511889,178,719.6,495.8,3457,left
10,2,continuous,33,92,trial,2512204.0,2512954.0,750.0,83,R,2511919,2512383,466,926.1,497.7,3613,NA
10,2,continuous,33,92,trial,2512204.0,2512954.0,750.0,83,R,2512431,2512527,98,565.3,452.2,3751,left
10,2,continuous,33,92,trial,2512204.0,2512954.0,750.0,83,R,2512589,2512917,330,1406.7,429.2,3523,right
10,2,continuous,33,92,postResponse,2512204.0,2512954.0,750.0,83,R,2512943,2513295,354,1526.5,474.2,3520,right
10,2,continuous,34,17,fixationCross,2515354.0,2516121.0,767.0,84,R,2513473,2513535,64,904.6,564.3,3661,NA
10,2,continuous,34,17,fixationCross,2515354.0,2516121.0,767.0,84,R,2513549,2513631,84,804.6,583.3,3695,NA
10,2,continuous,34,17,fixationCross,2515354.0,2516121.0,767.0,84,R,2513647,2514093,448,734.2,581.8,3803,left
10,2,continuous,34,17,fixationCross,2515354.0,2516121.0,767.0,84,R,2514111,2515055,946,851.5,571.2,3780,NA
10,2,continuous,34,17,fixationCross,2515354.0,2516121.0,767.0,84,R,2515075,2515337,264,933.9,544.9,3879,NA
10,2,continuous,34,17,trial,2515354.0,2516121.0,767.0,84,R,2515349,2515601,254,970.8,532.0,3916,NA
10,2,continuous,34,17,trial,2515354.0,2516121.0,767.0,84,R,2515647,2516039,394,617.0,559.9,3799,left
10,2,continuous,34,17,trial,2515354.0,2516121.0,767.0,84,R,2516105,2516177,74,624.7,1099.5,3710,NA
10,2,continuous,34,17,postResponse,2515354.0,2516121.0,767.0,84,R,2516197,2516471,276,600.3,998.7,3645,NA
10,2,continuous,35,98,fixationCross,2517287.0,2518287.0,1000.0,85,R,2516545,2516971,428,604.0,975.7,3762,NA
10,2,continuous,35,98,fixationCross,2517287.0,2518287.0,1000.0,85,R,2517035,2517193,160,1025.9,521.4,3968,NA
10,2,continuous,35,98,trial,2517287.0,2518287.0,1000.0,85,R,2517209,2517543,336,959.1,519.3,4116,NA
10,2,continuous,35,98,trial,2517287.0,2518287.0,1000.0,85,R,2517589,2517745,158,529.1,520.9,4102,left
10,2,continuous,35,98,trial,2517287.0,2518287.0,1000.0,85,R,2517811,2518125,316,1461.6,506.4,3587,right
10,2,continuous,35,98,postResponse,2517287.0,2518287.0,1000.0,85,R,2518145,2518619,476,1431.7,429.4,3439,right
10,2,continuous,36,1,fixationCross,2519304.0,2520137.0,833.0,86,R,2518719,2518951,234,1421.8,416.5,3574,right
10,2,continuous,36,1,fixationCross,2519304.0,2520137.0,833.0,86,R,2519005,2519181,178,1014.2,477.4,3980,NA
10,2,continuous,36,1,trial,2519304.0,2520137.0,833.0,86,R,2519199,2519533,336,959.5,516.8,4194,NA
10,2,continuous,36,1,trial,2519304.0,2520137.0,833.0,86,R,2519581,2519783,204,1446.8,493.8,3961,right
10,2,continuous,36,1,postResponse,2519304.0,2520137.0,833.0,86,R,2519853,2520469,618,514.3,594.6,3708,left
10,2,continuous,37,87,fixationCross,2521387.0,2522371.0,984.0,87,R,2520569,2521067,500,523.3,593.3,3712,left
10,2,continuous,37,87,trial,2521387.0,2522371.0,984.0,87,R,2521113,2521547,436,909.5,518.1,4257,NA
10,2,continuous,37,87,trial,2521387.0,2522371.0,984.0,87,R,2521593,2521711,120,520.0,464.9,4580,left
10,2,continuous,37,87,trial,2521387.0,2522371.0,984.0,87,R,2521773,2522039,268,1309.6,522.4,4338,right
10,2,continuous,37,87,trial,2521387.0,2522371.0,984.0,87,R,2522057,2522601,546,1346.7,548.3,3854,right
10,2,continuous,37,87,trial,2521387.0,2522371.0,984.0,87,R,2522613,2522643,32,1395.0,522.2,3646,right
10,2,continuous,38,6,fixationCross,2523388.0,2524271.0,883.0,88,R,2522925,2523061,138,1317.4,525.7,3862,right
10,2,continuous,38,6,fixationCross,2523388.0,2524271.0,883.0,88,R,2523099,2523257,160,1008.8,527.9,4053,NA
10,2,continuous,38,6,trial,2523388.0,2524271.0,883.0,88,R,2523271,2523557,288,951.1,530.2,4131,NA
10,2,continuous,38,6,trial,2523388.0,2524271.0,883.0,88,R,2523607,2523993,388,527.9,495.3,3943,left
10,2,continuous,38,6,trial,2523388.0,2524271.0,883.0,88,R,2524077,2524267,192,632.6,958.7,3994,NA
10,2,continuous,38,6,postResponse,2523388.0,2524271.0,883.0,88,R,2524335,2524617,284,1502.5,634.2,3993,right
10,2,continuous,39,100,fixationCross,2525438.0,2526655.0,1217.0,89,R,2524717,2525065,350,1486.0,627.9,3948,right
10,2,continuous,39,100,fixationCross,2525438.0,2526655.0,1217.0,89,R,2525115,2525287,174,1051.5,547.0,4186,NA
10,2,continuous,39,100,trial,2525438.0,2526655.0,1217.0,89,R,2525303,2525615,314,988.3,526.5,4225,NA
10,2,continuous,39,100,trial,2525438.0,2526655.0,1217.0,89,R,2525663,2525957,296,1417.5,463.5,4007,right
10,2,continuous,39,100,trial,2525438.0,2526655.0,1217.0,89,R,2525975,2526307,334,1379.3,420.5,3825,right
10,2,continuous,39,100,trial,2525438.0,2526655.0,1217.0,89,R,2526331,2526561,232,1383.3,508.6,3808,right
10,2,continuous,39,100,postResponse,2525438.0,2526655.0,1217.0,89,R,2526631,2526997,368,570.1,476.7,4096,left
10,2,continuous,40,100,fixationCross,2527904.0,2529221.0,1317.0,90,R,2527073,2527581,510,575.9,479.1,3987,left
10,2,continuous,40,100,trial,2527904.0,2529221.0,1317.0,90,R,2527627,2528083,458,976.7,524.2,4213,NA
10,2,continuous,40,100,trial,2527904.0,2529221.0,1317.0,90,R,2528135,2528255,122,564.2,435.9,4374,left
10,2,continuous,40,100,trial,2527904.0,2529221.0,1317.0,90,R,2528273,2528365,94,512.8,401.3,4293,left
10,2,continuous,40,100,trial,2527904.0,2529221.0,1317.0,90,R,2528419,2528597,180,1241.0,534.0,4006,right
10,2,continuous,40,100,trial,2527904.0,2529221.0,1317.0,90,R,2528621,2528855,236,1352.0,475.0,3882,right
10,2,continuous,40,100,trial,2527904.0,2529221.0,1317.0,90,R,2528881,2529265,386,1557.0,432.4,3741,right
10,2,continuous,40,100,trial,2527904.0,2529221.0,1317.0,90,R,2529341,2529425,86,549.7,438.8,3748,left
10,2,continuous,41,15,fixationCross,2530437.0,2531287.0,850.0,91,R,2529827,2530053,228,639.9,576.7,3916,left
10,2,continuous,41,15,fixationCross,2530437.0,2531287.0,850.0,91,R,2530093,2530267,176,873.8,495.1,4062,NA
10,2,continuous,41,15,trial,2530437.0,2531287.0,850.0,91,R,2530291,2530683,394,1039.8,472.0,3777,NA
10,2,continuous,41,15,trial,2530437.0,2531287.0,850.0,91,R,2530737,2531143,408,482.1,476.0,3718,left
10,2,continuous,41,15,postResponse,2530437.0,2531287.0,850.0,91,R,2531167,2531621,456,384.0,430.8,3492,left
10,2,continuous,42,1,fixationCross,2533337.0,2534287.0,950.0,92,R,2531751,2531843,94,1218.2,494.8,3462,right
10,2,continuous,42,1,fixationCross,2533337.0,2534287.0,950.0,92,R,2531853,2532087,236,1261.3,506.5,3575,right
10,2,continuous,42,1,fixationCross,2533337.0,2534287.0,950.0,92,R,2532121,2532905,786,1050.5,488.5,3874,NA
10,2,continuous,42,1,fixationCross,2533337.0,2534287.0,950.0,92,R,2532923,2533181,260,1119.6,469.0,3876,NA
10,2,continuous,42,1,trial,2533337.0,2534287.0,950.0,92,R,2533203,2533515,314,996.2,480.0,4001,NA
10,2,continuous,42,1,trial,2533337.0,2534287.0,950.0,92,R,2533563,2533771,210,1409.2,529.8,3833,right
10,2,continuous,42,1,trial,2533337.0,2534287.0,950.0,92,R,2533839,2534519,682,489.7,551.8,3557,left
10,2,continuous,43,91,fixationCross,2535205.0,2535938.0,733.0,93,R,2534903,2535079,178,1022.3,491.2,3463,NA
10,2,continuous,43,91,trial,2535205.0,2535938.0,733.0,93,R,2535097,2535447,352,955.1,491.5,3685,NA
10,2,continuous,43,91,trial,2535205.0,2535938.0,733.0,93,R,2535491,2535857,368,1354.7,475.0,3449,right
10,2,continuous,43,91,trial,2535205.0,2535938.0,733.0,93,R,2535889,2536043,156,1605.7,407.8,3335,right
10,2,continuous,43,91,postResponse,2535205.0,2535938.0,733.0,93,R,2536053,2536271,220,1626.0,398.1,3287,right
10,2,continuous,44,1,fixationCross,2537138.0,2537871.0,733.0,94,R,2536429,2536757,330,844.6,522.7,3428,NA
10,2,continuous,44,1,trial,2537138.0,2537871.0,733.0,94,R,2536773,2537359,588,883.6,486.9,3650,NA
10,2,continuous,44,1,trial,2537138.0,2537871.0,733.0,94,R,2537407,2537785,380,518.9,449.4,3675,left
10,2,continuous,44,1,postResponse,2537138.0,2537871.0,733.0,94,R,2537805,2538203,400,455.7,396.4,3427,left
10,2,continuous,45,100,fixationCross,2539004.0,2539655.0,651.0,95,R,2538305,2538347,44,464.1,391.9,3418,left
10,2,continuous,45,100,fixationCross,2539004.0,2539655.0,651.0,95,R,2538393,2538683,292,733.9,445.4,3613,left
10,2,continuous,45,100,fixationCross,2539004.0,2539655.0,651.0,95,R,2538721,2538995,276,930.4,460.4,3908,NA
10,2,continuous,45,100,trial,2539004.0,2539655.0,651.0,95,R,2539015,2539199,186,1037.3,476.5,3974,NA
10,2,continuous,45,100,postResponse,2539004.0,2539655.0,651.0,95,R,2539239,2539997,760,1361.7,473.9,3803,right
10,2,continuous,46,1,fixationCross,2541421.0,2542154.0,733.0,96,R,2540097,2540299,204,1345.2,467.7,3667,right
10,2,continuous,46,1,fixationCross,2541421.0,2542154.0,733.0,96,R,2540359,2541161,804,805.5,537.9,4031,NA
10,2,continuous,46,1,fixationCross,2541421.0,2542154.0,733.0,96,R,2541179,2541351,174,904.4,525.5,3895,NA
10,2,continuous,46,1,trial,2541421.0,2542154.0,733.0,96,R,2541365,2541669,306,964.4,532.7,3899,NA
10,2,continuous,46,1,trial,2541421.0,2542154.0,733.0,96,R,2541713,2542083,372,584.8,526.6,3978,left
10,2,continuous,46,1,trial,2541421.0,2542154.0,733.0,96,R,2542115,2542401,288,378.9,509.7,3766,left
10,2,continuous,47,100,fixationCross,2543255.0,2543971.0,716.0,97,R,2542719,2542925,208,1308.1,525.2,3861,right
10,2,continuous,47,100,trial,2543255.0,2543971.0,716.0,97,R,2542965,2543497,534,1009.0,520.4,4089,NA
10,2,continuous,47,100,trial,2543255.0,2543971.0,716.0,97,R,2543545,2543881,338,1476.9,523.1,3665,right
10,2,continuous,47,100,trial,2543255.0,2543971.0,716.0,97,R,2543895,2544159,266,1502.9,540.8,3564,right
10,2,continuous,48,1,fixationCross,2544938.0,2545654.0,716.0,98,R,2544415,2544625,212,1160.6,467.6,3800,NA
10,2,continuous,48,1,trial,2544938.0,2545654.0,716.0,98,R,2544667,2545123,458,871.7,517.0,4105,NA
10,2,continuous,48,1,trial,2544938.0,2545654.0,716.0,98,R,2545161,2545355,196,604.8,522.6,3974,left
10,2,continuous,48,1,trial,2544938.0,2545654.0,716.0,98,R,2545383,2545523,142,529.9,638.6,3812,left
10,2,continuous,48,1,postResponse,2544938.0,2545654.0,716.0,98,R,2545535,2545987,454,539.6,677.8,3764,left
10,2,continuous,49,28,fixationCross,2546771.0,2547921.0,1150.0,99,R,2546169,2546445,278,1282.8,534.2,3672,right
10,2,continuous,49,28,trial,2546771.0,2547921.0,1150.0,99,R,2546485,2546995,512,1021.0,525.4,4087,NA
10,2,continuous,49,28,trial,2546771.0,2547921.0,1150.0,99,R,2547045,2547385,342,1500.1,506.8,3854,right
10,2,continuous,49,28,trial,2546771.0,2547921.0,1150.0,99,R,2547457,2547795,340,492.7,528.7,3739,left
10,2,continuous,49,28,trial,2546771.0,2547921.0,1150.0,99,R,2547871,2547937,68,696.7,1077.4,3585,NA
10,2,continuous,49,28,postResponse,2546771.0,2547921.0,1150.0,99,R,2547961,2548251,292,661.3,947.8,3520,NA
10,2,continuous,50,1,fixationCross,2549005.0,2549804.0,799.0,100,R,2548721,2548825,106,910.1,537.2,3583,NA
10,2,continuous,50,1,trial,2549005.0,2549804.0,799.0,100,R,2548847,2549271,426,979.7,500.0,3724,NA
10,2,continuous,50,1,trial,2549005.0,2549804.0,799.0,100,R,2549323,2549809,488,452.9,534.0,3492,left
10,2,continuous,50,1,postResponse,2549005.0,2549804.0,799.0,100,R,2549829,2550143,316,372.9,498.2,3359,left
10,3,valuation,1,6,fixationCross,2769274.0,2771324.0,2050.0,101,R,2768586,2768966,382,931.4,869.6,4633,likertHorizontal
10,3,valuation,1,6,trial,2769274.0,2771324.0,2050.0,101,R,2769012,2769540,530,967.9,547.8,4703,NA
10,3,valuation,1,6,trial,2769274.0,2771324.0,2050.0,101,R,2769588,2769720,134,526.8,419.8,4383,likertVertical
10,3,valuation,1,6,trial,2769274.0,2771324.0,2050.0,101,R,2769736,2769864,130,499.5,463.6,4188,likertVertical
10,3,valuation,1,6,trial,2769274.0,2771324.0,2050.0,101,R,2769880,2770094,216,499.7,509.4,4056,likertVertical
10,3,valuation,1,6,trial,2769274.0,2771324.0,2050.0,101,R,2770160,2770464,306,1401.3,546.1,3839,right
10,3,valuation,1,6,trial,2769274.0,2771324.0,2050.0,101,R,2770534,2771114,582,434.6,349.8,3560,likertVertical
10,3,valuation,1,6,postResponse,2769274.0,2771324.0,2050.0,101,R,2771124,2771672,550,474.9,330.3,3760,likertVertical
10,3,valuation,2,7,fixationCross,2772690.0,2773858.0,1168.0,102,R,2771772,2772262,492,1083.3,529.8,3942,NA
10,3,valuation,2,7,fixationCross,2772690.0,2773858.0,1168.0,102,R,2772322,2772466,146,738.4,446.8,4142,NA
10,3,valuation,2,7,trial,2772690.0,2773858.0,1168.0,102,R,2772490,2772846,358,893.2,498.4,4099,NA
10,3,valuation,2,7,trial,2772690.0,2773858.0,1168.0,102,R,2772892,2773156,266,1383.9,542.6,3936,right
10,3,valuation,2,7,trial,2772690.0,2773858.0,1168.0,102,R,2773176,2773248,74,1460.9,516.1,3687,right
10,3,valuation,2,7,trial,2772690.0,2773858.0,1168.0,102,R,2773318,2773494,178,547.1,373.2,3620,likertVertical
10,3,valuation,2,7,trial,2772690.0,2773858.0,1168.0,102,R,2773510,2773666,158,481.0,390.3,3455,likertVertical
10,3,valuation,2,7,trial,2772690.0,2773858.0,1168.0,102,R,2773688,2773752,66,499.8,297.3,3440,likertVertical
10,3,valuation,2,7,trial,2772690.0,2773858.0,1168.0,102,R,2773772,2773904,134,553.0,250.1,3534,likertVertical
10,3,valuation,2,7,postResponse,2772690.0,2773858.0,1168.0,102,R,2773920,2774204,286,608.5,229.7,3711,likertVertical
10,3,valuation,3,6,fixationCross,2774941.0,2775940.0,999.0,103,R,2774278,2774444,168,612.3,232.2,3904,likertVertical
10,3,valuation,3,6,fixationCross,2774941.0,2775940.0,999.0,103,R,2774480,2774638,160,763.0,401.7,4100,NA
10,3,valuation,3,6,trial,2774941.0,2775940.0,999.0,103,R,2774678,2775098,422,983.4,507.0,4397,NA
10,3,valuation,3,6,trial,2774941.0,2775940.0,999.0,103,R,2775136,2775254,120,1255.3,498.7,4376,right
10,3,valuation,3,6,trial,2774941.0,2775940.0,999.0,103,R,2775318,2775844,528,499.6,339.3,4065,likertVertical
10,3,valuation,3,6,trial,2774941.0,2775940.0,999.0,103,R,2775856,2776184,330,481.6,302.6,3926,likertVertical
10,3,valuation,4,6,fixationCross,2777141.0,2778407.0,1266.0,104,R,2776390,2776822,434,1268.4,549.6,4219,right
10,3,valuation,4,6,trial,2777141.0,2778407.0,1266.0,104,R,2776868,2777320,454,984.0,480.6,4239,NA
10,3,valuation,4,6,trial,2777141.0,2778407.0,1266.0,104,R,2777360,2777672,314,1322.4,477.1,4073,right
10,3,valuation,4,6,trial,2777141.0,2778407.0,1266.0,104,R,2777740,2777914,176,492.7,396.0,4029,likertVertical
10,3,valuation,4,6,trial,2777141.0,2778407.0,1266.0,104,R,2777930,2778224,296,486.5,350.8,3891,likertVertical
10,3,valuation,4,6,trial,2777141.0,2778407.0,1266.0,104,R,2778234,2778406,174,487.5,306.6,3819,likertVertical
10,3,valuation,4,6,postResponse,2777141.0,2778407.0,1266.0,104,R,2778462,2778752,292,674.9,844.9,3806,likertVertical
10,3,valuation,5,5,fixationCross,2780757.0,2781791.0,1034.0,105,R,2778906,2779028,124,1358.9,480.3,3793,right
10,3,valuation,5,5,fixationCross,2780757.0,2781791.0,1034.0,105,R,2779042,2779874,834,1394.6,502.0,3849,right
10,3,valuation,5,5,fixationCross,2780757.0,2781791.0,1034.0,105,R,2779898,2780284,388,1267.8,491.2,4024,right
10,3,valuation,5,5,fixationCross,2780757.0,2781791.0,1034.0,105,R,2780314,2780480,168,1078.8,474.2,4232,NA
10,3,valuation,5,5,fixationCross,2780757.0,2781791.0,1034.0,105,R,2780506,2780696,192,900.1,484.9,4323,NA
10,3,valuation,5,5,trial,2780757.0,2781791.0,1034.0,105,R,2780738,2780922,186,638.2,455.5,4276,likertVertical
10,3,valuation,5,5,trial,2780757.0,2781791.0,1034.0,105,R,2780980,2781144,166,1395.2,509.0,4081,right
10,3,valuation,5,5,trial,2780757.0,2781791.0,1034.0,105,R,2781214,2781524,312,474.6,387.6,3895,likertVertical
10,3,valuation,5,5,trial,2780757.0,2781791.0,1034.0,105,R,2781544,2781702,160,496.9,330.9,3664,likertVertical
10,3,valuation,5,5,trial,2780757.0,2781791.0,1034.0,105,R,2781724,2782052,330,565.9,230.4,3612,likertVertical
10,3,valuation,5,5,trial,2780757.0,2781791.0,1034.0,105,R,2782072,2782104,34,664.3,283.8,3677,likertVertical
10,3,valuation,6,7,fixationCross,2783074.0,2783974.0,900.0,106,R,2782240,2782594,356,1391.6,552.2,3705,right
10,3,valuation,6,7,fixationCross,2783074.0,2783974.0,900.0,106,R,2782632,2782790,160,1090.5,508.6,3947,NA
10,3,valuation,6,7,fixationCross,2783074.0,2783974.0,900.0,106,R,2782814,2782994,182,974.7,466.6,3953,NA
10,3,valuation,6,7,trial,2783074.0,2783974.0,900.0,106,R,2783028,2783214,188,1150.7,453.3,3922,NA
10,3,valuation,6,7,trial,2783074.0,2783974.0,900.0,106,R,2783256,2783386,132,1442.7,531.9,3900,right
10,3,valuation,6,7,trial,2783074.0,2783974.0,900.0,106,R,2783408,2783476,70,1458.8,588.5,3800,right
10,3,valuation,6,7,trial,2783074.0,2783974.0,900.0,106,R,2783548,2783780,234,464.8,300.8,3587,likertVertical
10,3,valuation,6,7,trial,2783074.0,2783974.0,900.0,106,R,2783796,2783928,134,461.8,243.9,3411,likertVertical
10,3,valuation,6,7,postResponse,2783074.0,2783974.0,900.0,106,R,2783994,2784320,328,1350.4,540.5,3456,right
10,3,valuation,7,5,fixationCross,2785340.0,2786357.0,1017.0,107,R,2784420,2784838,420,1341.3,528.5,3678,right
10,3,valuation,7,5,fixationCross,2785340.0,2786357.0,1017.0,107,R,2784858,2785036,180,1229.0,491.5,3949,right
10,3,valuation,7,5,fixationCross,2785340.0,2786357.0,1017.0,107,R,2785072,2785296,226,990.5,488.4,4082,NA
10,3,valuation,7,5,trial,2785340.0,2786357.0,1017.0,107,R,2785316,2785416,102,1095.0,493.9,4109,NA
10,3,valuation,7,5,trial,2785340.0,2786357.0,1017.0,107,R,2785436,2785498,64,1028.5,489.1,4109,NA
10,3,valuation,7,5,trial,2785340.0,2786357.0,1017.0,107,R,2785538,2785680,144,1331.6,515.9,3959,right
10,3,valuation,7,5,trial,2785340.0,2786357.0,1017.0,107,R,2785702,2786142,442,1374.6,550.8,3670,right
10,3,valuation,7,5,trial,2785340.0,2786357.0,1017.0,107,R,2786210,2786346,138,588.3,377.7,3446,likertVertical
10,3,valuation,7,5,postResponse,2785340.0,2786357.0,1017.0,107,R,2786366,2786700,336,484.6,386.1,3467,likertVertical
10,3,valuation,8,6,fixationCross,2788891.0,2789941.0,1050.0,108,R,2786850,2786924,76,1287.1,537.9,3564,right
10,3,valuation,8,6,fixationCross,2788891.0,2789941.0,1050.0,108,R,2786946,2787154,210,1459.4,582.8,3576,right
10,3,valuation,8,6,fixationCross,2788891.0,2789941.0,1050.0,108,R,2787172,2787362,192,1360.0,538.7,3665,right
10,3,valuation,8,6,fixationCross,2788891.0,2789941.0,1050.0,108,R,2787404,2787588,186,1052.8,479.3,3766,NA
10,3,valuation,8,6,fixationCross,2788891.0,2789941.0,1050.0,108,R,2787612,2787908,298,1173.0,491.1,3720,NA
10,3,valuation,8,6,fixationCross,2788891.0,2789941.0,1050.0,108,R,2787928,2788092,166,1248.6,502.8,3736,right
10,3,valuation,8,6,fixationCross,2788891.0,2789941.0,1050.0,108,R,2788354,2788446,94,1216.2,482.4,3785,right
10,3,valuation,8,6,fixationCross,2788891.0,2789941.0,1050.0,108,R,2788466,2788630,166,1115.2,493.4,3828,NA
10,3,valuation,8,6,fixationCross,2788891.0,2789941.0,1050.0,108,R,2788648,2788698,52,1003.8,504.7,3910,NA
10,3,valuation,8,6,trial,2788891.0,2789941.0,1050.0,108,R,2788716,2788916,202,918.5,511.7,3800,NA
10,3,valuation,8,6,trial,2788891.0,2789941.0,1050.0,108,R,2789132,2789356,226,1430.8,499.3,3448,right
10,3,valuation,8,6,trial,2788891.0,2789941.0,1050.0,108,R,2789376,2789454,80,1496.4,536.0,3492,right
10,3,valuation,8,6,trial,2788891.0,2789941.0,1050.0,108,R,2789530,2789820,292,533.1,349.4,3554,likertVertical
10,3,valuation,8,6,trial,2788891.0,2789941.0,1050.0,108,R,2789836,2790190,356,486.5,314.5,3571,likertVertical
10,3,valuation,9,6,fixationCross,2792741.0,2793607.0,866.0,109,R,2790770,2790904,136,1332.2,588.6,4185,right
10,3,valuation,9,6,fixationCross,2792741.0,2793607.0,866.0,109,R,2790934,2791384,452,1133.0,553.6,4049,NA
10,3,valuation,9,6,fixationCross,2792741.0,2793607.0,866.0,109,R,2791412,2791592,182,1277.7,509.1,3536,right
10,3,valuation,9,6,fixationCross,2792741.0,2793607.0,866.0,109,R,2791610,2791948,340,1369.3,501.1,3555,right
10,3,valuation,9,6,fixationCross,2792741.0,2793607.0,866.0,109,R,2791972,2792444,474,1222.1,485.0,3864,right
10,3,valuation,9,6,fixationCross,2792741.0,2793607.0,866.0,109,R,2792476,2792650,176,1001.4,463.3,4041,NA
10,3,valuation,9,6,trial,2792741.0,2793607.0,866.0,109,R,2792674,2792920,248,869.4,463.9,4149,NA
10,3,valuation,9,6,trial,2792741.0,2793607.0,866.0,109,R,2792972,2793430,460,1386.8,498.5,4038,right
10,3,valuation,9,6,trial,2792741.0,2793607.0,866.0,109,R,2793498,2793646,150,565.4,396.4,3926,likertVertical
10,3,valuation,9,6,trial,2792741.0,2793607.0,866.0,109,R,2793662,2793884,224,508.1,411.5,3900,likertVertical
10,3,valuation,10,6,fixationCross,2795141.0,2796024.0,883.0,110,R,2794324,2794466,144,1319.7,529.4,3818,right
10,3,valuation,10,6,fixationCross,2795141.0,2796024.0,883.0,110,R,2794484,2794652,170,1215.0,538.9,3930,right
10,3,valuation,10,6,fixationCross,2795141.0,2796024.0,883.0,110,R,2794672,2794846,176,1112.8,516.8,3895,NA
10,3,valuation,10,6,fixationCross,2795141.0,2796024.0,883.0,110,R,2794866,2795094,230,975.9,485.2,3615,NA
10,3,valuation,10,6,trial,2795141.0,2796024.0,883.0,110,R,2795110,2795316,208,907.2,464.2,3523,NA
10,3,valuation,10,6,trial,2795141.0,2796024.0,883.0,110,R,2795340,2795470,132,812.5,414.3,3617,NA
10,3,valuation,10,6,trial,2795141.0,2796024.0,883.0,110,R,2795524,2795850,328,1436.0,437.5,3476,right
10,3,valuation,10,6,trial,2795141.0,2796024.0,883.0,110,R,2795888,2796132,246,1406.7,630.0,3406,right
10,3,valuation,10,6,postResponse,2795141.0,2796024.0,883.0,110,R,2796200,2796370,172,799.5,508.4,3524,NA
10,3,valuation,11,7,fixationCross,2798457.0,2799408.0,951.0,111,R,2796446,2796538,94,786.1,506.2,3469,NA
10,3,valuation,11,7,fixationCross,2798457.0,2799408.0,951.0,111,R,2796562,2796596,36,898.1,497.9,3466,NA
10,3,valuation,11,7,fixationCross,2798457.0,2799408.0,951.0,111,R,2797028,2797904,878,1164.5,513.0,3603,NA
10,3,valuation,11,7,fixationCross,2798457.0,2799408.0,951.0,111,R,2797924,2798200,278,1067.1,494.3,3594,NA
10,3,valuation,11,7,fixationCross,2798457.0,2799408.0,951.0,111,R,2798214,2798456,244,1021.5,511.6,3818,NA
10,3,valuation,11,7,trial,2798457.0,2799408.0,951.0,111,R,2798746,2798826,82,1003.4,496.3,3854,NA
10,3,valuation,11,7,trial,2798457.0,2799408.0,951.0,111,R,2798870,2799042,174,1353.2,534.0,3771,right
10,3,valuation,11,7,trial,2798457.0,2799408.0,951.0,111,R,2799058,2799266,210,1386.2,504.2,3702,right
10,3,valuation,11,7,postResponse,2798457.0,2799408.0,951.0,111,R,2799342,2799750,410,479.5,232.5,3250,likertVertical
10,3,valuation,12,6,fixationCross,2800574.0,2801358.0,784.0,112,R,2799942,2800292,352,1115.9,506.2,3628,NA
10,3,valuation,12,6,fixationCross,2800574.0,2801358.0,784.0,112,R,2800318,2800460,144,989.0,512.6,3986,NA
10,3,valuation,12,6,trial,2800574.0,2801358.0,784.0,112,R,2800472,2800738,268,939.9,519.9,4058,NA
10,3,valuation,12,6,trial,2800574.0,2801358.0,784.0,112,R,2800786,2801370,586,1376.8,529.2,3764,right
10,3,valuation,12,6,postResponse,2800574.0,2801358.0,784.0,112,R,2801452,2801692,242,457.8,327.7,3492,likertVertical
10,3,valuation,13,7,fixationCross,2802641.0,2803791.0,1150.0,113,R,2801766,2802204,440,470.7,326.0,3617,likertVertical
10,3,valuation,13,7,fixationCross,2802641.0,2803791.0,1150.0,113,R,2802250,2802342,94,839.4,423.7,3864,NA
10,3,valuation,13,7,trial,2802641.0,2803791.0,1150.0,113,R,2802368,2802828,462,1012.7,471.3,3905,NA
10,3,valuation,13,7,trial,2802641.0,2803791.0,1150.0,113,R,2802878,2803114,238,1370.3,575.3,3875,right
10,3,valuation,13,7,trial,2802641.0,2803791.0,1150.0,113,R,2803186,2803500,316,498.4,418.8,3623,likertVertical
10,3,valuation,13,7,trial,2802641.0,2803791.0,1150.0,113,R,2803536,2803732,198,505.6,269.6,3414,likertVertical
10,3,valuation,13,7,trial,2802641.0,2803791.0,1150.0,113,R,2803750,2803810,62,467.6,233.4,3383,likertVertical
10,3,valuation,13,7,postResponse,2802641.0,2803791.0,1150.0,113,R,2803878,2804136,260,1348.2,565.3,3382,right
10,3,valuation,14,6,fixationCross,2806225.0,2807291.0,1066.0,114,R,2804238,2804952,716,1332.3,567.9,3629,right
10,3,valuation,14,6,fixationCross,2806225.0,2807291.0,1066.0,114,R,2804974,2805368,396,1216.5,532.4,3855,right
10,3,valuation,14,6,fixationCross,2806225.0,2807291.0,1066.0,114,R,2805386,2805808,424,1300.0,531.7,4070,right
10,3,valuation,14,6,fixationCross,2806225.0,2807291.0,1066.0,114,R,2805834,2805932,100,1144.2,518.7,4118,NA
10,3,valuation,14,6,fixationCross,2806225.0,2807291.0,1066.0,114,R,2805946,2806140,196,963.5,533.3,4098,NA
10,3,valuation,14,6,trial,2806225.0,2807291.0,1066.0,114,R,2806158,2806374,218,1012.2,533.3,3994,NA
10,3,valuation,14,6,trial,2806225.0,2807291.0,1066.0,114,R,2806420,2806524,106,1348.6,501.1,3786,right
10,3,valuation,14,6,trial,2806225.0,2807291.0,1066.0,114,R,2806544,2806832,290,1337.4,409.5,3622,right
10,3,valuation,14,6,trial,2806225.0,2807291.0,1066.0,114,R,2806898,2807204,308,551.4,260.2,3446,likertVertical
10,3,valuation,14,6,trial,2806225.0,2807291.0,1066.0,114,R,2807222,2807562,342,466.3,307.7,3466,likertVertical
10,3,valuation,14,6,postResponse,2806225.0,2807291.0,1066.0,114,R,2807578,2807622,46,570.8,344.5,3580,likertVertical
10,3,valuation,15,5,fixationCross,2810508.0,2811841.0,1333.0,115,R,2808014,2808646,634,1167.9,495.6,3836,NA
10,3,valuation,15,5,fixationCross,2810508.0,2811841.0,1333.0,115,R,2808666,2809472,808,1258.1,495.8,3788,right
10,3,valuation,15,5,fixationCross,2810508.0,2811841.0,1333.0,115,R,2809770,2809980,212,1204.3,522.5,4080,right
10,3,valuation,15,5,fixationCross,2810508.0,2811841.0,1333.0,115,R,2809998,2810238,242,1112.2,529.9,4062,NA
10,3,valuation,15,5,fixationCross,2810508.0,2811841.0,1333.0,115,R,2810252,2810412,162,1049.0,516.8,3726,NA
10,3,valuation,15,5,fixationCross,2810508.0,2811841.0,1333.0,115,R,2810424,2810486,64,996.4,509.6,3560,NA
10,3,valuation,15,5,trial,2810508.0,2811841.0,1333.0,115,R,2810772,2810798,28,1090.7,457.7,3488,NA
10,3,valuation,15,5,trial,2810508.0,2811841.0,1333.0,115,R,2810848,2811018,172,1390.5,472.6,3403,right
10,3,valuation,15,5,trial,2810508.0,2811841.0,1333.0,115,R,2811042,2811154,114,1498.2,441.7,3448,right
10,3,valuation,15,5,trial,2810508.0,2811841.0,1333.0,115,R,2811234,2811810,578,440.1,384.2,3189,likertVertical
10,3,valuation,15,5,postResponse,2810508.0,2811841.0,1333.0,115,R,2811884,2812186,304,1412.9,514.9,3266,right
10,3,valuation,16,3,fixationCross,2813108.0,2814691.0,1583.0,116,R,2812724,2812850,128,852.2,544.5,3632,NA
10,3,valuation,16,3,fixationCross,2813108.0,2814691.0,1583.0,116,R,2812870,2813030,162,916.7,508.1,3761,NA
10,3,valuation,16,3,trial,2813108.0,2814691.0,1583.0,116,R,2813044,2813244,202,969.8,502.9,3646,NA
10,3,valuation,16,3,trial,2813108.0,2814691.0,1583.0,116,R,2813294,2813564,272,1384.0,478.7,3193,right
10,3,valuation,16,3,trial,2813108.0,2814691.0,1583.0,116,R,2813638,2813844,208,444.8,404.5,3178,likertVertical
10,3,valuation,16,3,trial,2813108.0,2814691.0,1583.0,116,R,2813856,2814074,220,484.9,414.4,3194,likertVertical
10,3,valuation,16,3,trial,2813108.0,2814691.0,1583.0,116,R,2814098,2814360,264,510.7,507.1,3359,likertVertical
10,3,valuation,16,3,trial,2813108.0,2814691.0,1583.0,116,R,2814390,2814616,228,504.3,600.1,3579,likertVertical
10,3,valuation,16,3,trial,2813108.0,2814691.0,1583.0,116,R,2814646,2814794,150,704.3,779.2,3768,likertVertical
10,3,valuation,16,3,postResponse,2813108.0,2814691.0,1583.0,116,R,2814804,2815026,224,701.8,810.9,3867,likertVertical
10,3,valuation,17,7,fixationCross,2818074.0,2819175.0,1101.0,117,R,2815100,2815122,24,696.9,798.8,3928,likertVertical
10,3,valuation,17,7,fixationCross,2818074.0,2819175.0,1101.0,117,R,2815590,2815680,92,1426.6,573.2,3992,right
10,3,valuation,17,7,fixationCross,2818074.0,2819175.0,1101.0,117,R,2815720,2815888,170,1171.0,490.9,4110,NA
10,3,valuation,17,7,fixationCross,2818074.0,2819175.0,1101.0,117,R,2815914,2816510,598,1040.2,456.7,3811,NA
10,3,valuation,17,7,fixationCross,2818074.0,2819175.0,1101.0,117,R,2816526,2816756,232,1132.9,476.1,3713,NA
10,3,valuation,17,7,fixationCross,2818074.0,2819175.0,1101.0,117,R,2816772,2816952,182,1199.6,479.7,3842,right
10,3,valuation,17,7,fixationCross,2818074.0,2819175.0,1101.0,117,R,2816970,2817218,250,1282.1,482.6,3892,right
10,3,valuation,17,7,fixationCross,2818074.0,2819175.0,1101.0,117,R,2817248,2817338,92,1091.8,483.6,3949,NA
10,3,valuation,17,7,fixationCross,2818074.0,2819175.0,1101.0,117,R,2817608,2817796,190,1154.1,472.3,3899,NA
10,3,valuation,17,7,fixationCross,2818074.0,2819175.0,1101.0,117,R,2817822,2817966,146,971.3,505.2,3990,NA
10,3,valuation,17,7,trial,2818074.0,2819175.0,1101.0,117,R,2817976,2818226,252,960.4,539.4,3849,NA
10,3,valuation,17,7,trial,2818074.0,2819175.0,1101.0,117,R,2818270,2818492,224,1339.3,502.5,3526,right
10,3,valuation,17,7,trial,2818074.0,2819175.0,1101.0,117,R,2818512,2818646,136,1426.7,520.8,3408,right
10,3,valuation,17,7,trial,2818074.0,2819175.0,1101.0,117,R,2818720,2819018,300,535.0,296.1,3355,likertVertical
10,3,valuation,17,7,postResponse,2818074.0,2819175.0,1101.0,117,R,2819082,2819520,440,1360.0,462.4,3442,right
10,3,valuation,18,7,fixationCross,2820658.0,2821625.0,967.0,118,R,2820054,2820358,306,770.5,404.3,3733,NA
10,3,valuation,18,7,trial,2820658.0,2821625.0,967.0,118,R,2820382,2820804,424,932.0,467.3,3639,NA
10,3,valuation,18,7,trial,2820658.0,2821625.0,967.0,118,R,2820852,2821050,200,1348.4,434.0,3447,right
10,3,valuation,18,7,trial,2820658.0,2821625.0,967.0,118,R,2821086,2821248,164,1610.9,432.7,3478,right
10,3,valuation,18,7,trial,2820658.0,2821625.0,967.0,118,R,2821330,2821602,274,564.0,286.3,3590,likertVertical
10,3,valuation,18,7,postResponse,2820658.0,2821625.0,967.0,118,R,2821666,2821970,306,1440.5,428.5,3516,right
10,3,valuation,19,5,fixationCross,2825292.0,2826291.0,999.0,119,R,2822316,2823390,1076,1252.1,429.0,3623,right
10,3,valuation,19,5,fixationCross,2825292.0,2826291.0,999.0,119,R,2823408,2823594,188,1309.7,448.9,3613,right
10,3,valuation,19,5,fixationCross,2825292.0,2826291.0,999.0,119,R,2823610,2823762,154,1360.2,489.1,3711,right
10,3,valuation,19,5,fixationCross,2825292.0,2826291.0,999.0,119,R,2823774,2823836,64,1412.2,498.5,3754,right
10,3,valuation,19,5,fixationCross,2825292.0,2826291.0,999.0,119,R,2824146,2824414,270,1367.3,475.8,3836,right
10,3,valuation,19,5,fixationCross,2825292.0,2826291.0,999.0,119,R,2824462,2824620,160,1055.2,503.2,3891,NA
10,3,valuation,19,5,fixationCross,2825292.0,2826291.0,999.0,119,R,2825012,2825172,162,1110.1,438.2,3650,NA
10,3,valuation,19,5,trial,2825292.0,2826291.0,999.0,119,R,2825194,2825322,130,962.9,498.1,3817,NA
10,3,valuation,19,5,trial,2825292.0,2826291.0,999.0,119,R,2825526,2825800,276,1372.3,490.8,3467,right
10,3,valuation,19,5,trial,2825292.0,2826291.0,999.0,119,R,2825822,2826112,292,1307.4,614.7,3404,right
10,3,valuation,19,5,trial,2825292.0,2826291.0,999.0,119,R,2826178,2826308,132,576.0,447.5,3275,likertVertical
10,3,valuation,19,5,postResponse,2825292.0,2826291.0,999.0,119,R,2826328,2826624,298,484.7,410.3,3204,likertVertical
10,3,valuation,20,2,fixationCross,2827841.0,2828808.0,967.0,120,R,2827262,2827388,128,1302.2,527.9,3852,right
10,3,valuation,20,2,fixationCross,2827841.0,2828808.0,967.0,120,R,2827412,2827566,156,1136.0,527.2,3971,NA
10,3,valuation,20,2,fixationCross,2827841.0,2828808.0,967.0,120,R,2827594,2827838,246,930.1,508.9,3887,NA
10,3,valuation,20,2,trial,2827841.0,2828808.0,967.0,120,R,2827852,2828032,182,968.6,519.1,3673,NA
10,3,valuation,20,2,trial,2827841.0,2828808.0,967.0,120,R,2828090,2828270,182,1401.4,531.7,3504,right
10,3,valuation,20,2,trial,2827841.0,2828808.0,967.0,120,R,2828296,2828358,64,1498.0,492.0,3523,right
10,3,valuation,20,2,trial,2827841.0,2828808.0,967.0,120,R,2828444,2828812,370,508.2,645.1,3599,likertVertical
10,3,valuation,20,2,postResponse,2827841.0,2828808.0,967.0,120,R,2828830,2829140,312,535.1,696.6,3710,likertVertical
10,3,valuation,21,7,fixationCross,2830158.0,2831024.0,866.0,121,R,2829214,2829228,16,534.5,690.5,3912,likertVertical
10,3,valuation,21,7,fixationCross,2830158.0,2831024.0,866.0,121,R,2829722,2829876,156,1358.4,549.3,4040,right
10,3,valuation,21,7,trial,2830158.0,2831024.0,866.0,121,R,2829924,2830398,476,954.9,508.1,4138,NA
10,3,valuation,21,7,trial,2830158.0,2831024.0,866.0,121,R,2830444,2830728,286,1353.9,568.8,3749,right
10,3,valuation,21,7,trial,2830158.0,2831024.0,866.0,121,R,2830784,2830938,156,753.2,376.2,3664,NA
10,3,valuation,21,7,trial,2830158.0,2831024.0,866.0,121,R,2830968,2831290,324,532.4,314.4,3679,likertVertical
10,3,valuation,22,5,fixationCross,2833191.0,2834108.0,917.0,122,R,2831714,2831834,122,1245.4,528.5,3997,right
10,3,valuation,22,5,fixationCross,2833191.0,2834108.0,917.0,122,R,2831860,2832342,484,1095.6,483.0,4054,NA
10,3,valuation,22,5,fixationCross,2833191.0,2834108.0,917.0,122,R,2832362,2832900,540,1150.2,456.1,3748,NA
10,3,valuation,22,5,trial,2833191.0,2834108.0,917.0,122,R,2832926,2833340,416,980.0,453.4,4008,NA
10,3,valuation,22,5,trial,2833191.0,2834108.0,917.0,122,R,2833388,2833590,204,1317.3,453.6,4033,right
10,3,valuation,22,5,trial,2833191.0,2834108.0,917.0,122,R,2833632,2833944,314,1617.5,558.8,3860,right
10,3,valuation,22,5,trial,2833191.0,2834108.0,917.0,122,R,2834028,2834168,142,563.1,360.0,3780,likertVertical
10,3,valuation,22,5,trial,2833191.0,2834108.0,917.0,122,R,2834186,2834386,202,482.2,358.7,3656,likertVertical
10,3,valuation,23,7,fixationCross,2835441.0,2836342.0,901.0,123,R,2835026,2835172,148,1085.0,502.9,3875,NA
10,3,valuation,23,7,trial,2835441.0,2836342.0,901.0,123,R,2835194,2835592,400,951.4,512.6,3885,NA
10,3,valuation,23,7,trial,2835441.0,2836342.0,901.0,123,R,2835638,2835882,246,1351.1,463.0,3559,right
10,3,valuation,23,7,trial,2835441.0,2836342.0,901.0,123,R,2835954,2836216,264,449.9,317.5,3584,likertVertical
10,3,valuation,23,7,trial,2835441.0,2836342.0,901.0,123,R,2836240,2836594,356,480.3,215.4,3631,NA
10,3,valuation,24,5,fixationCross,2838208.0,2839191.0,983.0,124,R,2836974,2837138,166,1260.8,477.8,3865,right
10,3,valuation,24,5,fixationCross,2838208.0,2839191.0,983.0,124,R,2837164,2837936,774,1092.7,505.4,3974,NA
10,3,valuation,24,5,fixationCross,2838208.0,2839191.0,983.0,124,R,2837952,2838004,54,1025.4,516.7,3808,NA
10,3,valuation,24,5,trial,2838208.0,2839191.0,983.0,124,R,2838024,2838392,370,950.6,535.3,3896,NA
10,3,valuation,24,5,trial,2838208.0,2839191.0,983.0,124,R,2838432,2838652,222,1280.3,474.6,3836,right
10,3,valuation,24,5,trial,2838208.0,2839191.0,983.0,124,R,2838728,2838922,196,449.9,449.3,3698,likertVertical
10,3,valuation,24,5,trial,2838208.0,2839191.0,983.0,124,R,2838934,2839364,432,474.2,430.0,3589,likertVertical
10,3,valuation,25,5,fixationCross,2840741.0,2841475.0,734.0,125,R,2839800,2840068,270,1182.1,491.1,3521,NA
10,3,valuation,25,5,fixationCross,2840741.0,2841475.0,734.0,125,R,2840084,2840454,372,1118.2,496.0,3598,NA
10,3,valuation,25,5,fixationCross,2840741.0,2841475.0,734.0,125,R,2840476,2840692,218,1002.9,489.7,3584,NA
10,3,valuation,25,5,trial,2840741.0,2841475.0,734.0,125,R,2840706,2840982,278,941.8,500.4,3664,NA
10,3,valuation,25,5,trial,2840741.0,2841475.0,734.0,125,R,2841028,2841268,242,538.5,467.4,3829,likertVertical
10,3,valuation,25,5,trial,2840741.0,2841475.0,734.0,125,R,2841284,2841504,222,513.8,413.6,3897,likertVertical
10,3,valuation,25,5,postResponse,2840741.0,2841475.0,734.0,125,R,2841570,2841814,246,1341.2,534.3,3772,right
10,3,valuation,26,5,fixationCross,2874542.0,2876442.0,1900.0,126,R,2873291,2873937,648,738.1,421.1,3883,NA
10,3,valuation,26,5,fixationCross,2874542.0,2876442.0,1900.0,126,R,2874195,2874243,50,835.2,415.1,3696,NA
10,3,valuation,26,5,trial,2874542.0,2876442.0,1900.0,126,R,2874267,2874669,404,938.8,514.8,3854,NA
10,3,valuation,26,5,trial,2874542.0,2876442.0,1900.0,126,R,2874843,2875207,366,1375.6,466.1,3436,right
10,3,valuation,26,5,trial,2874542.0,2876442.0,1900.0,126,R,2875275,2875399,126,590.9,413.6,3373,likertVertical
10,3,valuation,26,5,trial,2874542.0,2876442.0,1900.0,126,R,2875421,2875677,258,468.1,410.6,3283,likertVertical
10,3,valuation,26,5,trial,2874542.0,2876442.0,1900.0,126,R,2875699,2876439,742,489.7,344.3,3503,likertVertical
10,3,valuation,26,5,trial,2874542.0,2876442.0,1900.0,126,R,2876455,2876683,230,516.1,399.7,3749,likertVertical
10,3,valuation,27,6,trial,2877659.0,2878291.0,632.0,127,R,2877399,2877729,332,910.9,475.3,4072,NA
10,3,valuation,27,6,trial,2877659.0,2878291.0,632.0,127,R,2877743,2877919,178,941.8,514.1,3833,NA
10,3,valuation,27,6,trial,2877659.0,2878291.0,632.0,127,R,2877967,2878211,246,482.9,411.0,3503,likertVertical
10,3,valuation,27,6,trial,2877659.0,2878291.0,632.0,127,R,2878231,2878501,272,516.6,341.5,3502,likertVertical
10,3,valuation,28,7,fixationCross,2879659.0,2880225.0,566.0,128,R,2879035,2879163,130,755.6,415.9,3706,NA
10,3,valuation,28,7,fixationCross,2879659.0,2880225.0,566.0,128,R,2879175,2879333,160,670.5,421.5,3835,likertVertical
10,3,valuation,28,7,fixationCross,2879659.0,2880225.0,566.0,128,R,2879355,2879395,42,780.2,449.8,3895,NA
10,3,valuation,28,7,trial,2879659.0,2880225.0,566.0,128,R,2879423,2880485,1064,953.5,481.3,3636,NA
10,3,valuation,29,7,fixationCross,2881492.0,2882209.0,717.0,129,R,2881031,2881135,106,1200.8,525.8,4018,right
10,3,valuation,29,7,fixationCross,2881492.0,2882209.0,717.0,129,R,2881151,2881295,146,1069.3,521.0,4117,NA
10,3,valuation,29,7,trial,2881492.0,2882209.0,717.0,129,R,2881313,2881761,450,961.4,520.0,3910,NA
10,3,valuation,29,7,trial,2881492.0,2882209.0,717.0,129,R,2881807,2882425,620,1419.4,552.3,3595,right
10,3,valuation,30,5,fixationCross,2884709.0,2885642.0,933.0,130,R,2883127,2884429,1304,842.1,455.8,3723,NA
10,3,valuation,30,5,trial,2884709.0,2885642.0,933.0,130,R,2884451,2884883,434,954.0,508.8,3811,NA
10,3,valuation,30,5,trial,2884709.0,2885642.0,933.0,130,R,2884931,2885079,150,1275.9,486.3,3795,right
10,3,valuation,30,5,trial,2884709.0,2885642.0,933.0,130,R,2885101,2885463,364,1309.7,432.7,3614,right
10,3,valuation,30,5,trial,2884709.0,2885642.0,933.0,130,R,2885531,2885741,212,528.7,379.6,3501,likertVertical
10,3,valuation,30,5,trial,2884709.0,2885642.0,933.0,130,R,2885755,2885893,140,491.0,394.8,3514,likertVertical
10,3,valuation,31,6,fixationCross,2887192.0,2887892.0,700.0,131,R,2886507,2886549,44,1468.7,572.6,3676,right
10,3,valuation,31,6,fixationCross,2887192.0,2887892.0,700.0,131,R,2886565,2886899,336,1349.2,542.8,3920,right
10,3,valuation,31,6,trial,2887192.0,2887892.0,700.0,131,R,2886953,2887467,516,911.6,461.4,3650,NA
10,3,valuation,31,6,trial,2887192.0,2887892.0,700.0,131,R,2887515,2887799,286,490.0,384.8,3667,likertVertical
10,3,valuation,31,6,trial,2887192.0,2887892.0,700.0,131,R,2887819,2888061,244,490.7,325.3,3672,likertVertical
10,3,valuation,32,5,fixationCross,2888842.0,2889676.0,834.0,132,R,2888605,2888731,128,880.2,557.9,3843,NA
10,3,valuation,32,5,trial,2888842.0,2889676.0,834.0,132,R,2888751,2889475,726,958.3,518.6,3814,NA
10,3,valuation,32,5,postResponse,2888842.0,2889676.0,834.0,132,R,2889527,2890021,496,1452.4,482.3,3700,right
10,3,valuation,33,6,fixationCross,2891076.0,2891626.0,550.0,133,R,2890095,2890157,64,1443.3,500.4,3845,right
10,3,valuation,33,6,trial,2891076.0,2891626.0,550.0,133,R,2890505,2891351,848,968.4,434.6,4463,NA
10,3,valuation,33,6,postResponse,2891076.0,2891626.0,550.0,133,R,2891397,2891955,560,1311.7,538.5,3767,right
10,3,valuation,34,5,fixationCross,2894025.0,2894992.0,967.0,134,R,2892411,2893481,1072,679.1,482.3,3783,likertVertical
10,3,valuation,34,5,fixationCross,2894025.0,2894992.0,967.0,134,R,2893503,2893541,40,819.4,485.9,3661,NA
10,3,valuation,34,5,fixationCross,2894025.0,2894992.0,967.0,134,R,2893827,2894015,190,975.4,482.1,3724,NA
10,3,valuation,34,5,trial,2894025.0,2894992.0,967.0,134,R,2894025,2894317,294,947.6,515.8,3875,NA
10,3,valuation,34,5,trial,2894025.0,2894992.0,967.0,134,R,2894369,2894699,332,494.3,456.1,3754,likertVertical
10,3,valuation,34,5,trial,2894025.0,2894992.0,967.0,134,R,2894771,2895203,434,1428.3,522.1,3662,right
10,3,valuation,35,6,trial,2895859.0,2897392.0,1533.0,135,R,2895607,2895875,270,957.2,513.0,3745,NA
10,3,valuation,35,6,trial,2895859.0,2897392.0,1533.0,135,R,2895885,2896127,244,935.7,514.5,3946,NA
10,3,valuation,35,6,trial,2895859.0,2897392.0,1533.0,135,R,2896179,2896413,236,1365.4,506.4,3624,right
10,3,valuation,35,6,trial,2895859.0,2897392.0,1533.0,135,R,2896477,2896633,158,594.6,397.9,3748,likertVertical
10,3,valuation,35,6,trial,2895859.0,2897392.0,1533.0,135,R,2896653,2897079,428,505.2,387.7,4019,likertVertical
10,3,valuation,35,6,trial,2895859.0,2897392.0,1533.0,135,R,2897091,2897255,166,485.4,368.9,4309,likertVertical
10,3,valuation,35,6,postResponse,2895859.0,2897392.0,1533.0,135,R,2897269,2897725,458,506.1,331.5,4478,likertVertical
10,3,valuation,36,5,fixationCross,2900026.0,2900909.0,883.0,136,R,2897799,2897947,150,521.2,331.6,4540,likertVertical
10,3,valuation,36,5,fixationCross,2900026.0,2900909.0,883.0,136,R,2898193,2898483,292,669.9,325.5,4807,likertVertical
10,3,valuation,36,5,fixationCross,2900026.0,2900909.0,883.0,136,R,2898513,2899505,994,822.9,414.3,4549,NA
10,3,valuation,36,5,fixationCross,2900026.0,2900909.0,883.0,136,R,2899725,2899963,240,962.1,433.9,4724,NA
10,3,valuation,36,5,trial,2900026.0,2900909.0,883.0,136,R,2899981,2900313,334,965.1,497.2,4807,NA
10,3,valuation,36,5,trial,2900026.0,2900909.0,883.0,136,R,2900369,2900713,346,469.7,427.4,4256,likertVertical
10,3,valuation,36,5,trial,2900026.0,2900909.0,883.0,136,R,2900749,2900877,130,683.2,403.9,4023,likertVertical
10,3,valuation,36,5,trial,2900026.0,2900909.0,883.0,136,R,2900937,2901143,208,1353.5,428.1,3947,right
10,3,valuation,37,6,fixationCross,2902226.0,2903092.0,866.0,137,R,2901485,2901953,470,916.1,417.5,4303,NA
10,3,valuation,37,6,fixationCross,2902226.0,2903092.0,866.0,137,R,2901973,2902217,246,971.9,453.9,4043,NA
10,3,valuation,37,6,trial,2902226.0,2903092.0,866.0,137,R,2902231,2902493,264,934.7,477.3,3946,NA
10,3,valuation,37,6,trial,2902226.0,2903092.0,866.0,137,R,2902533,2903321,790,1249.9,508.0,3845,right
10,3,valuation,38,6,fixationCross,2904393.0,2905360.0,967.0,138,R,2903859,2904073,216,1478.8,513.1,3767,right
10,3,valuation,38,6,trial,2904393.0,2905360.0,967.0,138,R,2904133,2904583,452,921.7,457.9,3891,NA
10,3,valuation,38,6,trial,2904393.0,2905360.0,967.0,138,R,2904633,2904845,214,508.8,392.4,3701,likertVertical
10,3,valuation,38,6,trial,2904393.0,2905360.0,967.0,138,R,2904863,2904993,132,507.5,355.0,3684,likertVertical
10,3,valuation,38,6,postResponse,2904393.0,2905360.0,967.0,138,R,2905007,2905691,686,486.4,333.1,3769,likertVertical
10,3,valuation,39,6,fixationCross,2906659.0,2907493.0,834.0,139,R,2906071,2906385,316,824.7,475.7,4347,NA
10,3,valuation,39,6,trial,2906659.0,2907493.0,834.0,139,R,2906407,2907065,660,943.7,510.5,4173,NA
10,3,valuation,39,6,trial,2906659.0,2907493.0,834.0,139,R,2907115,2907365,252,532.0,427.9,4153,likertVertical
10,3,valuation,39,6,trial,2906659.0,2907493.0,834.0,139,R,2907389,2907735,348,508.2,321.1,4334,likertVertical
10,3,valuation,40,6,fixationCross,2908742.0,2909342.0,600.0,140,R,2908163,2908321,160,1317.9,522.6,4257,right
10,3,valuation,40,6,fixationCross,2908742.0,2909342.0,600.0,140,R,2908349,2908485,138,1120.2,504.4,4391,NA
10,3,valuation,40,6,trial,2908742.0,2909342.0,600.0,140,R,2908509,2908779,272,951.1,510.0,4287,NA
10,3,valuation,40,6,trial,2908742.0,2909342.0,600.0,140,R,2908807,2908955,150,795.7,416.7,4018,NA
10,3,valuation,40,6,trial,2908742.0,2909342.0,600.0,140,R,2909005,2909243,240,447.8,344.8,4021,likertVertical
10,3,valuation,40,6,trial,2908742.0,2909342.0,600.0,140,R,2909257,2909585,330,493.4,328.9,4044,likertVertical
10,3,valuation,41,6,fixationCross,2910509.0,2910893.0,384.0,141,R,2909939,2910155,218,1253.8,501.2,4134,right
10,3,valuation,41,6,postResponse,2910509.0,2910893.0,384.0,141,R,2910195,2911237,1044,1021.4,477.4,4108,NA
10,3,valuation,42,6,fixationCross,2911776.0,2912242.0,466.0,142,R,2911311,2911709,400,1028.8,473.7,4243,NA
10,3,valuation,42,6,postResponse,2911776.0,2912242.0,466.0,142,R,2911725,2912579,856,962.5,469.6,4287,NA
10,3,valuation,43,6,postResponse,2913126.0,2913609.0,483.0,143,R,2912655,2913943,1290,962.7,456.8,4284,NA
10,3,valuation,44,6,trial,2914626.0,2915192.0,566.0,144,R,2914353,2914781,430,898.3,469.9,4455,NA
10,3,valuation,44,6,trial,2914626.0,2915192.0,566.0,144,R,2914821,2915243,424,1298.8,533.8,3826,right
10,3,valuation,44,6,postResponse,2914626.0,2915192.0,566.0,144,R,2915273,2915537,266,1456.9,575.7,3494,right
10,3,valuation,45,7,fixationCross,2916459.0,2917076.0,617.0,145,R,2915993,2916055,64,1474.7,519.0,3691,right
10,3,valuation,45,7,fixationCross,2916459.0,2917076.0,617.0,145,R,2916087,2916173,88,1238.4,508.0,3919,right
10,3,valuation,45,7,fixationCross,2916459.0,2917076.0,617.0,145,R,2916195,2916321,128,1037.6,514.1,4060,NA
10,3,valuation,45,7,trial,2916459.0,2917076.0,617.0,145,R,2916337,2916639,304,962.1,514.9,3944,NA
10,3,valuation,45,7,trial,2916459.0,2917076.0,617.0,145,R,2916679,2916967,290,1219.4,514.6,3568,right
10,3,valuation,45,7,postResponse,2916459.0,2917076.0,617.0,145,R,2917031,2917421,392,517.2,285.9,3260,likertVertical
10,3,valuation,46,6,fixationCross,2918343.0,2918960.0,617.0,146,R,2917815,2917993,180,1395.4,494.1,3310,right
10,3,valuation,46,6,fixationCross,2918343.0,2918960.0,617.0,146,R,2918029,2918059,32,1186.9,484.6,3493,right
10,3,valuation,46,6,fixationCross,2918343.0,2918960.0,617.0,146,R,2918093,2918231,140,929.5,462.2,3645,NA
10,3,valuation,46,6,postResponse,2918343.0,2918960.0,617.0,146,R,2918245,2919277,1034,886.4,481.0,3497,NA
10,3,valuation,47,7,trial,2919809.0,2920426.0,617.0,147,R,2919367,2920035,670,958.2,498.0,3554,NA
10,3,valuation,47,7,trial,2919809.0,2920426.0,617.0,147,R,2920085,2920427,344,1353.4,502.6,3543,right
10,3,valuation,47,7,trial,2919809.0,2920426.0,617.0,147,R,2920455,2920701,248,1561.5,489.5,3378,right
10,3,valuation,47,7,postResponse,2919809.0,2920426.0,617.0,147,R,2920717,2920759,44,1495.7,474.2,3321,right
10,3,valuation,48,6,fixationCross,2924526.0,2925326.0,800.0,148,R,2920859,2921099,242,1501.3,486.8,3308,right
10,3,valuation,48,6,fixationCross,2924526.0,2925326.0,800.0,148,R,2921111,2921823,714,1443.7,513.8,3532,right
10,3,valuation,48,6,fixationCross,2924526.0,2925326.0,800.0,148,R,2921839,2924207,2370,1563.4,548.0,3671,right
