participantNo,block,task,blockTrial,response,trialStage,trialStartTime,trialFinishTime,rt,trial,eye,fixStart,fixEnd,fixLength,fixPosX,fixPosY,dilation,aoi
19,1,continuous,1,85,fixationCross,9039311.0,9043711.0,4400.0,1,R,9038778,9039180,404,1042.5,547.9,4403,NA
19,1,continuous,1,85,trial,9039311.0,9043711.0,4400.0,1,R,9039204,9039504,302,969.5,561.2,4511,NA
19,1,continuous,1,85,trial,9039311.0,9043711.0,4400.0,1,R,9039556,9039676,122,529.5,540.6,4511,left
19,1,continuous,1,85,trial,9039311.0,9043711.0,4400.0,1,R,9039702,9039868,168,578.5,522.0,4409,left
19,1,continuous,1,85,trial,9039311.0,9043711.0,4400.0,1,R,9039890,9040032,144,622.6,517.0,4317,left
19,1,continuous,1,85,trial,9039311.0,9043711.0,4400.0,1,R,9040090,9040340,252,1412.4,576.4,4198,right
19,1,continuous,1,85,trial,9039311.0,9043711.0,4400.0,1,R,9040362,9040576,216,1348.3,590.3,4272,right
19,1,continuous,1,85,trial,9039311.0,9043711.0,4400.0,1,R,9040606,9040806,202,1516.8,605.1,4225,right
19,1,continuous,1,85,trial,9039311.0,9043711.0,4400.0,1,R,9040860,9041154,296,574.4,522.2,4348,left
19,1,continuous,1,85,trial,9039311.0,9043711.0,4400.0,1,R,9041208,9042328,1122,1346.8,608.7,4448,right
19,1,continuous,1,85,trial,9039311.0,9043711.0,4400.0,1,R,9042372,9042494,124,1383.1,962.0,4539,NA
19,1,continuous,1,85,trial,9039311.0,9043711.0,4400.0,1,R,9042516,9042752,238,1460.5,1027.5,4510,NA
19,1,continuous,1,85,postResponse,9039311.0,9043711.0,4400.0,1,R,9042806,9044080,1276,1403.5,589.5,4347,right
19,1,continuous,2,1,fixationCross,9044844.0,9047428.0,2584.0,2,R,9044192,9044520,330,1232.0,543.3,4534,right
19,1,continuous,2,1,trial,9044844.0,9047428.0,2584.0,2,R,9044554,9045190,638,974.4,548.5,4624,NA
19,1,continuous,2,1,trial,9044844.0,9047428.0,2584.0,2,R,9045238,9045572,336,1408.0,603.7,4334,right
19,1,continuous,2,1,trial,9044844.0,9047428.0,2584.0,2,R,9045642,9045746,106,761.9,583.0,4260,NA
19,1,continuous,2,1,trial,9044844.0,9047428.0,2584.0,2,R,9045774,9046142,370,530.5,588.3,4173,left
19,1,continuous,2,1,trial,9044844.0,9047428.0,2584.0,2,R,9046180,9046436,258,820.2,773.3,4018,likertHorizontal
19,1,continuous,2,1,trial,9044844.0,9047428.0,2584.0,2,R,9046470,9047738,1270,568.5,597.2,4164,left
19,1,continuous,3,10,fixationCross,9048344.0,9051795.0,3451.0,3,R,9047852,9048226,376,1024.1,610.2,4393,NA
19,1,continuous,3,10,trial,9048344.0,9051795.0,3451.0,3,R,9048250,9048502,254,954.2,554.5,4482,NA
19,1,continuous,3,10,trial,9048344.0,9051795.0,3451.0,3,R,9048540,9048812,274,611.1,557.5,4421,left
19,1,continuous,3,10,trial,9048344.0,9051795.0,3451.0,3,R,9048832,9049012,182,557.6,558.1,4235,left
19,1,continuous,3,10,trial,9048344.0,9051795.0,3451.0,3,R,9049068,9049210,144,1449.7,593.3,4063,right
19,1,continuous,3,10,trial,9048344.0,9051795.0,3451.0,3,R,9049234,9049412,180,1514.0,596.3,4033,right
19,1,continuous,3,10,trial,9048344.0,9051795.0,3451.0,3,R,9049424,9049716,294,1482.2,588.2,4012,right
19,1,continuous,3,10,trial,9048344.0,9051795.0,3451.0,3,R,9049742,9049870,130,1284.0,511.4,3975,right
19,1,continuous,3,10,trial,9048344.0,9051795.0,3451.0,3,R,9049918,9050184,268,617.6,552.8,4026,left
19,1,continuous,3,10,trial,9048344.0,9051795.0,3451.0,3,R,9050212,9050504,294,439.0,586.3,4125,left
19,1,continuous,3,10,trial,9048344.0,9051795.0,3451.0,3,R,9050564,9051254,692,570.8,984.2,4252,NA
19,1,continuous,3,10,trial,9048344.0,9051795.0,3451.0,3,R,9051302,9051574,274,548.8,545.7,4206,left
19,1,continuous,3,10,postResponse,9048344.0,9051795.0,3451.0,3,R,9051604,9052136,534,651.1,563.6,4200,left
19,1,continuous,4,89,fixationCross,9052677.0,9056244.0,3567.0,4,R,9052212,9052280,70,653.5,561.5,4287,left
19,1,continuous,4,89,trial,9052677.0,9056244.0,3567.0,4,R,9052322,9052758,438,989.2,601.3,4401,NA
19,1,continuous,4,89,trial,9052677.0,9056244.0,3567.0,4,R,9052778,9052914,138,960.6,555.4,4381,NA
19,1,continuous,4,89,trial,9052677.0,9056244.0,3567.0,4,R,9052966,9053274,310,520.2,549.0,4279,left
19,1,continuous,4,89,trial,9052677.0,9056244.0,3567.0,4,R,9053300,9053410,112,586.9,466.6,4143,left
19,1,continuous,4,89,trial,9052677.0,9056244.0,3567.0,4,R,9053464,9053724,262,1440.6,520.4,3991,right
19,1,continuous,4,89,trial,9052677.0,9056244.0,3567.0,4,R,9053754,9053918,166,1604.0,547.5,4011,right
19,1,continuous,4,89,trial,9052677.0,9056244.0,3567.0,4,R,9053934,9054234,302,1639.9,561.9,4091,right
19,1,continuous,4,89,trial,9052677.0,9056244.0,3567.0,4,R,9054268,9054772,506,1288.9,544.8,4158,right
19,1,continuous,4,89,trial,9052677.0,9056244.0,3567.0,4,R,9054798,9055126,330,1334.7,638.2,4276,right
19,1,continuous,4,89,trial,9052677.0,9056244.0,3567.0,4,R,9055188,9055580,394,585.3,563.8,4359,left
19,1,continuous,4,89,postResponse,9052677.0,9056244.0,3567.0,4,R,9055640,9056582,944,1334.5,720.7,4269,right
19,1,continuous,5,58,fixationCross,9057328.0,9060978.0,3650.0,5,R,9056678,9057026,350,1191.1,555.9,4366,right
19,1,continuous,5,58,trial,9057328.0,9060978.0,3650.0,5,R,9057054,9057538,486,984.9,544.0,4435,NA
19,1,continuous,5,58,trial,9057328.0,9060978.0,3650.0,5,R,9057578,9057780,204,1399.7,549.4,4321,right
19,1,continuous,5,58,trial,9057328.0,9060978.0,3650.0,5,R,9057802,9057998,198,1481.8,521.7,4182,right
19,1,continuous,5,58,trial,9057328.0,9060978.0,3650.0,5,R,9058026,9058270,246,1665.9,470.7,3982,right
19,1,continuous,5,58,trial,9057328.0,9060978.0,3650.0,5,R,9058334,9058574,242,550.7,530.7,4107,left
19,1,continuous,5,58,trial,9057328.0,9060978.0,3650.0,5,R,9058598,9059306,710,538.0,456.9,4128,left
19,1,continuous,5,58,trial,9057328.0,9060978.0,3650.0,5,R,9059368,9059650,284,1515.4,512.4,4178,right
19,1,continuous,5,58,trial,9057328.0,9060978.0,3650.0,5,R,9059666,9059852,188,1472.0,513.4,4139,right
19,1,continuous,5,58,trial,9057328.0,9060978.0,3650.0,5,R,9059880,9060114,236,1646.8,471.9,3997,right
19,1,continuous,5,58,postResponse,9057328.0,9060978.0,3650.0,5,R,9060164,9061318,1156,1256.6,720.3,4244,right
19,1,continuous,6,82,fixationCross,9061878.0,9065361.0,3483.0,6,R,9061392,9061438,48,1249.1,719.3,4401,right
19,1,continuous,6,82,fixationCross,9061878.0,9065361.0,3483.0,6,R,9061478,9061744,268,1044.8,566.2,4475,NA
19,1,continuous,6,82,trial,9061878.0,9065361.0,3483.0,6,R,9061766,9062030,266,959.1,547.7,4461,NA
19,1,continuous,6,82,trial,9061878.0,9065361.0,3483.0,6,R,9062074,9062444,372,549.9,553.3,4301,left
19,1,continuous,6,82,trial,9061878.0,9065361.0,3483.0,6,R,9062502,9062686,186,1497.3,521.5,3935,right
19,1,continuous,6,82,trial,9061878.0,9065361.0,3483.0,6,R,9062710,9062982,274,1599.1,501.2,3846,right
19,1,continuous,6,82,trial,9061878.0,9065361.0,3483.0,6,R,9062998,9063364,368,1564.9,464.6,3812,right
19,1,continuous,6,82,trial,9061878.0,9065361.0,3483.0,6,R,9063400,9063658,260,1389.1,601.4,4036,right
19,1,continuous,6,82,trial,9061878.0,9065361.0,3483.0,6,R,9063684,9063888,206,1288.8,721.5,4161,right
19,1,continuous,6,82,trial,9061878.0,9065361.0,3483.0,6,R,9063918,9064128,212,1316.1,943.6,4293,NA
19,1,continuous,6,82,trial,9061878.0,9065361.0,3483.0,6,R,9064212,9065150,940,551.3,605.7,4192,left
19,1,continuous,6,82,postResponse,9061878.0,9065361.0,3483.0,6,R,9065204,9065696,494,1258.0,803.0,4078,NA
19,1,continuous,7,26,fixationCross,9066411.0,9069728.0,3317.0,7,R,9065796,9066078,284,980.0,596.4,4296,NA
19,1,continuous,7,26,fixationCross,9066411.0,9069728.0,3317.0,7,R,9066104,9066278,176,832.5,488.3,4289,NA
19,1,continuous,7,26,trial,9066411.0,9069728.0,3317.0,7,R,9066312,9066578,268,954.9,529.1,4318,NA
19,1,continuous,7,26,trial,9066411.0,9069728.0,3317.0,7,R,9066616,9066858,244,622.6,543.1,4358,left
19,1,continuous,7,26,trial,9066411.0,9069728.0,3317.0,7,R,9066886,9067386,502,548.4,695.6,4234,left
19,1,continuous,7,26,trial,9066411.0,9069728.0,3317.0,7,R,9067398,9067692,296,586.2,702.8,4170,left
19,1,continuous,7,26,trial,9066411.0,9069728.0,3317.0,7,R,9067714,9067970,258,520.3,706.4,4220,left
19,1,continuous,7,26,trial,9066411.0,9069728.0,3317.0,7,R,9067994,9068336,344,588.3,705.1,4181,left
19,1,continuous,7,26,trial,9066411.0,9069728.0,3317.0,7,R,9068390,9068580,192,1444.1,563.7,4061,right
19,1,continuous,7,26,trial,9066411.0,9069728.0,3317.0,7,R,9068600,9068852,254,1463.5,516.0,4060,right
19,1,continuous,7,26,trial,9066411.0,9069728.0,3317.0,7,R,9068878,9069078,202,1587.9,629.4,4053,right
19,1,continuous,7,26,trial,9066411.0,9069728.0,3317.0,7,R,9069172,9069522,352,584.6,553.5,4189,left
19,1,continuous,7,26,trial,9066411.0,9069728.0,3317.0,7,R,9069552,9069978,428,402.9,471.0,4116,left
19,1,continuous,7,26,postResponse,9066411.0,9069728.0,3317.0,7,R,9070028,9070062,36,1049.8,647.6,4097,NA
19,1,continuous,8,30,fixationCross,9070778.0,9072778.0,2000.0,8,R,9070136,9070470,336,1041.0,659.0,4248,NA
19,1,continuous,8,30,trial,9070778.0,9072778.0,2000.0,8,R,9070502,9070942,442,917.1,533.0,4384,NA
19,1,continuous,8,30,trial,9070778.0,9072778.0,2000.0,8,R,9070994,9071452,460,537.8,621.4,4310,left
19,1,continuous,8,30,trial,9070778.0,9072778.0,2000.0,8,R,9071508,9071994,488,1438.4,541.5,4116,right
19,1,continuous,8,30,trial,9070778.0,9072778.0,2000.0,8,R,9072014,9072176,164,1351.6,541.5,3972,right
19,1,continuous,8,30,trial,9070778.0,9072778.0,2000.0,8,R,9072222,9072502,282,903.6,813.4,3986,likertHorizontal
19,1,continuous,8,30,postResponse,9070778.0,9072778.0,2000.0,8,R,9072540,9073114,576,581.7,667.2,4119,left
19,1,continuous,9,79,fixationCross,9073778.0,9076311.0,2533.0,9,R,9073220,9073470,252,1079.9,559.8,4155,NA
19,1,continuous,9,79,trial,9073778.0,9076311.0,2533.0,9,R,9073494,9073924,432,947.5,529.6,4337,NA
19,1,continuous,9,79,trial,9073778.0,9076311.0,2533.0,9,R,9073960,9074086,128,1327.7,522.8,4336,right
19,1,continuous,9,79,trial,9073778.0,9076311.0,2533.0,9,R,9074128,9074486,360,1541.5,554.6,4149,right
19,1,continuous,9,79,trial,9073778.0,9076311.0,2533.0,9,R,9074512,9074630,120,1369.1,510.9,4086,right
19,1,continuous,9,79,trial,9073778.0,9076311.0,2533.0,9,R,9074686,9074880,196,530.1,608.2,4142,left
19,1,continuous,9,79,trial,9073778.0,9076311.0,2533.0,9,R,9074902,9075530,630,512.4,545.1,4117,left
19,1,continuous,9,79,postResponse,9073778.0,9076311.0,2533.0,9,R,9075590,9076642,1054,1519.0,583.8,4088,right
19,1,continuous,10,76,fixationCross,9077261.0,9079861.0,2600.0,10,R,9076730,9076952,224,1171.5,558.0,4249,NA
19,1,continuous,10,76,trial,9077261.0,9079861.0,2600.0,10,R,9076980,9077408,430,936.8,514.2,4334,NA
19,1,continuous,10,76,trial,9077261.0,9079861.0,2600.0,10,R,9077460,9077830,372,512.3,557.3,4367,left
19,1,continuous,10,76,trial,9077261.0,9079861.0,2600.0,10,R,9077886,9078094,210,1381.4,616.3,4055,right
19,1,continuous,10,76,trial,9077261.0,9079861.0,2600.0,10,R,9078118,9078354,238,1453.6,653.9,4035,right
19,1,continuous,10,76,trial,9077261.0,9079861.0,2600.0,10,R,9078412,9078722,312,537.1,586.9,4172,left
19,1,continuous,10,76,trial,9077261.0,9079861.0,2600.0,10,R,9078742,9078986,246,468.1,568.5,4156,left
19,1,continuous,10,76,postResponse,9077261.0,9079861.0,2600.0,10,R,9079050,9080194,1146,1388.9,644.9,4111,right
19,1,continuous,11,31,fixationCross,9080878.0,9083629.0,2751.0,11,R,9080268,9080290,24,1381.9,645.9,4301,right
19,1,continuous,11,31,fixationCross,9080878.0,9083629.0,2751.0,11,R,9080328,9080580,254,1066.1,583.5,4470,NA
19,1,continuous,11,31,trial,9080878.0,9083629.0,2751.0,11,R,9080614,9081032,420,954.7,525.2,4444,NA
19,1,continuous,11,31,trial,9080878.0,9083629.0,2751.0,11,R,9081068,9081282,216,602.0,544.4,4413,left
19,1,continuous,11,31,trial,9080878.0,9083629.0,2751.0,11,R,9081306,9081478,174,551.8,496.3,4257,left
19,1,continuous,11,31,trial,9080878.0,9083629.0,2751.0,11,R,9081504,9081738,236,409.2,474.8,4132,left
19,1,continuous,11,31,trial,9080878.0,9083629.0,2751.0,11,R,9081772,9081870,100,580.1,450.4,4099,left
19,1,continuous,11,31,trial,9080878.0,9083629.0,2751.0,11,R,9081930,9082098,170,1501.8,592.0,4093,right
19,1,continuous,11,31,trial,9080878.0,9083629.0,2751.0,11,R,9082122,9082338,218,1585.3,584.6,4129,right
19,1,continuous,11,31,trial,9080878.0,9083629.0,2751.0,11,R,9082366,9082522,158,1411.8,576.9,4131,right
19,1,continuous,11,31,postResponse,9080878.0,9083629.0,2751.0,11,R,9082576,9083964,1390,579.9,513.7,4252,left
19,1,continuous,12,71,fixationCross,9084778.0,9088211.0,3433.0,12,R,9084064,9084266,204,915.0,601.1,4343,NA
19,1,continuous,12,71,fixationCross,9084778.0,9088211.0,3433.0,12,R,9084296,9084514,220,773.3,527.3,4417,NA
19,1,continuous,12,71,trial,9084778.0,9088211.0,3433.0,12,R,9084556,9084818,264,982.7,543.1,4357,NA
19,1,continuous,12,71,trial,9084778.0,9088211.0,3433.0,12,R,9084830,9084940,112,950.5,541.7,4311,NA
19,1,continuous,12,71,trial,9084778.0,9088211.0,3433.0,12,R,9084986,9085218,234,504.7,543.6,4236,left
19,1,continuous,12,71,trial,9084778.0,9088211.0,3433.0,12,R,9085244,9085452,210,575.0,454.2,4091,left
19,1,continuous,12,71,trial,9084778.0,9088211.0,3433.0,12,R,9085508,9085960,454,1409.9,550.0,4104,right
19,1,continuous,12,71,trial,9084778.0,9088211.0,3433.0,12,R,9085988,9086142,156,1484.5,626.1,4278,right
19,1,continuous,12,71,trial,9084778.0,9088211.0,3433.0,12,R,9086202,9086536,336,524.8,490.3,4315,left
19,1,continuous,12,71,trial,9084778.0,9088211.0,3433.0,12,R,9086604,9087432,830,1470.4,571.9,4117,right
19,1,continuous,12,71,trial,9084778.0,9088211.0,3433.0,12,R,9087452,9087986,536,1432.1,619.0,4203,right
19,1,continuous,12,71,trial,9084778.0,9088211.0,3433.0,12,R,9088006,9088440,436,1466.0,625.5,4167,right
19,1,continuous,13,40,fixationCross,9089295.0,9092129.0,2834.0,13,R,9088634,9088964,332,1074.2,619.4,4290,NA
19,1,continuous,13,40,trial,9089295.0,9092129.0,2834.0,13,R,9088988,9089440,454,969.1,545.1,4254,NA
19,1,continuous,13,40,trial,9089295.0,9092129.0,2834.0,13,R,9089484,9089626,144,547.9,508.6,4104,left
19,1,continuous,13,40,trial,9089295.0,9092129.0,2834.0,13,R,9089650,9090160,512,447.8,476.9,3929,left
19,1,continuous,13,40,trial,9089295.0,9092129.0,2834.0,13,R,9090214,9090364,152,1294.0,440.7,3856,right
19,1,continuous,13,40,trial,9089295.0,9092129.0,2834.0,13,R,9090386,9090810,426,1346.3,445.5,3910,right
19,1,continuous,13,40,trial,9089295.0,9092129.0,2834.0,13,R,9090862,9091062,202,551.1,495.5,4081,left
19,1,continuous,13,40,trial,9089295.0,9092129.0,2834.0,13,R,9091086,9091356,272,453.4,489.8,4049,left
19,1,continuous,13,40,trial,9089295.0,9092129.0,2834.0,13,R,9091414,9091656,244,1389.4,478.4,3967,right
19,1,continuous,13,40,trial,9089295.0,9092129.0,2834.0,13,R,9091672,9091944,274,1351.6,456.7,4007,right
19,1,continuous,13,40,trial,9089295.0,9092129.0,2834.0,13,R,9091998,9092374,378,632.4,503.4,4058,left
19,1,continuous,14,73,fixationCross,9093245.0,9096078.0,2833.0,14,R,9092540,9092726,188,835.6,662.2,4150,NA
19,1,continuous,14,73,fixationCross,9093245.0,9096078.0,2833.0,14,R,9092752,9092950,200,805.7,540.1,4273,NA
19,1,continuous,14,73,trial,9093245.0,9096078.0,2833.0,14,R,9092988,9093388,402,969.4,542.1,4340,NA
19,1,continuous,14,73,trial,9093245.0,9096078.0,2833.0,14,R,9093430,9093642,214,570.0,530.9,4290,left
19,1,continuous,14,73,trial,9093245.0,9096078.0,2833.0,14,R,9093660,9093770,112,510.4,537.6,4228,left
19,1,continuous,14,73,trial,9093245.0,9096078.0,2833.0,14,R,9093826,9094094,270,1440.2,469.1,4060,right
19,1,continuous,14,73,trial,9093245.0,9096078.0,2833.0,14,R,9094124,9094298,176,1290.0,388.7,4053,right
19,1,continuous,14,73,trial,9093245.0,9096078.0,2833.0,14,R,9094338,9094644,308,1532.0,409.6,4051,right
19,1,continuous,14,73,trial,9093245.0,9096078.0,2833.0,14,R,9094672,9095062,392,1456.8,540.9,4151,right
19,1,continuous,14,73,trial,9093245.0,9096078.0,2833.0,14,R,9095120,9095444,326,1002.0,908.3,4321,likertHorizontal
19,1,continuous,14,73,trial,9093245.0,9096078.0,2833.0,14,R,9095478,9095628,152,1153.3,960.3,4333,likertHorizontal
19,1,continuous,14,73,trial,9093245.0,9096078.0,2833.0,14,R,9095660,9095996,338,1433.2,1011.2,4197,NA
19,1,continuous,14,73,trial,9093245.0,9096078.0,2833.0,14,R,9096046,9096344,300,1446.3,527.4,4096,right
19,1,continuous,14,73,postResponse,9093245.0,9096078.0,2833.0,14,R,9096388,9096428,42,1157.7,617.7,4171,NA
19,1,continuous,15,87,fixationCross,9097162.0,9100028.0,2866.0,15,R,9096504,9096624,122,1154.4,621.5,4293,NA
19,1,continuous,15,87,fixationCross,9097162.0,9100028.0,2866.0,15,R,9096660,9096858,200,853.1,538.7,4446,NA
19,1,continuous,15,87,fixationCross,9097162.0,9100028.0,2866.0,15,R,9096896,9097052,158,971.0,550.8,4448,NA
19,1,continuous,15,87,trial,9097162.0,9100028.0,2866.0,15,R,9097218,9097352,136,977.0,549.6,4426,NA
19,1,continuous,15,87,trial,9097162.0,9100028.0,2866.0,15,R,9097406,9097710,306,460.8,553.4,4486,left
19,1,continuous,15,87,trial,9097162.0,9100028.0,2866.0,15,R,9097738,9098098,362,665.5,563.9,4128,left
19,1,continuous,15,87,trial,9097162.0,9100028.0,2866.0,15,R,9098150,9098734,586,1432.8,575.9,4204,right
19,1,continuous,15,87,trial,9097162.0,9100028.0,2866.0,15,R,9098802,9099048,248,584.3,614.7,4568,left
19,1,continuous,15,87,trial,9097162.0,9100028.0,2866.0,15,R,9099074,9099192,120,491.5,567.7,4426,left
19,1,continuous,15,87,postResponse,9097162.0,9100028.0,2866.0,15,R,9099248,9100366,1120,1384.9,560.0,4251,right
19,1,continuous,16,23,fixationCross,9101078.0,9104162.0,3084.0,16,R,9100488,9100774,288,1135.1,530.5,4557,NA
19,1,continuous,16,23,trial,9101078.0,9104162.0,3084.0,16,R,9100800,9101318,520,969.1,553.7,4669,NA
19,1,continuous,16,23,trial,9101078.0,9104162.0,3084.0,16,R,9101374,9101740,368,519.6,517.3,4427,left
19,1,continuous,16,23,trial,9101078.0,9104162.0,3084.0,16,R,9101766,9101880,116,604.5,530.1,4256,left
19,1,continuous,16,23,trial,9101078.0,9104162.0,3084.0,16,R,9101936,9102270,336,1518.6,542.6,4035,right
19,1,continuous,16,23,trial,9101078.0,9104162.0,3084.0,16,R,9102292,9102448,158,1571.8,494.6,3950,right
19,1,continuous,16,23,trial,9101078.0,9104162.0,3084.0,16,R,9102476,9102692,218,1345.0,519.7,3917,right
19,1,continuous,16,23,trial,9101078.0,9104162.0,3084.0,16,R,9102742,9102948,208,632.7,545.8,3992,left
19,1,continuous,16,23,trial,9101078.0,9104162.0,3084.0,16,R,9102972,9103650,680,537.4,556.0,4091,left
19,1,continuous,16,23,postResponse,9101078.0,9104162.0,3084.0,16,R,9103694,9104496,804,711.8,910.1,4235,NA
19,1,continuous,17,75,fixationCross,9105094.0,9106945.0,1851.0,17,R,9104596,9104746,152,1144.7,599.0,4287,NA
19,1,continuous,17,75,fixationCross,9105094.0,9106945.0,1851.0,17,R,9104772,9105070,300,983.8,554.3,4419,NA
19,1,continuous,17,75,trial,9105094.0,9106945.0,1851.0,17,R,9105080,9105234,156,960.5,553.4,4469,NA
19,1,continuous,17,75,trial,9105094.0,9106945.0,1851.0,17,R,9105284,9105646,364,555.7,532.1,4310,left
19,1,continuous,17,75,trial,9105094.0,9106945.0,1851.0,17,R,9105672,9105808,138,629.6,565.9,4102,left
19,1,continuous,17,75,trial,9105094.0,9106945.0,1851.0,17,R,9105862,9106116,256,1531.5,568.5,3962,right
19,1,continuous,17,75,trial,9105094.0,9106945.0,1851.0,17,R,9106130,9106236,108,1560.0,565.3,3941,right
19,1,continuous,17,75,postResponse,9105094.0,9106945.0,1851.0,17,R,9106258,9107280,1024,1443.8,531.6,3913,right
19,1,continuous,18,2,fixationCross,9108028.0,9110262.0,2234.0,18,R,9107380,9107710,332,1265.2,510.7,4212,right
19,1,continuous,18,2,trial,9108028.0,9110262.0,2234.0,18,R,9107738,9108176,440,1028.1,527.0,4403,NA
19,1,continuous,18,2,trial,9108028.0,9110262.0,2234.0,18,R,9108230,9108540,312,548.6,520.7,4382,left
19,1,continuous,18,2,trial,9108028.0,9110262.0,2234.0,18,R,9108554,9108704,152,503.3,541.0,4224,left
19,1,continuous,18,2,trial,9108028.0,9110262.0,2234.0,18,R,9108756,9109060,306,1334.8,551.9,4070,right
19,1,continuous,18,2,trial,9108028.0,9110262.0,2234.0,18,R,9109108,9109484,378,714.2,547.3,4103,left
19,1,continuous,18,2,trial,9108028.0,9110262.0,2234.0,18,R,9109514,9110062,550,525.9,541.3,4193,left
19,1,continuous,18,2,trial,9108028.0,9110262.0,2234.0,18,R,9110106,9110542,438,487.4,968.7,4310,NA
19,1,continuous,19,10,fixationCross,9111146.0,9113845.0,2699.0,19,R,9110674,9111138,466,927.3,564.1,4316,NA
19,1,continuous,19,10,trial,9111146.0,9113845.0,2699.0,19,R,9111164,9111344,182,964.5,546.3,4414,NA
19,1,continuous,19,10,trial,9111146.0,9113845.0,2699.0,19,R,9111370,9111430,62,861.1,507.1,4375,NA
19,1,continuous,19,10,trial,9111146.0,9113845.0,2699.0,19,R,9111460,9111620,162,653.6,515.9,4296,left
19,1,continuous,19,10,trial,9111146.0,9113845.0,2699.0,19,R,9111640,9111886,248,555.6,535.4,4260,left
19,1,continuous,19,10,trial,9111146.0,9113845.0,2699.0,19,R,9111908,9112122,216,451.2,541.6,4181,left
19,1,continuous,19,10,trial,9111146.0,9113845.0,2699.0,19,R,9112156,9112368,214,596.2,487.4,4051,left
19,1,continuous,19,10,trial,9111146.0,9113845.0,2699.0,19,R,9112416,9112564,150,1295.4,470.3,3927,right
19,1,continuous,19,10,trial,9111146.0,9113845.0,2699.0,19,R,9112586,9112972,388,1376.0,449.0,3977,right
19,1,continuous,19,10,trial,9111146.0,9113845.0,2699.0,19,R,9113024,9114108,1086,685.8,916.8,4309,NA
19,1,continuous,20,78,fixationCross,9114811.0,9117879.0,3068.0,20,R,9114256,9114504,250,1157.1,582.7,4344,NA
19,1,continuous,20,78,fixationCross,9114811.0,9117879.0,3068.0,20,R,9114530,9114770,242,982.9,510.6,4427,NA
19,1,continuous,20,78,trial,9114811.0,9117879.0,3068.0,20,R,9114790,9114954,166,955.4,546.6,4405,NA
19,1,continuous,20,78,trial,9114811.0,9117879.0,3068.0,20,R,9115008,9115198,192,510.5,533.6,4379,left
19,1,continuous,20,78,trial,9114811.0,9117879.0,3068.0,20,R,9115220,9115602,384,554.7,511.4,4085,left
19,1,continuous,20,78,trial,9114811.0,9117879.0,3068.0,20,R,9115656,9116142,488,1428.7,601.7,3878,right
19,1,continuous,20,78,trial,9114811.0,9117879.0,3068.0,20,R,9116164,9116508,346,1344.7,584.7,3920,right
19,1,continuous,20,78,trial,9114811.0,9117879.0,3068.0,20,R,9116532,9116746,216,1494.1,560.3,3932,right
19,1,continuous,20,78,trial,9114811.0,9117879.0,3068.0,20,R,9116772,9117080,310,1602.4,553.7,3972,right
19,1,continuous,20,78,trial,9114811.0,9117879.0,3068.0,20,R,9117096,9117460,366,1643.0,553.0,4052,right
19,1,continuous,20,78,postResponse,9114811.0,9117879.0,3068.0,20,R,9117498,9118214,718,1250.0,634.2,4309,right
19,1,continuous,21,26,fixationCross,9118762.0,9120912.0,2150.0,21,R,9118288,9118398,112,1245.6,628.3,4347,right
19,1,continuous,21,26,trial,9118762.0,9120912.0,2150.0,21,R,9118432,9118910,480,949.4,532.5,4397,NA
19,1,continuous,21,26,trial,9118762.0,9120912.0,2150.0,21,R,9118952,9119108,158,601.2,552.9,4425,left
19,1,continuous,21,26,trial,9118762.0,9120912.0,2150.0,21,R,9119134,9119302,170,466.2,441.3,4268,left
19,1,continuous,21,26,trial,9118762.0,9120912.0,2150.0,21,R,9119326,9119534,210,500.3,387.5,4073,left
19,1,continuous,21,26,trial,9118762.0,9120912.0,2150.0,21,R,9119594,9119904,312,1413.8,519.4,3874,right
19,1,continuous,21,26,trial,9118762.0,9120912.0,2150.0,21,R,9119926,9120096,172,1496.3,542.2,3955,right
19,1,continuous,21,26,trial,9118762.0,9120912.0,2150.0,21,R,9120150,9120278,130,800.4,576.8,4125,NA
19,1,continuous,21,26,postResponse,9118762.0,9120912.0,2150.0,21,R,9120304,9121248,946,619.1,593.2,4147,left
19,1,continuous,22,38,fixationCross,9122079.0,9125712.0,3633.0,22,R,9121324,9121478,156,627.2,600.6,4289,left
19,1,continuous,22,38,fixationCross,9122079.0,9125712.0,3633.0,22,R,9121504,9121778,276,726.4,539.9,4331,left
19,1,continuous,22,38,trial,9122079.0,9125712.0,3633.0,22,R,9121816,9122226,412,965.7,542.3,4366,NA
19,1,continuous,22,38,trial,9122079.0,9125712.0,3633.0,22,R,9122262,9122550,290,612.7,555.3,4326,left
19,1,continuous,22,38,trial,9122079.0,9125712.0,3633.0,22,R,9122576,9122746,172,420.6,551.7,4096,left
19,1,continuous,22,38,trial,9122079.0,9125712.0,3633.0,22,R,9122806,9123080,276,1447.8,519.1,3897,right
19,1,continuous,22,38,trial,9122079.0,9125712.0,3633.0,22,R,9123100,9123264,166,1464.8,468.3,3874,right
19,1,continuous,22,38,trial,9122079.0,9125712.0,3633.0,22,R,9123290,9123776,488,1585.4,541.2,3870,right
19,1,continuous,22,38,trial,9122079.0,9125712.0,3633.0,22,R,9123794,9123994,202,1640.2,532.0,3867,right
19,1,continuous,22,38,trial,9122079.0,9125712.0,3633.0,22,R,9124028,9124382,356,1348.9,530.4,3950,right
19,1,continuous,22,38,trial,9122079.0,9125712.0,3633.0,22,R,9124444,9125064,622,480.5,557.8,4134,left
19,1,continuous,22,38,postResponse,9122079.0,9125712.0,3633.0,22,R,9125102,9126046,946,688.2,567.6,4169,left
19,1,continuous,23,7,fixationCross,9126595.0,9129779.0,3184.0,23,R,9126122,9126216,96,687.3,573.6,4294,left
19,1,continuous,23,7,trial,9126595.0,9129779.0,3184.0,23,R,9126250,9126638,390,913.2,542.0,4350,NA
19,1,continuous,23,7,trial,9126595.0,9129779.0,3184.0,23,R,9126662,9126784,124,967.3,545.0,4372,NA
19,1,continuous,23,7,trial,9126595.0,9129779.0,3184.0,23,R,9126826,9127082,258,552.5,548.3,4284,left
19,1,continuous,23,7,trial,9126595.0,9129779.0,3184.0,23,R,9127102,9127254,154,509.8,533.7,4142,left
19,1,continuous,23,7,trial,9126595.0,9129779.0,3184.0,23,R,9127298,9127524,228,464.3,928.7,4136,NA
19,1,continuous,23,7,trial,9126595.0,9129779.0,3184.0,23,R,9127562,9127796,236,458.6,533.3,4137,left
19,1,continuous,23,7,trial,9126595.0,9129779.0,3184.0,23,R,9127828,9128250,424,555.8,535.4,4083,left
19,1,continuous,23,7,trial,9126595.0,9129779.0,3184.0,23,R,9128304,9128706,404,1445.4,544.1,4020,right
19,1,continuous,23,7,trial,9126595.0,9129779.0,3184.0,23,R,9128762,9128958,198,792.4,902.3,4060,likertHorizontal
19,1,continuous,23,7,trial,9126595.0,9129779.0,3184.0,23,R,9128990,9129422,434,449.5,986.6,4105,NA
19,1,continuous,23,7,trial,9126595.0,9129779.0,3184.0,23,R,9129446,9129606,162,510.0,976.1,4119,NA
19,1,continuous,23,7,trial,9126595.0,9129779.0,3184.0,23,R,9129648,9130012,366,503.3,571.2,4000,left
19,1,continuous,24,80,fixationCross,9130846.0,9133795.0,2949.0,24,R,9130214,9130550,338,705.9,546.2,4273,left
19,1,continuous,24,80,trial,9130846.0,9133795.0,2949.0,24,R,9130592,9130992,402,949.4,546.8,4262,NA
19,1,continuous,24,80,trial,9130846.0,9133795.0,2949.0,24,R,9131032,9131220,190,545.2,547.8,4226,left
19,1,continuous,24,80,trial,9130846.0,9133795.0,2949.0,24,R,9131230,9132014,786,515.0,532.9,4069,left
19,1,continuous,24,80,trial,9130846.0,9133795.0,2949.0,24,R,9132072,9132322,252,1430.7,572.9,4092,right
19,1,continuous,24,80,trial,9130846.0,9133795.0,2949.0,24,R,9132344,9133464,1122,1358.7,582.3,4141,right
19,1,continuous,24,80,postResponse,9130846.0,9133795.0,2949.0,24,R,9133518,9134130,614,544.6,563.6,4246,left
19,1,continuous,25,81,fixationCross,9134879.0,9137129.0,2250.0,25,R,9134256,9134260,6,842.6,517.0,4296,NA
19,1,continuous,25,81,fixationCross,9134879.0,9137129.0,2250.0,25,R,9134264,9134582,320,846.5,521.0,4343,NA
19,1,continuous,25,81,fixationCross,9134879.0,9137129.0,2250.0,25,R,9134610,9134874,266,942.3,539.1,4363,NA
19,1,continuous,25,81,trial,9134879.0,9137129.0,2250.0,25,R,9134906,9135042,138,680.3,512.3,4339,left
19,1,continuous,25,81,trial,9134879.0,9137129.0,2250.0,25,R,9135070,9135358,290,522.0,540.9,4258,left
19,1,continuous,25,81,trial,9134879.0,9137129.0,2250.0,25,R,9135416,9135786,372,1444.1,577.5,4015,right
19,1,continuous,25,81,trial,9134879.0,9137129.0,2250.0,25,R,9135812,9136050,240,1398.6,704.2,4022,right
19,1,continuous,25,81,trial,9134879.0,9137129.0,2250.0,25,R,9136108,9136402,296,482.8,565.5,4021,left
19,1,continuous,25,81,trial,9134879.0,9137129.0,2250.0,25,R,9136460,9136896,438,1369.5,559.3,3930,right
19,1,continuous,25,81,trial,9134879.0,9137129.0,2250.0,25,R,9136938,9137390,454,1280.3,941.2,4061,NA
19,1,continuous,26,6,fixationCross,9169162.0,9171213.0,2051.0,26,R,9168600,9168776,178,241.4,30.8,4100,NA
19,1,continuous,26,6,fixationCross,9169162.0,9171213.0,2051.0,26,R,9168856,9169040,186,869.5,533.6,4087,NA
19,1,continuous,26,6,trial,9169162.0,9171213.0,2051.0,26,R,9169066,9169336,272,950.2,541.1,4174,NA
19,1,continuous,26,6,trial,9169162.0,9171213.0,2051.0,26,R,9169378,9169734,358,536.7,537.6,4178,left
19,1,continuous,26,6,trial,9169162.0,9171213.0,2051.0,26,R,9169790,9170102,314,1449.4,511.6,3875,right
19,1,continuous,26,6,trial,9169162.0,9171213.0,2051.0,26,R,9170156,9170468,314,591.2,519.8,3994,left
19,1,continuous,26,6,trial,9169162.0,9171213.0,2051.0,26,R,9170492,9170888,398,534.8,587.3,4071,left
19,1,continuous,26,6,trial,9169162.0,9171213.0,2051.0,26,R,9170934,9171476,544,537.4,970.5,4132,NA
19,1,continuous,27,82,trial,9172096.0,9174563.0,2467.0,27,R,9171622,9172240,620,936.7,522.6,4275,NA
19,1,continuous,27,82,trial,9172096.0,9174563.0,2467.0,27,R,9172280,9172534,256,586.6,554.1,4309,left
19,1,continuous,27,82,trial,9172096.0,9174563.0,2467.0,27,R,9172598,9172916,320,1452.5,526.2,4058,right
19,1,continuous,27,82,trial,9172096.0,9174563.0,2467.0,27,R,9172926,9173202,278,1430.0,545.3,4083,right
19,1,continuous,27,82,trial,9172096.0,9174563.0,2467.0,27,R,9173256,9173504,250,566.4,545.8,4133,left
19,1,continuous,27,82,trial,9172096.0,9174563.0,2467.0,27,R,9173526,9173848,324,519.3,502.4,4067,left
19,1,continuous,27,82,postResponse,9172096.0,9174563.0,2467.0,27,R,9173904,9174896,994,1434.3,582.5,4046,right
19,1,continuous,28,72,fixationCross,9175595.0,9178496.0,2901.0,28,R,9175012,9175288,278,1235.7,513.9,4215,right
19,1,continuous,28,72,trial,9175595.0,9178496.0,2901.0,28,R,9175326,9175732,408,925.0,492.5,4310,NA
19,1,continuous,28,72,trial,9175595.0,9178496.0,2901.0,28,R,9175772,9176008,238,573.3,541.5,4328,left
19,1,continuous,28,72,trial,9175595.0,9178496.0,2901.0,28,R,9176026,9176304,280,526.8,576.5,4123,left
19,1,continuous,28,72,trial,9175595.0,9178496.0,2901.0,28,R,9176366,9176730,366,1443.3,540.2,3865,right
19,1,continuous,28,72,trial,9175595.0,9178496.0,2901.0,28,R,9176748,9177050,304,1500.6,528.7,3797,right
19,1,continuous,28,72,trial,9175595.0,9178496.0,2901.0,28,R,9177112,9177436,326,479.8,588.5,3878,left
19,1,continuous,28,72,trial,9175595.0,9178496.0,2901.0,28,R,9177456,9177902,448,549.2,646.6,3921,left
19,1,continuous,28,72,trial,9175595.0,9178496.0,2901.0,28,R,9177952,9178178,228,1101.1,964.8,3980,likertHorizontal
19,1,continuous,28,72,trial,9175595.0,9178496.0,2901.0,28,R,9178228,9178746,520,1401.8,645.9,3873,right
19,1,continuous,28,72,postResponse,9175595.0,9178496.0,2901.0,28,R,9178792,9178842,52,1063.4,655.9,3917,NA
19,1,continuous,29,71,fixationCross,9179429.0,9181712.0,2283.0,29,R,9178942,9179102,162,1037.0,660.5,4075,NA
19,1,continuous,29,71,trial,9179429.0,9181712.0,2283.0,29,R,9179140,9179576,438,893.7,547.4,4242,NA
19,1,continuous,29,71,trial,9179429.0,9181712.0,2283.0,29,R,9179616,9179874,260,572.2,525.0,4258,left
19,1,continuous,29,71,trial,9179429.0,9181712.0,2283.0,29,R,9179894,9180052,160,593.3,518.9,4142,left
19,1,continuous,29,71,trial,9179429.0,9181712.0,2283.0,29,R,9180108,9180390,284,1467.0,525.2,3988,right
19,1,continuous,29,71,trial,9179429.0,9181712.0,2283.0,29,R,9180416,9180708,294,1396.8,535.6,3949,right
19,1,continuous,29,71,trial,9179429.0,9181712.0,2283.0,29,R,9180734,9180870,138,1418.7,406.1,3867,right
19,1,continuous,29,71,trial,9179429.0,9181712.0,2283.0,29,R,9180882,9181030,150,1383.1,401.5,3866,right
19,1,continuous,29,71,trial,9179429.0,9181712.0,2283.0,29,R,9181084,9181574,492,610.1,494.6,4085,left
19,1,continuous,29,71,trial,9179429.0,9181712.0,2283.0,29,R,9181630,9181998,370,1215.7,1062.1,4201,NA
19,1,continuous,30,100,trial,9182612.0,9184646.0,2034.0,30,R,9182148,9182768,622,904.7,538.9,4237,NA
19,1,continuous,30,100,trial,9182612.0,9184646.0,2034.0,30,R,9182810,9183212,404,523.3,554.0,4231,left
19,1,continuous,30,100,trial,9182612.0,9184646.0,2034.0,30,R,9183270,9183506,238,1450.2,545.9,3942,right
19,1,continuous,30,100,trial,9182612.0,9184646.0,2034.0,30,R,9183528,9184076,550,1373.1,593.2,3957,right
19,1,continuous,30,100,trial,9182612.0,9184646.0,2034.0,30,R,9184122,9184604,484,1382.1,940.5,4110,NA
19,1,continuous,30,100,postResponse,9182612.0,9184646.0,2034.0,30,R,9184668,9184980,314,525.0,594.8,4315,left
19,1,continuous,31,69,fixationCross,9185829.0,9188496.0,2667.0,31,R,9185072,9185286,216,657.7,581.0,4309,left
19,1,continuous,31,69,fixationCross,9185829.0,9188496.0,2667.0,31,R,9185314,9185520,208,831.7,535.8,4383,NA
19,1,continuous,31,69,trial,9185829.0,9188496.0,2667.0,31,R,9185548,9185970,424,968.4,541.7,4393,NA
19,1,continuous,31,69,trial,9185829.0,9188496.0,2667.0,31,R,9186010,9186228,220,590.4,521.4,4395,left
19,1,continuous,31,69,trial,9185829.0,9188496.0,2667.0,31,R,9186244,9186464,222,600.4,472.7,4227,left
19,1,continuous,31,69,trial,9185829.0,9188496.0,2667.0,31,R,9186518,9187136,620,1431.3,537.5,4062,right
19,1,continuous,31,69,trial,9185829.0,9188496.0,2667.0,31,R,9187156,9187234,80,1442.5,483.6,4071,right
19,1,continuous,31,69,trial,9185829.0,9188496.0,2667.0,31,R,9187290,9187652,364,584.9,483.6,4121,left
19,1,continuous,31,69,trial,9185829.0,9188496.0,2667.0,31,R,9187704,9188104,402,1003.3,957.1,4096,likertHorizontal
19,1,continuous,31,69,trial,9185829.0,9188496.0,2667.0,31,R,9188154,9188712,560,1444.7,560.9,4097,right
19,1,continuous,31,69,trial,9185829.0,9188496.0,2667.0,31,R,9188732,9188752,22,1337.5,545.3,4169,right
19,1,continuous,32,77,fixationCross,9189596.0,9192029.0,2433.0,32,R,9189052,9189290,240,811.1,544.0,4340,NA
19,1,continuous,32,77,trial,9189596.0,9192029.0,2433.0,32,R,9189326,9189736,412,946.3,545.5,4263,NA
19,1,continuous,32,77,trial,9189596.0,9192029.0,2433.0,32,R,9189778,9190044,268,541.0,523.0,4043,left
19,1,continuous,32,77,trial,9189596.0,9192029.0,2433.0,32,R,9190058,9190174,118,517.8,547.6,3996,left
19,1,continuous,32,77,trial,9189596.0,9192029.0,2433.0,32,R,9190228,9190904,678,1430.8,532.5,3996,right
19,1,continuous,32,77,trial,9189596.0,9192029.0,2433.0,32,R,9190966,9191118,154,609.7,557.1,4344,left
19,1,continuous,32,77,trial,9189596.0,9192029.0,2433.0,32,R,9191144,9191390,248,520.5,562.5,4300,left
19,1,continuous,32,77,trial,9189596.0,9192029.0,2433.0,32,R,9191448,9192290,844,1452.7,601.3,4100,right
19,1,continuous,33,11,trial,9192946.0,9195796.0,2850.0,33,R,9192466,9192964,500,875.1,524.5,4334,NA
19,1,continuous,33,11,trial,9192946.0,9195796.0,2850.0,33,R,9192990,9193112,124,971.3,538.0,4321,NA
19,1,continuous,33,11,trial,9192946.0,9195796.0,2850.0,33,R,9193156,9193330,176,536.1,509.1,4307,left
19,1,continuous,33,11,trial,9192946.0,9195796.0,2850.0,33,R,9193354,9194452,1100,514.6,404.6,4059,left
19,1,continuous,33,11,trial,9192946.0,9195796.0,2850.0,33,R,9194478,9194664,188,536.7,536.2,4177,left
19,1,continuous,33,11,trial,9192946.0,9195796.0,2850.0,33,R,9194676,9194944,270,500.4,559.8,4175,left
19,1,continuous,33,11,trial,9192946.0,9195796.0,2850.0,33,R,9194992,9195122,132,574.7,948.3,4186,NA
19,1,continuous,33,11,trial,9192946.0,9195796.0,2850.0,33,R,9195176,9195446,272,1408.9,533.9,4084,right
19,1,continuous,33,11,trial,9192946.0,9195796.0,2850.0,33,R,9195466,9195576,112,1430.9,578.6,4016,right
19,1,continuous,33,11,postResponse,9192946.0,9195796.0,2850.0,33,R,9195626,9196130,506,654.6,577.8,4073,left
19,1,continuous,34,73,fixationCross,9196879.0,9199413.0,2534.0,34,R,9196230,9196292,64,648.9,578.7,4040,left
19,1,continuous,34,73,fixationCross,9196879.0,9199413.0,2534.0,34,R,9196318,9196584,268,825.1,564.3,4135,NA
19,1,continuous,34,73,trial,9196879.0,9199413.0,2534.0,34,R,9196612,9197026,416,965.0,549.0,4239,NA
19,1,continuous,34,73,trial,9196879.0,9199413.0,2534.0,34,R,9197068,9197270,204,554.7,542.6,4246,left
19,1,continuous,34,73,trial,9196879.0,9199413.0,2534.0,34,R,9197294,9197546,254,481.5,448.2,4081,left
19,1,continuous,34,73,trial,9196879.0,9199413.0,2534.0,34,R,9197606,9197824,220,1450.1,531.1,3880,right
19,1,continuous,34,73,trial,9196879.0,9199413.0,2534.0,34,R,9197846,9197986,142,1461.1,449.6,3879,right
19,1,continuous,34,73,trial,9196879.0,9199413.0,2534.0,34,R,9197998,9198560,564,1454.1,423.3,3914,right
19,1,continuous,34,73,trial,9196879.0,9199413.0,2534.0,34,R,9198586,9198956,372,1466.4,552.5,4103,right
19,1,continuous,34,73,trial,9196879.0,9199413.0,2534.0,34,R,9199018,9199608,592,559.4,498.6,4222,left
19,1,continuous,35,80,fixationCross,9200313.0,9203263.0,2950.0,35,R,9199880,9200194,316,878.5,545.9,4186,NA
19,1,continuous,35,80,trial,9200313.0,9203263.0,2950.0,35,R,9200220,9200452,234,969.2,548.8,4223,NA
19,1,continuous,35,80,trial,9200313.0,9203263.0,2950.0,35,R,9200496,9200726,232,502.4,549.2,4107,left
19,1,continuous,35,80,trial,9200313.0,9203263.0,2950.0,35,R,9200742,9200882,142,475.8,577.3,4092,left
19,1,continuous,35,80,trial,9200313.0,9203263.0,2950.0,35,R,9200942,9201196,256,1499.8,497.7,4015,right
19,1,continuous,35,80,trial,9200313.0,9203263.0,2950.0,35,R,9201218,9201694,478,1433.2,427.4,4060,right
19,1,continuous,35,80,trial,9200313.0,9203263.0,2950.0,35,R,9201722,9202196,476,1494.1,584.4,4186,right
19,1,continuous,35,80,trial,9200313.0,9203263.0,2950.0,35,R,9202220,9202390,172,1434.2,552.4,4254,right
19,1,continuous,35,80,trial,9200313.0,9203263.0,2950.0,35,R,9202450,9202810,362,491.1,570.1,4279,left
19,1,continuous,35,80,trial,9200313.0,9203263.0,2950.0,35,R,9202880,9203072,194,1524.8,512.3,4148,right
19,1,continuous,35,80,trial,9200313.0,9203263.0,2950.0,35,R,9203092,9203516,426,1468.8,527.7,4177,right
19,1,continuous,35,80,trial,9200313.0,9203263.0,2950.0,35,R,9203538,9203556,20,1345.7,495.2,4233,right
19,1,continuous,36,25,fixationCross,9204313.0,9207729.0,3416.0,36,R,9203678,9203998,322,1184.2,597.5,4366,right
19,1,continuous,36,25,trial,9204313.0,9207729.0,3416.0,36,R,9204026,9204462,438,964.0,547.0,4395,NA
19,1,continuous,36,25,trial,9204313.0,9207729.0,3416.0,36,R,9204512,9204782,272,564.1,565.0,4342,left
19,1,continuous,36,25,trial,9204313.0,9207729.0,3416.0,36,R,9204810,9205236,428,468.4,426.8,4162,left
19,1,continuous,36,25,trial,9204313.0,9207729.0,3416.0,36,R,9205294,9205516,224,1342.5,563.3,4198,right
19,1,continuous,36,25,trial,9204313.0,9207729.0,3416.0,36,R,9205540,9205928,390,1418.8,624.4,4150,right
19,1,continuous,36,25,trial,9204313.0,9207729.0,3416.0,36,R,9205958,9206230,274,1582.5,587.8,4090,right
19,1,continuous,36,25,trial,9204313.0,9207729.0,3416.0,36,R,9206266,9206484,220,1416.2,611.1,4147,right
19,1,continuous,36,25,trial,9204313.0,9207729.0,3416.0,36,R,9206536,9206816,282,615.0,562.4,4221,left
19,1,continuous,36,25,trial,9204313.0,9207729.0,3416.0,36,R,9206842,9207238,398,506.5,497.1,4206,left
19,1,continuous,36,25,trial,9204313.0,9207729.0,3416.0,36,R,9207256,9207552,298,517.8,538.6,4236,left
19,1,continuous,36,25,trial,9204313.0,9207729.0,3416.0,36,R,9207576,9207966,392,466.5,419.0,4237,left
19,1,continuous,36,25,postResponse,9204313.0,9207729.0,3416.0,36,R,9208020,9208064,46,883.4,503.7,4203,NA
19,1,continuous,37,86,fixationCross,9208930.0,9212129.0,3199.0,37,R,9208164,9208464,302,863.0,570.7,4268,NA
19,1,continuous,37,86,fixationCross,9208930.0,9212129.0,3199.0,37,R,9208496,9208628,134,720.2,527.8,4359,left
19,1,continuous,37,86,trial,9208930.0,9212129.0,3199.0,37,R,9208658,9209060,404,969.1,549.4,4332,NA
19,1,continuous,37,86,trial,9208930.0,9212129.0,3199.0,37,R,9209110,9209460,352,520.0,559.0,4296,left
19,1,continuous,37,86,trial,9208930.0,9212129.0,3199.0,37,R,9209478,9209802,326,513.9,609.2,4079,left
19,1,continuous,37,86,trial,9208930.0,9212129.0,3199.0,37,R,9209838,9209946,110,375.8,431.9,4018,left
19,1,continuous,37,86,trial,9208930.0,9212129.0,3199.0,37,R,9210008,9210428,422,1392.9,553.4,4050,right
19,1,continuous,37,86,trial,9208930.0,9212129.0,3199.0,37,R,9210444,9210886,444,1371.1,517.4,4104,right
19,1,continuous,37,86,trial,9208930.0,9212129.0,3199.0,37,R,9210938,9211148,212,608.8,535.8,4179,left
19,1,continuous,37,86,trial,9208930.0,9212129.0,3199.0,37,R,9211172,9211446,276,514.5,623.5,4175,left
19,1,continuous,37,86,trial,9208930.0,9212129.0,3199.0,37,R,9211504,9212360,858,1444.7,577.0,4110,right
19,1,continuous,37,86,postResponse,9208930.0,9212129.0,3199.0,37,R,9212404,9212464,62,1021.6,557.5,4320,NA
19,1,continuous,38,74,fixationCross,9213329.0,9216580.0,3251.0,38,R,9212538,9212694,158,1010.1,558.8,4346,NA
19,1,continuous,38,74,fixationCross,9213329.0,9216580.0,3251.0,38,R,9212730,9213026,298,707.1,532.7,4434,left
19,1,continuous,38,74,trial,9213329.0,9216580.0,3251.0,38,R,9213066,9213464,400,939.0,540.1,4426,NA
19,1,continuous,38,74,trial,9213329.0,9216580.0,3251.0,38,R,9213504,9213742,240,575.0,549.8,4416,left
19,1,continuous,38,74,trial,9213329.0,9216580.0,3251.0,38,R,9213764,9213928,166,568.5,480.8,4279,left
19,1,continuous,38,74,trial,9213329.0,9216580.0,3251.0,38,R,9213982,9214244,264,1419.5,578.5,4128,right
19,1,continuous,38,74,trial,9213329.0,9216580.0,3251.0,38,R,9214266,9214518,254,1509.9,601.1,4082,right
19,1,continuous,38,74,trial,9213329.0,9216580.0,3251.0,38,R,9214546,9214804,260,1306.1,516.1,4047,right
19,1,continuous,38,74,trial,9213329.0,9216580.0,3251.0,38,R,9214854,9215112,260,551.4,541.2,4091,left
19,1,continuous,38,74,trial,9213329.0,9216580.0,3251.0,38,R,9215134,9216026,894,548.9,462.0,4104,left
19,1,continuous,38,74,trial,9213329.0,9216580.0,3251.0,38,R,9216082,9216868,788,1436.2,586.9,4020,right
19,1,continuous,39,9,fixationCross,9217697.0,9221446.0,3749.0,39,R,9216990,9217252,264,1060.3,576.5,4109,NA
19,1,continuous,39,9,fixationCross,9217697.0,9221446.0,3749.0,39,R,9217284,9217452,170,756.2,531.6,4230,NA
19,1,continuous,39,9,trial,9217697.0,9221446.0,3749.0,39,R,9217490,9217830,342,951.8,534.7,4219,NA
19,1,continuous,39,9,trial,9217697.0,9221446.0,3749.0,39,R,9217870,9218104,236,554.2,547.5,4226,left
19,1,continuous,39,9,trial,9217697.0,9221446.0,3749.0,39,R,9218124,9218296,174,512.5,491.0,4081,left
19,1,continuous,39,9,trial,9217697.0,9221446.0,3749.0,39,R,9218320,9218506,188,419.2,549.4,3985,left
19,1,continuous,39,9,trial,9217697.0,9221446.0,3749.0,39,R,9218534,9218706,174,581.8,474.6,4003,left
19,1,continuous,39,9,trial,9217697.0,9221446.0,3749.0,39,R,9218760,9219128,370,1438.4,549.3,3964,right
19,1,continuous,39,9,trial,9217697.0,9221446.0,3749.0,39,R,9219148,9219294,148,1479.6,579.0,4023,right
19,1,continuous,39,9,trial,9217697.0,9221446.0,3749.0,39,R,9219352,9219946,596,576.3,549.5,4134,left
19,1,continuous,39,9,trial,9217697.0,9221446.0,3749.0,39,R,9219998,9220298,302,561.7,967.1,4181,NA
19,1,continuous,39,9,trial,9217697.0,9221446.0,3749.0,39,R,9220356,9220726,372,1458.4,579.0,4006,right
19,1,continuous,39,9,trial,9217697.0,9221446.0,3749.0,39,R,9220756,9220988,234,1577.0,487.9,3955,right
19,1,continuous,39,9,trial,9217697.0,9221446.0,3749.0,39,R,9221010,9221302,294,1516.7,526.8,3987,right
19,1,continuous,39,9,trial,9217697.0,9221446.0,3749.0,39,R,9221324,9221686,364,1451.8,543.0,4055,right
19,1,continuous,39,9,postResponse,9217697.0,9221446.0,3749.0,39,R,9221734,9221792,60,1051.5,608.1,4164,NA
19,1,continuous,40,21,fixationCross,9222513.0,9224830.0,2317.0,40,R,9221866,9221940,76,1039.7,613.5,4249,NA
19,1,continuous,40,21,fixationCross,9222513.0,9224830.0,2317.0,40,R,9221972,9222220,250,845.2,571.8,4357,NA
19,1,continuous,40,21,fixationCross,9222513.0,9224830.0,2317.0,40,R,9222246,9222386,142,926.5,552.4,4379,NA
19,1,continuous,40,21,trial,9222513.0,9224830.0,2317.0,40,R,9222396,9222654,260,953.2,547.9,4317,NA
19,1,continuous,40,21,trial,9222513.0,9224830.0,2317.0,40,R,9222692,9222856,166,616.7,540.6,4262,left
19,1,continuous,40,21,trial,9222513.0,9224830.0,2317.0,40,R,9222892,9223204,314,377.9,453.9,4058,left
19,1,continuous,40,21,trial,9222513.0,9224830.0,2317.0,40,R,9223246,9223352,108,736.4,559.3,3928,left
19,1,continuous,40,21,trial,9222513.0,9224830.0,2317.0,40,R,9223402,9223600,200,1465.4,542.2,3853,right
19,1,continuous,40,21,trial,9222513.0,9224830.0,2317.0,40,R,9223624,9223964,342,1545.3,481.2,3897,right
19,1,continuous,40,21,trial,9222513.0,9224830.0,2317.0,40,R,9223996,9224160,166,1322.6,578.3,3981,right
19,1,continuous,40,21,trial,9222513.0,9224830.0,2317.0,40,R,9224206,9224580,376,658.5,605.5,4115,left
19,1,continuous,40,21,postResponse,9222513.0,9224830.0,2317.0,40,R,9224592,9225164,574,664.2,579.9,3985,left
19,1,continuous,41,79,fixationCross,9225997.0,9227780.0,1783.0,41,R,9225238,9225484,248,669.3,587.2,4177,left
19,1,continuous,41,79,fixationCross,9225997.0,9227780.0,1783.0,41,R,9225510,9225692,184,781.5,545.0,4252,NA
19,1,continuous,41,79,trial,9225997.0,9227780.0,1783.0,41,R,9225720,9226152,434,981.0,550.3,4241,NA
19,1,continuous,41,79,trial,9225997.0,9227780.0,1783.0,41,R,9226204,9226372,170,532.8,601.4,4288,left
19,1,continuous,41,79,trial,9225997.0,9227780.0,1783.0,41,R,9226398,9226632,236,429.9,516.7,4143,left
19,1,continuous,41,79,trial,9225997.0,9227780.0,1783.0,41,R,9226690,9226940,252,1437.6,519.2,3957,right
19,1,continuous,41,79,trial,9225997.0,9227780.0,1783.0,41,R,9226962,9227730,770,1505.4,603.7,4074,right
19,1,continuous,41,79,trial,9225997.0,9227780.0,1783.0,41,R,9227756,9227984,230,1406.9,447.9,4152,right
19,1,continuous,42,20,fixationCross,9228746.0,9231146.0,2400.0,42,R,9228192,9228442,252,1165.0,566.7,4323,NA
19,1,continuous,42,20,trial,9228746.0,9231146.0,2400.0,42,R,9228480,9228898,420,911.9,520.2,4333,NA
19,1,continuous,42,20,trial,9228746.0,9231146.0,2400.0,42,R,9228942,9229448,508,518.8,546.4,4129,left
19,1,continuous,42,20,trial,9228746.0,9231146.0,2400.0,42,R,9229508,9229876,370,1411.8,604.8,3821,right
19,1,continuous,42,20,trial,9228746.0,9231146.0,2400.0,42,R,9229896,9230066,172,1476.4,630.1,3829,right
19,1,continuous,42,20,trial,9228746.0,9231146.0,2400.0,42,R,9230124,9230498,376,557.3,565.6,3988,left
19,1,continuous,42,20,trial,9228746.0,9231146.0,2400.0,42,R,9230514,9230790,278,594.4,563.7,3967,left
19,1,continuous,42,20,trial,9228746.0,9231146.0,2400.0,42,R,9230846,9231398,554,1423.5,623.9,3938,right
19,1,continuous,42,20,postResponse,9228746.0,9231146.0,2400.0,42,R,9231444,9231482,40,1024.9,617.7,4053,NA
19,1,continuous,43,28,fixationCross,9232213.0,9235013.0,2800.0,43,R,9231556,9231626,72,1013.3,615.9,4085,NA
19,1,continuous,43,28,fixationCross,9232213.0,9235013.0,2800.0,43,R,9231660,9231902,244,724.2,559.4,4191,left
19,1,continuous,43,28,trial,9232213.0,9235013.0,2800.0,43,R,9231942,9232354,414,914.2,536.0,4219,NA
19,1,continuous,43,28,trial,9232213.0,9235013.0,2800.0,43,R,9232392,9232550,160,551.5,542.4,4229,left
19,1,continuous,43,28,trial,9232213.0,9235013.0,2800.0,43,R,9232578,9232798,222,663.7,568.2,4117,left
19,1,continuous,43,28,trial,9232213.0,9235013.0,2800.0,43,R,9232830,9233034,206,438.4,477.4,3998,left
19,1,continuous,43,28,trial,9232213.0,9235013.0,2800.0,43,R,9233044,9233240,198,456.0,480.0,3972,left
19,1,continuous,43,28,trial,9232213.0,9235013.0,2800.0,43,R,9233300,9233556,258,1435.0,568.7,3857,right
19,1,continuous,43,28,trial,9232213.0,9235013.0,2800.0,43,R,9233578,9233784,208,1437.0,478.4,3870,right
19,1,continuous,43,28,trial,9232213.0,9235013.0,2800.0,43,R,9233806,9233968,164,1359.5,494.6,3884,right
19,1,continuous,43,28,trial,9232213.0,9235013.0,2800.0,43,R,9234020,9234222,204,613.6,529.8,3994,left
19,1,continuous,43,28,trial,9232213.0,9235013.0,2800.0,43,R,9234240,9234458,220,661.8,556.1,4001,left
19,1,continuous,43,28,trial,9232213.0,9235013.0,2800.0,43,R,9234500,9234642,144,413.5,470.9,3962,left
19,1,continuous,43,28,trial,9232213.0,9235013.0,2800.0,43,R,9234664,9235196,534,454.4,475.7,3967,left
19,1,continuous,44,75,fixationCross,9236080.0,9239663.0,3583.0,44,R,9235434,9235764,332,712.5,544.8,4134,left
19,1,continuous,44,75,trial,9236080.0,9239663.0,3583.0,44,R,9235794,9236236,444,955.8,537.6,4096,NA
19,1,continuous,44,75,trial,9236080.0,9239663.0,3583.0,44,R,9236278,9236460,184,499.6,550.1,4083,left
19,1,continuous,44,75,trial,9236080.0,9239663.0,3583.0,44,R,9236484,9236664,182,413.4,449.9,3988,left
19,1,continuous,44,75,trial,9236080.0,9239663.0,3583.0,44,R,9236678,9236910,234,415.7,417.9,3940,left
19,1,continuous,44,75,trial,9236080.0,9239663.0,3583.0,44,R,9236970,9237482,514,1419.9,559.9,3935,right
19,1,continuous,44,75,trial,9236080.0,9239663.0,3583.0,44,R,9237508,9237860,354,1592.3,570.0,3811,right
19,1,continuous,44,75,trial,9236080.0,9239663.0,3583.0,44,R,9237880,9238290,412,1531.7,526.7,3869,right
19,1,continuous,44,75,trial,9236080.0,9239663.0,3583.0,44,R,9238314,9238548,236,1476.8,603.2,4015,right
19,1,continuous,44,75,trial,9236080.0,9239663.0,3583.0,44,R,9238586,9238800,216,1122.9,586.6,4080,NA
19,1,continuous,44,75,trial,9236080.0,9239663.0,3583.0,44,R,9238852,9239170,320,421.2,474.7,4044,left
19,1,continuous,44,75,trial,9236080.0,9239663.0,3583.0,44,R,9239228,9239282,56,1190.3,848.6,4132,NA
19,1,continuous,44,75,trial,9236080.0,9239663.0,3583.0,44,R,9239318,9239470,154,1246.9,890.7,4140,NA
19,1,continuous,44,75,trial,9236080.0,9239663.0,3583.0,44,R,9239512,9239896,386,1441.3,579.7,4077,right
19,1,continuous,45,20,fixationCross,9240580.0,9243080.0,2500.0,45,R,9240156,9240450,296,1022.6,568.1,4265,NA
19,1,continuous,45,20,trial,9240580.0,9243080.0,2500.0,45,R,9240472,9240718,248,942.3,552.3,4286,NA
19,1,continuous,45,20,trial,9240580.0,9243080.0,2500.0,45,R,9240760,9240958,200,565.9,547.5,4120,left
19,1,continuous,45,20,trial,9240580.0,9243080.0,2500.0,45,R,9240982,9241370,390,563.9,457.6,3950,left
19,1,continuous,45,20,trial,9240580.0,9243080.0,2500.0,45,R,9241380,9241508,130,584.9,458.4,3921,left
19,1,continuous,45,20,trial,9240580.0,9243080.0,2500.0,45,R,9241564,9241720,158,1449.7,535.7,3927,right
19,1,continuous,45,20,trial,9240580.0,9243080.0,2500.0,45,R,9241744,9242264,522,1357.1,494.8,3956,right
19,1,continuous,45,20,trial,9240580.0,9243080.0,2500.0,45,R,9242290,9242400,112,1379.9,604.6,3902,right
19,1,continuous,45,20,trial,9240580.0,9243080.0,2500.0,45,R,9242452,9242920,470,636.1,551.2,4048,left
19,1,continuous,45,20,trial,9240580.0,9243080.0,2500.0,45,R,9242944,9243330,388,553.2,479.4,4051,left
19,1,continuous,45,20,postResponse,9240580.0,9243080.0,2500.0,45,R,9243372,9243416,46,817.4,620.7,4088,NA
19,1,continuous,46,15,fixationCross,9243980.0,9246213.0,2233.0,46,R,9243516,9243684,170,816.4,617.6,4139,NA
19,1,continuous,46,15,trial,9243980.0,9246213.0,2233.0,46,R,9243712,9244118,408,943.9,538.6,4290,NA
19,1,continuous,46,15,trial,9243980.0,9246213.0,2233.0,46,R,9244154,9244420,268,622.1,527.2,4366,left
19,1,continuous,46,15,trial,9243980.0,9246213.0,2233.0,46,R,9244446,9244670,226,527.9,523.5,4254,left
19,1,continuous,46,15,trial,9243980.0,9246213.0,2233.0,46,R,9244726,9245124,400,1428.7,559.7,4127,right
19,1,continuous,46,15,trial,9243980.0,9246213.0,2233.0,46,R,9245146,9245288,144,1527.9,579.9,4025,right
19,1,continuous,46,15,trial,9243980.0,9246213.0,2233.0,46,R,9245348,9245528,182,560.5,533.7,4098,left
19,1,continuous,46,15,trial,9243980.0,9246213.0,2233.0,46,R,9245538,9246518,982,538.3,534.6,4078,left
19,1,continuous,47,24,fixationCross,9247347.0,9249897.0,2550.0,47,R,9246650,9246822,174,995.4,600.7,4170,NA
19,1,continuous,47,24,fixationCross,9247347.0,9249897.0,2550.0,47,R,9246850,9247088,240,844.5,502.8,4207,NA
19,1,continuous,47,24,trial,9247347.0,9249897.0,2550.0,47,R,9247114,9247478,366,967.2,532.2,4230,NA
19,1,continuous,47,24,trial,9247347.0,9249897.0,2550.0,47,R,9247516,9247696,182,594.5,556.7,4223,left
19,1,continuous,47,24,trial,9247347.0,9249897.0,2550.0,47,R,9247730,9247980,252,346.7,436.9,3993,left
19,1,continuous,47,24,trial,9247347.0,9249897.0,2550.0,47,R,9248008,9248110,104,548.1,538.3,3898,left
19,1,continuous,47,24,trial,9247347.0,9249897.0,2550.0,47,R,9248168,9248364,198,1482.1,500.8,3776,right
19,1,continuous,47,24,trial,9247347.0,9249897.0,2550.0,47,R,9248384,9248852,470,1513.8,446.2,3831,right
19,1,continuous,47,24,trial,9247347.0,9249897.0,2550.0,47,R,9248898,9249008,112,989.9,501.7,3999,NA
19,1,continuous,47,24,trial,9247347.0,9249897.0,2550.0,47,R,9249044,9249430,388,618.5,579.2,4080,left
19,1,continuous,47,24,trial,9247347.0,9249897.0,2550.0,47,R,9249466,9249802,338,381.5,459.1,3988,left
19,1,continuous,47,24,postResponse,9247347.0,9249897.0,2550.0,47,R,9249832,9250226,396,613.3,543.1,3956,left
19,1,continuous,48,3,fixationCross,9250947.0,9253247.0,2300.0,48,R,9250300,9250346,48,609.2,543.7,4072,left
19,1,continuous,48,3,fixationCross,9250947.0,9253247.0,2300.0,48,R,9250372,9250652,282,819.4,533.8,4136,NA
19,1,continuous,48,3,trial,9250947.0,9253247.0,2300.0,48,R,9250678,9251082,406,950.1,540.5,4176,NA
19,1,continuous,48,3,trial,9250947.0,9253247.0,2300.0,48,R,9251122,9251268,148,532.6,532.2,4212,left
19,1,continuous,48,3,trial,9250947.0,9253247.0,2300.0,48,R,9251292,9251584,294,424.2,567.9,4110,left
19,1,continuous,48,3,trial,9250947.0,9253247.0,2300.0,48,R,9251646,9251912,268,1477.4,547.4,3930,right
19,1,continuous,48,3,trial,9250947.0,9253247.0,2300.0,48,R,9251932,9252182,252,1422.9,579.7,3936,right
19,1,continuous,48,3,trial,9250947.0,9253247.0,2300.0,48,R,9252248,9253468,1222,489.8,606.1,4153,left
19,1,continuous,48,3,postResponse,9250947.0,9253247.0,2300.0,48,R,9253528,9253596,70,1320.0,525.6,4187,right
19,1,continuous,49,35,fixationCross,9254163.0,9257096.0,2933.0,49,R,9253696,9253790,96,1313.9,532.4,4213,right
19,1,continuous,49,35,fixationCross,9254163.0,9257096.0,2933.0,49,R,9253828,9254062,236,1018.9,512.8,4386,NA
19,1,continuous,49,35,trial,9254163.0,9257096.0,2933.0,49,R,9254084,9254304,222,946.4,541.9,4440,NA
19,1,continuous,49,35,trial,9254163.0,9257096.0,2933.0,49,R,9254344,9254554,212,572.8,536.4,4373,left
19,1,continuous,49,35,trial,9254163.0,9257096.0,2933.0,49,R,9254578,9254758,182,666.6,537.3,4212,left
19,1,continuous,49,35,trial,9254163.0,9257096.0,2933.0,49,R,9254810,9255142,334,1402.3,534.7,3986,right
19,1,continuous,49,35,trial,9254163.0,9257096.0,2933.0,49,R,9255164,9255528,366,1481.5,532.8,3942,right
19,1,continuous,49,35,trial,9254163.0,9257096.0,2933.0,49,R,9255558,9255730,174,1262.7,552.3,3984,right
19,1,continuous,49,35,trial,9254163.0,9257096.0,2933.0,49,R,9255778,9256090,314,623.1,534.0,4083,left
19,1,continuous,49,35,trial,9254163.0,9257096.0,2933.0,49,R,9256114,9256334,222,678.3,530.3,4129,left
19,1,continuous,49,35,trial,9254163.0,9257096.0,2933.0,49,R,9256390,9256646,258,850.6,997.4,4094,likertHorizontal
19,1,continuous,49,35,postResponse,9254163.0,9257096.0,2933.0,49,R,9256698,9257432,736,1412.7,586.2,3959,right
19,1,continuous,50,23,fixationCross,9258030.0,9260563.0,2533.0,50,R,9257510,9257720,212,1058.0,581.5,4090,NA
19,1,continuous,50,23,trial,9258030.0,9260563.0,2533.0,50,R,9257744,9258174,432,904.2,550.6,4267,NA
19,1,continuous,50,23,trial,9258030.0,9260563.0,2533.0,50,R,9258214,9258430,218,524.4,548.5,4297,left
19,1,continuous,50,23,trial,9258030.0,9260563.0,2533.0,50,R,9258440,9258752,314,549.4,560.3,4165,left
19,1,continuous,50,23,trial,9258030.0,9260563.0,2533.0,50,R,9258778,9259026,250,484.2,621.7,4122,left
19,1,continuous,50,23,trial,9258030.0,9260563.0,2533.0,50,R,9259082,9259400,320,1387.4,583.7,3995,right
19,1,continuous,50,23,trial,9258030.0,9260563.0,2533.0,50,R,9259426,9259686,262,1501.2,539.1,3937,right
19,1,continuous,50,23,trial,9258030.0,9260563.0,2533.0,50,R,9259732,9259776,46,977.2,570.5,4009,NA
19,1,continuous,50,23,trial,9258030.0,9260563.0,2533.0,50,R,9259808,9260138,332,689.1,577.4,4014,left
19,1,continuous,50,23,trial,9258030.0,9260563.0,2533.0,50,R,9260166,9260756,592,522.4,499.9,4070,left
19,1,continuous,50,23,postResponse,9258030.0,9260563.0,2533.0,50,R,9260818,9260896,80,856.2,712.1,4080,NA
19,2,binary,1,2,fixationCross,9335164.0,9339681.0,4517.0,51,R,9334692,9335070,380,1016.2,491.8,4296,NA
19,2,binary,1,2,trial,9335164.0,9339681.0,4517.0,51,R,9335090,9335444,356,950.9,531.1,4322,NA
19,2,binary,1,2,trial,9335164.0,9339681.0,4517.0,51,R,9335490,9335664,176,1321.5,770.1,4240,NA
19,2,binary,1,2,trial,9335164.0,9339681.0,4517.0,51,R,9335696,9335900,206,1467.2,999.8,4258,NA
19,2,binary,1,2,trial,9335164.0,9339681.0,4517.0,51,R,9335954,9336140,188,1522.7,521.6,4321,right
19,2,binary,1,2,trial,9335164.0,9339681.0,4517.0,51,R,9336200,9336316,118,1025.5,873.9,4453,likertHorizontal
19,2,binary,1,2,trial,9335164.0,9339681.0,4517.0,51,R,9336340,9336452,114,974.6,949.3,4421,likertHorizontal
19,2,binary,1,2,trial,9335164.0,9339681.0,4517.0,51,R,9336498,9337000,504,478.9,548.4,4453,left
19,2,binary,1,2,trial,9335164.0,9339681.0,4517.0,51,R,9337026,9337124,100,594.0,534.5,4278,left
19,2,binary,1,2,trial,9335164.0,9339681.0,4517.0,51,R,9337186,9337580,396,1521.5,560.4,4115,right
19,2,binary,1,2,trial,9335164.0,9339681.0,4517.0,51,R,9337608,9337766,160,1465.3,429.1,4132,right
19,2,binary,1,2,trial,9335164.0,9339681.0,4517.0,51,R,9337796,9338018,224,1286.8,575.1,4207,right
19,2,binary,1,2,trial,9335164.0,9339681.0,4517.0,51,R,9338070,9338466,398,510.4,521.6,4245,left
19,2,binary,1,2,trial,9335164.0,9339681.0,4517.0,51,R,9338488,9338572,86,582.9,525.7,4161,left
19,2,binary,1,2,trial,9335164.0,9339681.0,4517.0,51,R,9338628,9339102,476,1468.0,591.1,4131,right
19,2,binary,1,2,trial,9335164.0,9339681.0,4517.0,51,R,9339132,9339324,194,1456.4,982.0,4426,NA
19,2,binary,1,2,trial,9335164.0,9339681.0,4517.0,51,R,9339370,9339942,574,1493.6,545.8,4304,right
19,2,binary,2,1,fixationCross,9340615.0,9342715.0,2100.0,52,R,9340116,9340312,198,914.3,698.3,4469,NA
19,2,binary,2,1,fixationCross,9340615.0,9342715.0,2100.0,52,R,9340338,9340570,234,999.9,518.9,4440,NA
19,2,binary,2,1,trial,9340615.0,9342715.0,2100.0,52,R,9340590,9340770,182,951.8,530.6,4423,NA
19,2,binary,2,1,trial,9340615.0,9342715.0,2100.0,52,R,9340812,9341062,252,513.4,586.4,4391,left
19,2,binary,2,1,trial,9340615.0,9342715.0,2100.0,52,R,9341082,9341192,112,448.1,577.4,4197,left
19,2,binary,2,1,trial,9340615.0,9342715.0,2100.0,52,R,9341248,9341482,236,1474.4,489.6,3872,right
19,2,binary,2,1,trial,9340615.0,9342715.0,2100.0,52,R,9341510,9341876,368,1600.4,543.9,3927,right
19,2,binary,2,1,trial,9340615.0,9342715.0,2100.0,52,R,9341902,9342022,122,1407.6,514.9,4080,right
19,2,binary,2,1,trial,9340615.0,9342715.0,2100.0,52,R,9342078,9342568,492,508.0,626.3,4245,left
19,2,binary,2,1,trial,9340615.0,9342715.0,2100.0,52,R,9342582,9343008,428,487.1,588.0,4072,left
19,2,binary,3,2,fixationCross,9343631.0,9345581.0,1950.0,53,R,9343150,9343360,212,986.6,560.6,4103,NA
19,2,binary,3,2,trial,9343631.0,9345581.0,1950.0,53,R,9343384,9343638,256,872.8,521.1,4285,NA
19,2,binary,3,2,trial,9343631.0,9345581.0,1950.0,53,R,9343670,9343874,206,976.0,530.6,4416,NA
19,2,binary,3,2,trial,9343631.0,9345581.0,1950.0,53,R,9343910,9344158,250,1462.6,493.7,4291,right
19,2,binary,3,2,trial,9343631.0,9345581.0,1950.0,53,R,9344182,9344312,132,1464.6,605.0,4218,right
19,2,binary,3,2,trial,9343631.0,9345581.0,1950.0,53,R,9344374,9344808,436,543.8,578.9,4276,left
19,2,binary,3,2,postResponse,9343631.0,9345581.0,1950.0,53,R,9344882,9345914,1034,1434.4,609.0,4181,right
19,2,binary,4,2,fixationCross,9346665.0,9348582.0,1917.0,54,R,9345988,9346232,246,1006.4,520.8,4376,NA
19,2,binary,4,2,fixationCross,9346665.0,9348582.0,1917.0,54,R,9346258,9346458,202,830.7,533.0,4413,NA
19,2,binary,4,2,trial,9346665.0,9348582.0,1917.0,54,R,9346492,9346804,314,958.3,531.3,4403,NA
19,2,binary,4,2,trial,9346665.0,9348582.0,1917.0,54,R,9346846,9347022,178,532.6,554.9,4342,left
19,2,binary,4,2,trial,9346665.0,9348582.0,1917.0,54,R,9347042,9347234,194,478.6,576.9,4250,left
19,2,binary,4,2,trial,9346665.0,9348582.0,1917.0,54,R,9347300,9347592,294,1493.4,518.9,3998,right
19,2,binary,4,2,trial,9346665.0,9348582.0,1917.0,54,R,9347618,9347954,338,1509.9,450.0,3960,right
19,2,binary,4,2,trial,9346665.0,9348582.0,1917.0,54,R,9347984,9348390,408,1357.3,668.2,4015,right
19,2,binary,4,2,trial,9346665.0,9348582.0,1917.0,54,R,9348428,9348520,94,1455.2,942.0,4113,NA
19,2,binary,4,2,trial,9346665.0,9348582.0,1917.0,54,R,9348584,9348826,244,552.9,598.3,4258,left
19,2,binary,5,1,fixationCross,9349631.0,9351698.0,2067.0,55,R,9349096,9349320,226,796.2,574.1,4245,NA
19,2,binary,5,1,fixationCross,9349631.0,9351698.0,2067.0,55,R,9349358,9349554,198,985.8,552.9,4372,NA
19,2,binary,5,1,trial,9349631.0,9351698.0,2067.0,55,R,9349574,9349790,218,962.8,548.6,4233,NA
19,2,binary,5,1,trial,9349631.0,9351698.0,2067.0,55,R,9349832,9350144,314,584.4,603.2,4149,left
19,2,binary,5,1,trial,9349631.0,9351698.0,2067.0,55,R,9350172,9350574,404,366.0,597.1,4035,left
19,2,binary,5,1,trial,9349631.0,9351698.0,2067.0,55,R,9350632,9351086,456,1413.8,426.4,3904,right
19,2,binary,5,1,trial,9349631.0,9351698.0,2067.0,55,R,9351144,9351994,852,533.6,587.2,4137,left
19,2,binary,6,2,fixationCross,9352598.0,9356048.0,3450.0,56,R,9352134,9352254,122,1210.6,633.3,4171,right
19,2,binary,6,2,fixationCross,9352598.0,9356048.0,3450.0,56,R,9352282,9352590,310,994.6,558.2,4355,NA
19,2,binary,6,2,trial,9352598.0,9356048.0,3450.0,56,R,9352604,9352752,150,966.3,540.5,4467,NA
19,2,binary,6,2,trial,9352598.0,9356048.0,3450.0,56,R,9352808,9352998,192,493.1,592.6,4401,left
19,2,binary,6,2,trial,9352598.0,9356048.0,3450.0,56,R,9353034,9353238,206,588.2,542.3,4160,left
19,2,binary,6,2,trial,9352598.0,9356048.0,3450.0,56,R,9353294,9353514,222,1518.8,525.2,3906,right
19,2,binary,6,2,trial,9352598.0,9356048.0,3450.0,56,R,9353524,9353972,450,1479.5,532.6,3933,right
19,2,binary,6,2,trial,9352598.0,9356048.0,3450.0,56,R,9353996,9354314,320,1519.4,522.8,3935,right
19,2,binary,6,2,trial,9352598.0,9356048.0,3450.0,56,R,9354330,9354416,88,1475.6,528.1,3943,right
19,2,binary,6,2,trial,9352598.0,9356048.0,3450.0,56,R,9354472,9354892,422,581.8,610.0,4082,left
19,2,binary,6,2,trial,9352598.0,9356048.0,3450.0,56,R,9354912,9354952,42,550.0,597.7,4139,left
19,2,binary,6,2,trial,9352598.0,9356048.0,3450.0,56,R,9355008,9355200,194,1398.4,916.3,4092,NA
19,2,binary,6,2,trial,9352598.0,9356048.0,3450.0,56,R,9355282,9355604,324,480.0,586.5,4212,left
19,2,binary,6,2,postResponse,9352598.0,9356048.0,3450.0,56,R,9355662,9356380,720,1480.5,547.7,4023,right
19,2,binary,7,2,fixationCross,9356982.0,9359481.0,2499.0,57,R,9356480,9356682,204,1138.5,562.5,4232,NA
19,2,binary,7,2,trial,9356982.0,9359481.0,2499.0,57,R,9356714,9356984,272,887.6,534.0,4341,NA
19,2,binary,7,2,trial,9356982.0,9359481.0,2499.0,57,R,9357010,9357144,136,969.6,535.9,4391,NA
19,2,binary,7,2,trial,9356982.0,9359481.0,2499.0,57,R,9357196,9357356,162,497.7,536.9,4358,left
19,2,binary,7,2,trial,9356982.0,9359481.0,2499.0,57,R,9357380,9357534,156,448.0,446.7,4184,left
19,2,binary,7,2,trial,9356982.0,9359481.0,2499.0,57,R,9357544,9357654,112,429.8,454.4,4109,left
19,2,binary,7,2,trial,9356982.0,9359481.0,2499.0,57,R,9357712,9357972,262,1439.6,530.4,3983,right
19,2,binary,7,2,trial,9356982.0,9359481.0,2499.0,57,R,9357998,9358246,250,1510.2,519.7,3967,right
19,2,binary,7,2,trial,9356982.0,9359481.0,2499.0,57,R,9358268,9358466,200,1414.8,490.2,3947,right
19,2,binary,7,2,trial,9356982.0,9359481.0,2499.0,57,R,9358520,9358744,226,499.6,500.8,4019,left
19,2,binary,7,2,trial,9356982.0,9359481.0,2499.0,57,R,9358766,9359034,270,438.9,452.8,4042,left
19,2,binary,7,2,trial,9356982.0,9359481.0,2499.0,57,R,9359098,9359344,248,1404.8,733.6,4043,NA
19,2,binary,7,2,trial,9356982.0,9359481.0,2499.0,57,R,9359374,9359694,322,1498.3,547.3,4068,right
19,2,binary,7,2,postResponse,9356982.0,9359481.0,2499.0,57,R,9359772,9359814,44,1139.2,572.1,4103,NA
19,2,binary,8,1,fixationCross,9360398.0,9363098.0,2700.0,58,R,9359914,9360058,146,1127.7,582.6,4176,NA
19,2,binary,8,1,trial,9360398.0,9363098.0,2700.0,58,R,9360084,9360428,346,979.0,524.1,4342,NA
19,2,binary,8,1,trial,9360398.0,9363098.0,2700.0,58,R,9360438,9360556,120,954.8,533.0,4345,NA
19,2,binary,8,1,trial,9360398.0,9363098.0,2700.0,58,R,9360610,9360796,188,454.5,532.7,4312,left
19,2,binary,8,1,trial,9360398.0,9363098.0,2700.0,58,R,9360822,9361298,478,543.1,476.2,4083,left
19,2,binary,8,1,trial,9360398.0,9363098.0,2700.0,58,R,9361352,9361720,370,1444.6,507.6,3950,right
19,2,binary,8,1,trial,9360398.0,9363098.0,2700.0,58,R,9361744,9361972,230,1486.9,445.3,4042,right
19,2,binary,8,1,trial,9360398.0,9363098.0,2700.0,58,R,9361998,9362472,476,1384.4,557.6,4120,right
19,2,binary,8,1,trial,9360398.0,9363098.0,2700.0,58,R,9362518,9362714,198,837.0,523.0,4220,NA
19,2,binary,8,1,trial,9360398.0,9363098.0,2700.0,58,R,9362740,9362922,184,618.1,477.7,4239,left
19,2,binary,8,1,trial,9360398.0,9363098.0,2700.0,58,R,9362946,9363098,154,516.7,463.1,4183,left
19,2,binary,8,1,trial,9360398.0,9363098.0,2700.0,58,R,9363112,9363382,272,548.4,465.7,4056,left
19,2,binary,9,1,fixationCross,9364015.0,9366548.0,2533.0,59,R,9363532,9363878,348,901.9,563.0,4147,NA
19,2,binary,9,1,trial,9364015.0,9366548.0,2533.0,59,R,9363904,9364152,250,962.8,538.9,4269,NA
19,2,binary,9,1,trial,9364015.0,9366548.0,2533.0,59,R,9364194,9364418,226,507.5,538.7,4214,left
19,2,binary,9,1,trial,9364015.0,9366548.0,2533.0,59,R,9364444,9364744,302,594.7,621.5,4074,left
19,2,binary,9,1,trial,9364015.0,9366548.0,2533.0,59,R,9364782,9364930,150,484.4,623.4,4099,left
19,2,binary,9,1,trial,9364015.0,9366548.0,2533.0,59,R,9364956,9365402,448,404.2,513.2,4066,left
19,2,binary,9,1,trial,9364015.0,9366548.0,2533.0,59,R,9365428,9365598,172,365.1,405.6,3984,left
19,2,binary,9,1,trial,9364015.0,9366548.0,2533.0,59,R,9365656,9366370,716,1407.3,520.8,3986,right
19,2,binary,9,1,trial,9364015.0,9366548.0,2533.0,59,R,9366422,9366804,384,562.8,537.4,4045,left
19,2,binary,10,1,fixationCross,9367615.0,9369482.0,1867.0,60,R,9366982,9367320,340,804.7,573.4,4242,NA
19,2,binary,10,1,trial,9367615.0,9369482.0,1867.0,60,R,9367350,9367764,416,956.7,532.6,4267,NA
19,2,binary,10,1,trial,9367615.0,9369482.0,1867.0,60,R,9367808,9368224,418,458.4,532.9,4221,left
19,2,binary,10,1,trial,9367615.0,9369482.0,1867.0,60,R,9368284,9368460,178,1513.8,476.2,4053,right
19,2,binary,10,1,trial,9367615.0,9369482.0,1867.0,60,R,9368484,9368886,404,1499.4,395.8,4052,right
19,2,binary,10,1,trial,9367615.0,9369482.0,1867.0,60,R,9368954,9369276,324,497.0,626.3,4184,left
19,2,binary,10,1,trial,9367615.0,9369482.0,1867.0,60,R,9369302,9369700,400,466.8,519.6,4158,left
19,2,binary,11,2,fixationCross,9370648.0,9372865.0,2217.0,61,R,9369936,9370334,400,693.7,528.1,4254,left
19,2,binary,11,2,trial,9370648.0,9372865.0,2217.0,61,R,9370364,9370798,436,951.5,535.5,4161,NA
19,2,binary,11,2,trial,9370648.0,9372865.0,2217.0,61,R,9370840,9371196,358,509.5,580.5,4189,left
19,2,binary,11,2,trial,9370648.0,9372865.0,2217.0,61,R,9371206,9371338,134,489.6,592.6,4272,left
19,2,binary,11,2,trial,9370648.0,9372865.0,2217.0,61,R,9371400,9371674,276,1417.8,561.2,4163,right
19,2,binary,11,2,trial,9370648.0,9372865.0,2217.0,61,R,9371698,9371868,172,1337.8,501.8,4113,right
19,2,binary,11,2,trial,9370648.0,9372865.0,2217.0,61,R,9371890,9372076,188,1335.0,444.1,4035,right
19,2,binary,11,2,trial,9370648.0,9372865.0,2217.0,61,R,9372094,9372490,398,1283.2,440.3,4025,right
19,2,binary,11,2,trial,9370648.0,9372865.0,2217.0,61,R,9372510,9372686,178,1346.4,447.6,4105,right
19,2,binary,11,2,trial,9370648.0,9372865.0,2217.0,61,R,9372718,9372886,170,1665.7,466.4,4024,right
19,2,binary,11,2,trial,9370648.0,9372865.0,2217.0,61,R,9372916,9373100,186,1418.6,593.5,4092,right
19,2,binary,12,2,fixationCross,9373798.0,9377932.0,4134.0,62,R,9373302,9373498,198,978.3,643.3,4288,NA
19,2,binary,12,2,trial,9373798.0,9377932.0,4134.0,62,R,9373524,9373940,418,922.5,507.9,4276,NA
19,2,binary,12,2,trial,9373798.0,9377932.0,4134.0,62,R,9373984,9374108,126,1373.1,507.3,4224,right
19,2,binary,12,2,trial,9373798.0,9377932.0,4134.0,62,R,9374132,9374618,488,1445.8,525.0,4054,right
19,2,binary,12,2,trial,9373798.0,9377932.0,4134.0,62,R,9374676,9374926,252,507.3,573.4,4085,left
19,2,binary,12,2,trial,9373798.0,9377932.0,4134.0,62,R,9374948,9375256,310,425.4,560.9,4084,left
19,2,binary,12,2,trial,9373798.0,9377932.0,4134.0,62,R,9375282,9375438,158,467.6,442.3,4016,left
19,2,binary,12,2,trial,9373798.0,9377932.0,4134.0,62,R,9375498,9375634,138,1520.4,562.9,3925,right
19,2,binary,12,2,trial,9373798.0,9377932.0,4134.0,62,R,9375654,9376350,698,1450.9,550.7,3917,right
19,2,binary,12,2,trial,9373798.0,9377932.0,4134.0,62,R,9376408,9376808,402,464.9,580.1,4031,left
19,2,binary,12,2,trial,9373798.0,9377932.0,4134.0,62,R,9376824,9377206,384,421.9,551.8,4023,left
19,2,binary,12,2,trial,9373798.0,9377932.0,4134.0,62,R,9377232,9377404,174,561.8,637.9,4081,left
19,2,binary,12,2,trial,9373798.0,9377932.0,4134.0,62,R,9377464,9377908,446,1428.2,616.1,4067,right
19,2,binary,12,2,postResponse,9373798.0,9377932.0,4134.0,62,R,9377942,9378266,326,1440.8,733.3,4165,NA
19,2,binary,13,2,trial,9378848.0,9381682.0,2834.0,63,R,9378404,9378994,592,946.3,533.2,4432,NA
19,2,binary,13,2,trial,9378848.0,9381682.0,2834.0,63,R,9379038,9379176,140,535.9,600.9,4418,left
19,2,binary,13,2,trial,9378848.0,9381682.0,2834.0,63,R,9379204,9379426,224,461.8,473.9,4256,left
19,2,binary,13,2,trial,9378848.0,9381682.0,2834.0,63,R,9379446,9379842,398,489.0,521.4,4059,left
19,2,binary,13,2,trial,9378848.0,9381682.0,2834.0,63,R,9379900,9380146,248,1434.1,565.2,3946,right
19,2,binary,13,2,trial,9378848.0,9381682.0,2834.0,63,R,9380158,9380562,406,1466.5,582.0,3978,right
19,2,binary,13,2,trial,9378848.0,9381682.0,2834.0,63,R,9380592,9381142,552,1258.2,528.4,4100,right
19,2,binary,13,2,trial,9378848.0,9381682.0,2834.0,63,R,9381202,9381442,242,525.4,531.3,4355,left
19,2,binary,13,2,trial,9378848.0,9381682.0,2834.0,63,R,9381466,9381564,100,461.1,483.5,4276,left
19,2,binary,13,2,trial,9378848.0,9381682.0,2834.0,63,R,9381626,9381918,294,1448.1,945.8,4046,NA
19,2,binary,14,2,fixationCross,9382565.0,9385315.0,2750.0,64,R,9382090,9382560,472,908.8,528.7,4246,NA
19,2,binary,14,2,trial,9382565.0,9385315.0,2750.0,64,R,9382580,9382742,164,961.2,535.7,4306,NA
19,2,binary,14,2,trial,9382565.0,9385315.0,2750.0,64,R,9382780,9383042,264,620.0,597.3,4239,left
19,2,binary,14,2,trial,9382565.0,9385315.0,2750.0,64,R,9383064,9383178,116,543.5,564.8,4130,left
19,2,binary,14,2,trial,9382565.0,9385315.0,2750.0,64,R,9383230,9383534,306,1423.7,516.2,4009,right
19,2,binary,14,2,trial,9382565.0,9385315.0,2750.0,64,R,9383560,9383968,410,1479.1,535.9,4022,right
19,2,binary,14,2,trial,9382565.0,9385315.0,2750.0,64,R,9384026,9384462,438,524.7,615.7,4136,left
19,2,binary,14,2,trial,9382565.0,9385315.0,2750.0,64,R,9384496,9384644,150,648.3,580.7,4153,left
19,2,binary,14,2,trial,9382565.0,9385315.0,2750.0,64,R,9384696,9385552,858,1462.0,545.1,4084,right
19,2,binary,15,1,fixationCross,9386382.0,9388598.0,2216.0,65,R,9385774,9386064,292,1104.0,554.7,4305,NA
19,2,binary,15,1,trial,9386382.0,9388598.0,2216.0,65,R,9386092,9386540,450,916.3,556.1,4292,NA
19,2,binary,15,1,trial,9386382.0,9388598.0,2216.0,65,R,9386580,9386782,204,542.9,595.8,4190,left
19,2,binary,15,1,trial,9386382.0,9388598.0,2216.0,65,R,9386812,9387112,302,405.2,471.6,4192,left
19,2,binary,15,1,trial,9386382.0,9388598.0,2216.0,65,R,9387148,9387300,154,590.3,606.8,4247,left
19,2,binary,15,1,trial,9386382.0,9388598.0,2216.0,65,R,9387316,9387412,98,552.0,608.7,4309,left
19,2,binary,15,1,trial,9386382.0,9388598.0,2216.0,65,R,9387478,9387700,224,1593.9,430.9,4192,right
19,2,binary,15,1,trial,9386382.0,9388598.0,2216.0,65,R,9387724,9387804,82,1628.9,420.4,4137,right
19,2,binary,15,1,trial,9386382.0,9388598.0,2216.0,65,R,9387864,9388038,176,606.4,616.2,4321,left
19,2,binary,15,1,trial,9386382.0,9388598.0,2216.0,65,R,9388058,9388336,280,547.2,608.5,4375,left
19,2,binary,15,1,trial,9386382.0,9388598.0,2216.0,65,R,9388388,9388542,156,1508.3,439.0,4168,right
19,2,binary,15,1,trial,9386382.0,9388598.0,2216.0,65,R,9388570,9388854,286,1613.3,404.8,4123,right
19,2,binary,15,1,postResponse,9386382.0,9388598.0,2216.0,65,R,9388904,9388932,30,1051.4,505.8,4384,NA
19,2,binary,16,2,fixationCross,9389515.0,9390798.0,1283.0,66,R,9389032,9389330,300,1028.6,522.3,4647,NA
19,2,binary,16,2,trial,9389515.0,9390798.0,1283.0,66,R,9389356,9389666,312,905.4,542.5,4680,NA
19,2,binary,16,2,trial,9389515.0,9390798.0,1283.0,66,R,9389712,9389904,194,496.5,558.8,4608,left
19,2,binary,16,2,trial,9389515.0,9390798.0,1283.0,66,R,9389942,9390046,106,717.6,517.6,4525,left
19,2,binary,16,2,trial,9389515.0,9390798.0,1283.0,66,R,9390094,9390306,214,1416.0,491.1,4293,right
19,2,binary,16,2,trial,9389515.0,9390798.0,1283.0,66,R,9390330,9391050,722,1433.6,605.1,4427,right
19,2,binary,16,2,postResponse,9389515.0,9390798.0,1283.0,66,R,9391100,9391130,32,906.4,570.3,4518,NA
19,2,binary,17,2,fixationCross,9391982.0,9395031.0,3049.0,67,R,9391230,9391430,202,898.1,568.2,4539,NA
19,2,binary,17,2,fixationCross,9391982.0,9395031.0,3049.0,67,R,9391454,9391714,262,850.0,495.6,4533,NA
19,2,binary,17,2,trial,9391982.0,9395031.0,3049.0,67,R,9391742,9392120,380,974.2,508.9,4500,NA
19,2,binary,17,2,trial,9391982.0,9395031.0,3049.0,67,R,9392172,9392396,226,544.4,595.7,4490,left
19,2,binary,17,2,trial,9391982.0,9395031.0,3049.0,67,R,9392414,9392616,204,497.9,644.4,4321,left
19,2,binary,17,2,trial,9391982.0,9395031.0,3049.0,67,R,9392674,9392856,184,1531.9,471.4,3980,right
19,2,binary,17,2,trial,9391982.0,9395031.0,3049.0,67,R,9392870,9393172,304,1547.6,450.9,3897,right
19,2,binary,17,2,trial,9391982.0,9395031.0,3049.0,67,R,9393200,9393656,458,1492.7,602.4,3966,right
19,2,binary,17,2,trial,9391982.0,9395031.0,3049.0,67,R,9393676,9393980,306,1400.6,543.5,3994,right
19,2,binary,17,2,trial,9391982.0,9395031.0,3049.0,67,R,9394008,9394504,498,1591.1,436.9,3956,right
19,2,binary,17,2,trial,9391982.0,9395031.0,3049.0,67,R,9394566,9394900,336,500.7,667.3,4216,left
19,2,binary,17,2,trial,9391982.0,9395031.0,3049.0,67,R,9394928,9395254,328,677.8,489.0,4076,left
19,2,binary,17,2,postResponse,9391982.0,9395031.0,3049.0,67,R,9395314,9395366,54,919.3,556.8,3995,NA
19,2,binary,18,1,fixationCross,9396115.0,9398732.0,2617.0,68,R,9395466,9395572,108,913.8,573.4,4068,NA
19,2,binary,18,1,fixationCross,9396115.0,9398732.0,2617.0,68,R,9395600,9395808,210,816.7,449.4,4236,NA
19,2,binary,18,1,fixationCross,9396115.0,9398732.0,2617.0,68,R,9395848,9396102,256,997.9,509.8,4310,NA
19,2,binary,18,1,trial,9396115.0,9398732.0,2617.0,68,R,9396120,9396276,158,957.4,521.3,4297,NA
19,2,binary,18,1,trial,9396115.0,9398732.0,2617.0,68,R,9396316,9396494,180,620.1,524.9,4295,left
19,2,binary,18,1,trial,9396115.0,9398732.0,2617.0,68,R,9396530,9396852,324,314.6,503.6,4177,left
19,2,binary,18,1,trial,9396115.0,9398732.0,2617.0,68,R,9396880,9397214,336,429.0,670.2,4115,left
19,2,binary,18,1,trial,9396115.0,9398732.0,2617.0,68,R,9397248,9397386,140,596.9,484.5,4066,left
19,2,binary,18,1,trial,9396115.0,9398732.0,2617.0,68,R,9397436,9397716,282,1398.9,499.0,4010,right
19,2,binary,18,1,trial,9396115.0,9398732.0,2617.0,68,R,9397742,9398004,264,1469.7,495.9,4045,right
19,2,binary,18,1,trial,9396115.0,9398732.0,2617.0,68,R,9398058,9398430,374,642.7,517.3,4150,left
19,2,binary,18,1,trial,9396115.0,9398732.0,2617.0,68,R,9398446,9398566,122,603.3,489.4,4157,left
19,2,binary,18,1,trial,9396115.0,9398732.0,2617.0,68,R,9398600,9398934,336,348.6,572.5,4166,left
19,2,binary,18,1,postResponse,9396115.0,9398732.0,2617.0,68,R,9398982,9399066,86,829.3,547.9,4142,NA
19,2,binary,19,1,fixationCross,9399632.0,9401615.0,1983.0,69,R,9399204,9399518,316,1025.2,536.0,4242,NA
19,2,binary,19,1,trial,9399632.0,9401615.0,1983.0,69,R,9399538,9399842,306,965.9,529.9,4404,NA
19,2,binary,19,1,trial,9399632.0,9401615.0,1983.0,69,R,9399882,9400156,276,1461.6,497.7,4188,right
19,2,binary,19,1,trial,9399632.0,9401615.0,1983.0,69,R,9400172,9400632,462,1499.6,499.2,4012,right
19,2,binary,19,1,trial,9399632.0,9401615.0,1983.0,69,R,9400650,9400828,180,1506.8,533.6,3963,right
19,2,binary,19,1,trial,9399632.0,9401615.0,1983.0,69,R,9400882,9401442,562,608.8,537.6,4129,left
19,2,binary,19,1,trial,9399632.0,9401615.0,1983.0,69,R,9401498,9401830,334,1502.6,540.1,3963,right
19,2,binary,19,1,postResponse,9399632.0,9401615.0,1983.0,69,R,9401886,9401952,68,1068.8,623.3,4014,NA
19,2,binary,20,2,fixationCross,9402682.0,9404298.0,1616.0,70,R,9402052,9402082,32,1053.6,615.4,4063,NA
19,2,binary,20,2,fixationCross,9402682.0,9404298.0,1616.0,70,R,9402108,9402388,282,859.9,563.9,4170,NA
19,2,binary,20,2,trial,9402682.0,9404298.0,1616.0,70,R,9402414,9402814,402,961.8,526.1,4194,NA
19,2,binary,20,2,trial,9402682.0,9404298.0,1616.0,70,R,9402854,9403096,244,559.4,526.0,4185,left
19,2,binary,20,2,trial,9402682.0,9404298.0,1616.0,70,R,9403120,9403288,170,455.5,604.0,4078,left
19,2,binary,20,2,trial,9402682.0,9404298.0,1616.0,70,R,9403342,9403560,220,1376.3,512.2,3930,right
19,2,binary,20,2,trial,9402682.0,9404298.0,1616.0,70,R,9403590,9403726,138,1586.1,555.5,3865,right
19,2,binary,20,2,trial,9402682.0,9404298.0,1616.0,70,R,9403750,9404062,314,1641.2,604.0,3969,right
19,2,binary,20,2,trial,9402682.0,9404298.0,1616.0,70,R,9404074,9404526,454,1630.9,625.5,4049,right
19,2,binary,20,2,postResponse,9402682.0,9404298.0,1616.0,70,R,9404582,9404632,52,1001.7,609.3,4231,NA
19,2,binary,21,2,fixationCross,9405215.0,9408998.0,3783.0,71,R,9404732,9404864,134,998.3,605.6,4254,NA
19,2,binary,21,2,fixationCross,9405215.0,9408998.0,3783.0,71,R,9404892,9405170,280,913.7,490.5,4267,NA
19,2,binary,21,2,trial,9405215.0,9408998.0,3783.0,71,R,9405190,9405436,248,962.4,510.1,4292,NA
19,2,binary,21,2,trial,9405215.0,9408998.0,3783.0,71,R,9405478,9405668,192,522.6,542.2,4328,left
19,2,binary,21,2,trial,9405215.0,9408998.0,3783.0,71,R,9405698,9406088,392,336.0,565.7,4116,left
19,2,binary,21,2,trial,9405215.0,9408998.0,3783.0,71,R,9406154,9406398,246,1573.4,481.9,3847,right
19,2,binary,21,2,trial,9405215.0,9408998.0,3783.0,71,R,9406424,9406744,322,1660.9,476.4,3853,right
19,2,binary,21,2,trial,9405215.0,9408998.0,3783.0,71,R,9406762,9407248,488,1660.6,433.7,3862,right
19,2,binary,21,2,trial,9405215.0,9408998.0,3783.0,71,R,9407288,9407466,180,1412.3,590.8,4040,right
19,2,binary,21,2,trial,9405215.0,9408998.0,3783.0,71,R,9407520,9407902,384,531.8,569.3,4154,left
19,2,binary,21,2,trial,9405215.0,9408998.0,3783.0,71,R,9407930,9408178,250,329.9,558.4,4062,left
19,2,binary,21,2,trial,9405215.0,9408998.0,3783.0,71,R,9408188,9408412,226,305.3,555.9,4013,left
19,2,binary,21,2,trial,9405215.0,9408998.0,3783.0,71,R,9408482,9408900,420,1420.8,690.5,3899,right
19,2,binary,21,2,trial,9405215.0,9408998.0,3783.0,71,R,9408934,9409198,266,1632.8,493.5,4087,right
19,2,binary,22,1,fixationCross,9410065.0,9413299.0,3234.0,72,R,9409436,9409744,310,1180.6,536.5,4239,NA
19,2,binary,22,1,trial,9410065.0,9413299.0,3234.0,72,R,9409776,9410210,436,934.2,525.1,4261,NA
19,2,binary,22,1,trial,9410065.0,9413299.0,3234.0,72,R,9410250,9410580,332,522.3,558.4,4154,left
19,2,binary,22,1,trial,9410065.0,9413299.0,3234.0,72,R,9410592,9410710,120,508.1,525.6,3992,left
19,2,binary,22,1,trial,9410065.0,9413299.0,3234.0,72,R,9410766,9410990,226,1412.4,591.3,3843,right
19,2,binary,22,1,trial,9410065.0,9413299.0,3234.0,72,R,9411012,9411614,604,1451.7,614.3,3869,right
19,2,binary,22,1,trial,9410065.0,9413299.0,3234.0,72,R,9411640,9411792,154,1497.5,573.9,3945,right
19,2,binary,22,1,trial,9410065.0,9413299.0,3234.0,72,R,9411852,9412082,232,542.7,570.0,4068,left
19,2,binary,22,1,trial,9410065.0,9413299.0,3234.0,72,R,9412102,9412424,324,498.4,542.9,4002,left
19,2,binary,22,1,trial,9410065.0,9413299.0,3234.0,72,R,9412446,9412534,90,547.1,516.7,3942,left
19,2,binary,22,1,trial,9410065.0,9413299.0,3234.0,72,R,9412588,9412988,402,1467.0,620.8,3881,right
19,2,binary,22,1,trial,9410065.0,9413299.0,3234.0,72,R,9413050,9413214,166,525.4,836.3,4050,NA
19,2,binary,22,1,trial,9410065.0,9413299.0,3234.0,72,R,9413256,9413512,258,514.1,574.1,4077,left
19,2,binary,23,2,fixationCross,9414349.0,9416099.0,1750.0,73,R,9413766,9414034,270,759.7,577.0,4155,NA
19,2,binary,23,2,fixationCross,9414349.0,9416099.0,1750.0,73,R,9414074,9414322,250,996.6,541.8,4184,NA
19,2,binary,23,2,trial,9414349.0,9416099.0,1750.0,73,R,9414342,9414494,154,945.4,534.6,4080,NA
19,2,binary,23,2,trial,9414349.0,9416099.0,1750.0,73,R,9414532,9414732,202,527.9,577.4,4068,left
19,2,binary,23,2,trial,9414349.0,9416099.0,1750.0,73,R,9414756,9415024,270,415.0,505.0,3979,left
19,2,binary,23,2,trial,9414349.0,9416099.0,1750.0,73,R,9415086,9415342,258,1439.0,582.0,3850,right
19,2,binary,23,2,trial,9414349.0,9416099.0,1750.0,73,R,9415366,9415908,544,1514.8,592.8,3911,right
19,2,binary,23,2,trial,9414349.0,9416099.0,1750.0,73,R,9415930,9416350,422,1561.5,546.4,3981,right
19,2,binary,23,2,postResponse,9414349.0,9416099.0,1750.0,73,R,9416396,9416432,38,1162.8,587.4,4075,NA
19,2,binary,24,1,fixationCross,9416965.0,9419932.0,2967.0,74,R,9416506,9416612,108,1148.3,589.0,4147,NA
19,2,binary,24,1,trial,9416965.0,9419932.0,2967.0,74,R,9416648,9417110,464,934.4,534.1,4290,NA
19,2,binary,24,1,trial,9416965.0,9419932.0,2967.0,74,R,9417152,9417342,192,537.5,575.2,4393,left
19,2,binary,24,1,trial,9416965.0,9419932.0,2967.0,74,R,9417366,9417644,280,436.3,594.0,4247,left
19,2,binary,24,1,trial,9416965.0,9419932.0,2967.0,74,R,9417672,9418276,606,605.8,562.9,4149,left
19,2,binary,24,1,trial,9416965.0,9419932.0,2967.0,74,R,9418334,9418600,268,1439.8,575.7,4170,right
19,2,binary,24,1,trial,9416965.0,9419932.0,2967.0,74,R,9418624,9419066,444,1499.8,586.7,4078,right
19,2,binary,24,1,trial,9416965.0,9419932.0,2967.0,74,R,9419086,9419136,52,1492.7,545.5,4010,right
19,2,binary,24,1,trial,9416965.0,9419932.0,2967.0,74,R,9419198,9419494,298,553.3,500.4,4188,left
19,2,binary,24,1,trial,9416965.0,9419932.0,2967.0,74,R,9419520,9419794,276,683.5,437.4,4216,left
19,2,binary,24,1,postResponse,9416965.0,9419932.0,2967.0,74,R,9419814,9420268,456,712.1,483.1,4227,left
19,2,binary,25,2,fixationCross,9421082.0,9424115.0,3033.0,75,R,9420342,9420462,122,704.5,486.6,4302,left
19,2,binary,25,2,fixationCross,9421082.0,9424115.0,3033.0,75,R,9420484,9420782,300,795.6,543.5,4465,NA
19,2,binary,25,2,trial,9421082.0,9424115.0,3033.0,75,R,9420820,9421280,462,954.5,535.6,4445,NA
19,2,binary,25,2,trial,9421082.0,9424115.0,3033.0,75,R,9421320,9421442,124,589.4,545.8,4370,left
19,2,binary,25,2,trial,9421082.0,9424115.0,3033.0,75,R,9421468,9421722,256,456.1,545.3,4297,left
19,2,binary,25,2,trial,9421082.0,9424115.0,3033.0,75,R,9421748,9422016,270,524.9,623.9,4170,left
19,2,binary,25,2,trial,9421082.0,9424115.0,3033.0,75,R,9422070,9422266,198,1396.0,522.8,4102,right
19,2,binary,25,2,trial,9421082.0,9424115.0,3033.0,75,R,9422296,9422384,90,1590.0,441.8,4048,right
19,2,binary,25,2,trial,9421082.0,9424115.0,3033.0,75,R,9422444,9422632,190,600.5,648.5,4308,left
19,2,binary,25,2,trial,9421082.0,9424115.0,3033.0,75,R,9422656,9422860,206,518.5,632.9,4399,left
19,2,binary,25,2,trial,9421082.0,9424115.0,3033.0,75,R,9422880,9423070,192,482.7,583.2,4281,left
19,2,binary,25,2,trial,9421082.0,9424115.0,3033.0,75,R,9423126,9423278,154,1437.3,496.3,4101,right
19,2,binary,25,2,trial,9421082.0,9424115.0,3033.0,75,R,9423308,9423750,444,1578.8,479.4,4171,right
19,2,binary,25,2,trial,9421082.0,9424115.0,3033.0,75,R,9423790,9423886,98,1377.3,467.4,4404,right
19,2,binary,25,2,trial,9421082.0,9424115.0,3033.0,75,R,9423946,9424128,184,625.6,532.9,4443,left
19,2,binary,25,2,trial,9421082.0,9424115.0,3033.0,75,R,9424154,9424322,170,509.7,547.6,4398,left
19,2,binary,26,1,fixationCross,9450766.0,9453666.0,2900.0,76,R,9450105,9450447,344,906.9,404.7,3969,NA
19,2,binary,26,1,fixationCross,9450766.0,9453666.0,2900.0,76,R,9450473,9450733,262,976.3,517.4,4114,NA
19,2,binary,26,1,trial,9450766.0,9453666.0,2900.0,76,R,9450745,9451093,350,955.0,532.6,4101,NA
19,2,binary,26,1,trial,9450766.0,9453666.0,2900.0,76,R,9451147,9451371,226,512.5,697.6,4100,left
19,2,binary,26,1,trial,9450766.0,9453666.0,2900.0,76,R,9451405,9451601,198,516.8,973.4,4137,NA
19,2,binary,26,1,trial,9450766.0,9453666.0,2900.0,76,R,9451647,9451855,210,522.5,526.8,4041,left
19,2,binary,26,1,trial,9450766.0,9453666.0,2900.0,76,R,9451879,9452005,128,471.0,591.0,4037,left
19,2,binary,26,1,trial,9450766.0,9453666.0,2900.0,76,R,9452061,9452257,198,1484.8,492.7,3919,right
19,2,binary,26,1,trial,9450766.0,9453666.0,2900.0,76,R,9452281,9452707,428,1403.9,449.6,3853,right
19,2,binary,26,1,trial,9450766.0,9453666.0,2900.0,76,R,9452729,9452905,178,1465.2,416.7,3757,right
19,2,binary,26,1,trial,9450766.0,9453666.0,2900.0,76,R,9452961,9453291,332,568.4,607.6,3902,left
19,2,binary,26,1,postResponse,9450766.0,9453666.0,2900.0,76,R,9453309,9454001,694,508.0,602.1,3961,left
19,2,binary,27,2,fixationCross,9454749.0,9457266.0,2517.0,77,R,9454109,9454429,322,652.0,568.4,4087,left
19,2,binary,27,2,fixationCross,9454749.0,9457266.0,2517.0,77,R,9454459,9454643,186,922.4,533.1,4096,NA
19,2,binary,27,2,trial,9454749.0,9457266.0,2517.0,77,R,9454653,9454885,234,951.2,531.8,4078,NA
19,2,binary,27,2,trial,9454749.0,9457266.0,2517.0,77,R,9454933,9455297,366,501.4,551.4,4100,left
19,2,binary,27,2,trial,9454749.0,9457266.0,2517.0,77,R,9455361,9455593,234,1437.1,528.8,3825,right
19,2,binary,27,2,trial,9454749.0,9457266.0,2517.0,77,R,9455611,9455909,300,1489.1,536.0,3784,right
19,2,binary,27,2,trial,9454749.0,9457266.0,2517.0,77,R,9455933,9456077,146,1434.6,642.4,3821,right
19,2,binary,27,2,trial,9454749.0,9457266.0,2517.0,77,R,9456137,9456453,318,476.8,667.8,3935,left
19,2,binary,27,2,trial,9454749.0,9457266.0,2517.0,77,R,9456485,9456879,396,544.1,512.4,3847,left
19,2,binary,27,2,trial,9454749.0,9457266.0,2517.0,77,R,9456943,9457045,104,1387.7,846.9,3908,NA
19,2,binary,27,2,trial,9454749.0,9457266.0,2517.0,77,R,9457069,9457199,132,1447.2,952.4,3924,NA
19,2,binary,27,2,trial,9454749.0,9457266.0,2517.0,77,R,9457235,9457489,256,1506.5,546.6,3987,right
19,2,binary,27,2,postResponse,9454749.0,9457266.0,2517.0,77,R,9457507,9457599,94,1279.1,571.0,4032,right
19,2,binary,28,1,fixationCross,9458149.0,9460416.0,2267.0,78,R,9457673,9457813,142,1201.6,638.2,4080,right
19,2,binary,28,1,fixationCross,9458149.0,9460416.0,2267.0,78,R,9457843,9458067,226,1014.5,544.0,4189,NA
19,2,binary,28,1,trial,9458149.0,9460416.0,2267.0,78,R,9458085,9458299,216,968.0,541.6,4268,NA
19,2,binary,28,1,trial,9458149.0,9460416.0,2267.0,78,R,9458343,9458579,238,462.4,547.0,4230,left
19,2,binary,28,1,trial,9458149.0,9460416.0,2267.0,78,R,9458603,9458817,216,478.1,467.7,4018,left
19,2,binary,28,1,trial,9458149.0,9460416.0,2267.0,78,R,9458873,9459109,238,1477.8,507.3,3798,right
19,2,binary,28,1,trial,9458149.0,9460416.0,2267.0,78,R,9459137,9459487,352,1609.1,413.4,3755,right
19,2,binary,28,1,trial,9458149.0,9460416.0,2267.0,78,R,9459557,9459865,310,450.0,814.8,3954,NA
19,2,binary,28,1,trial,9458149.0,9460416.0,2267.0,78,R,9459895,9460201,308,484.4,631.7,4107,left
19,2,binary,28,1,trial,9458149.0,9460416.0,2267.0,78,R,9460229,9460715,488,471.1,486.4,4014,left
19,2,binary,29,2,fixationCross,9461482.0,9464916.0,3434.0,79,R,9460825,9460959,136,997.0,595.8,4049,NA
19,2,binary,29,2,fixationCross,9461482.0,9464916.0,3434.0,79,R,9460989,9461181,194,822.6,524.8,4165,NA
19,2,binary,29,2,trial,9461482.0,9464916.0,3434.0,79,R,9461217,9461617,402,963.1,535.8,4209,NA
19,2,binary,29,2,trial,9461482.0,9464916.0,3434.0,79,R,9461659,9461913,256,561.0,578.7,4218,left
19,2,binary,29,2,trial,9461482.0,9464916.0,3434.0,79,R,9461967,9462137,172,1464.1,464.5,3970,right
19,2,binary,29,2,trial,9461482.0,9464916.0,3434.0,79,R,9462157,9462397,242,1401.9,470.8,3944,right
19,2,binary,29,2,trial,9461482.0,9464916.0,3434.0,79,R,9462453,9463153,702,565.0,548.7,3916,left
19,2,binary,29,2,trial,9461482.0,9464916.0,3434.0,79,R,9463185,9464033,850,378.2,598.4,4019,left
19,2,binary,29,2,trial,9461482.0,9464916.0,3434.0,79,R,9464093,9464509,418,1318.9,586.3,4107,right
19,2,binary,29,2,trial,9461482.0,9464916.0,3434.0,79,R,9464533,9464653,122,1431.9,595.9,4038,right
19,2,binary,29,2,postResponse,9461482.0,9464916.0,3434.0,79,R,9464709,9465259,552,569.0,555.3,4124,left
19,2,binary,30,1,fixationCross,9465849.0,9468850.0,3001.0,80,R,9465359,9465759,402,997.9,531.5,4151,NA
19,2,binary,30,1,trial,9465849.0,9468850.0,3001.0,80,R,9465777,9465997,222,956.2,531.7,4206,NA
19,2,binary,30,1,trial,9465849.0,9468850.0,3001.0,80,R,9466041,9466243,204,485.6,504.8,4206,left
19,2,binary,30,1,trial,9465849.0,9468850.0,3001.0,80,R,9466267,9466461,196,524.7,452.2,4083,left
19,2,binary,30,1,trial,9465849.0,9468850.0,3001.0,80,R,9466519,9466785,268,1479.3,528.8,3920,right
19,2,binary,30,1,trial,9465849.0,9468850.0,3001.0,80,R,9466809,9467161,354,1347.7,595.3,3965,right
19,2,binary,30,1,trial,9465849.0,9468850.0,3001.0,80,R,9467217,9467539,324,508.0,467.3,4014,left
19,2,binary,30,1,trial,9465849.0,9468850.0,3001.0,80,R,9467559,9467735,178,519.5,402.1,3974,left
19,2,binary,30,1,trial,9465849.0,9468850.0,3001.0,80,R,9467795,9468231,438,1537.7,495.0,3897,right
19,2,binary,30,1,trial,9465849.0,9468850.0,3001.0,80,R,9468289,9468531,244,595.3,581.0,4101,left
19,2,binary,30,1,postResponse,9465849.0,9468850.0,3001.0,80,R,9468557,9469183,628,496.7,538.9,4079,left
19,2,binary,31,1,fixationCross,9469949.0,9471599.0,1650.0,81,R,9469283,9469321,40,490.8,541.2,4072,left
19,2,binary,31,1,fixationCross,9469949.0,9471599.0,1650.0,81,R,9469367,9469629,264,805.9,492.2,4056,NA
19,2,binary,31,1,trial,9469949.0,9471599.0,1650.0,81,R,9469657,9470075,420,950.8,516.4,4144,NA
19,2,binary,31,1,trial,9469949.0,9471599.0,1650.0,81,R,9470115,9470323,210,522.4,560.5,4270,left
19,2,binary,31,1,trial,9469949.0,9471599.0,1650.0,81,R,9470345,9470607,264,458.6,609.0,4072,left
19,2,binary,31,1,trial,9469949.0,9471599.0,1650.0,81,R,9470665,9471023,360,1507.6,539.7,3765,right
19,2,binary,31,1,trial,9469949.0,9471599.0,1650.0,81,R,9471081,9471439,360,519.1,621.6,3940,left
19,2,binary,31,1,postResponse,9469949.0,9471599.0,1650.0,81,R,9471463,9471933,472,415.5,623.1,3915,left
19,2,binary,32,2,fixationCross,9472666.0,9474166.0,1500.0,82,R,9472007,9472033,28,417.5,623.0,3945,left
19,2,binary,32,2,fixationCross,9472666.0,9474166.0,1500.0,82,R,9472081,9472365,286,811.6,528.5,4059,NA
19,2,binary,32,2,trial,9472666.0,9474166.0,1500.0,82,R,9472391,9472813,424,955.7,531.1,4177,NA
19,2,binary,32,2,trial,9472666.0,9474166.0,1500.0,82,R,9472855,9473061,208,522.7,531.5,4250,left
19,2,binary,32,2,trial,9472666.0,9474166.0,1500.0,82,R,9473087,9473191,106,593.0,477.7,4140,left
19,2,binary,32,2,trial,9472666.0,9474166.0,1500.0,82,R,9473253,9473423,172,1566.0,471.9,3917,right
19,2,binary,32,2,trial,9472666.0,9474166.0,1500.0,82,R,9473447,9473603,158,1583.9,402.1,3880,right
19,2,binary,32,2,trial,9472666.0,9474166.0,1500.0,82,R,9473637,9473975,340,1364.7,583.3,4043,right
19,2,binary,32,2,trial,9472666.0,9474166.0,1500.0,82,R,9474007,9474365,360,1553.4,451.2,4006,right
19,2,binary,32,2,postResponse,9472666.0,9474166.0,1500.0,82,R,9474415,9474501,88,1099.3,563.4,4044,NA
19,2,binary,33,2,fixationCross,9475049.0,9476950.0,1901.0,83,R,9474575,9474689,116,1065.1,574.5,4128,NA
19,2,binary,33,2,fixationCross,9475049.0,9476950.0,1901.0,83,R,9474717,9475035,320,868.6,529.8,4248,NA
19,2,binary,33,2,trial,9475049.0,9476950.0,1901.0,83,R,9475057,9475203,148,948.7,530.5,4215,NA
19,2,binary,33,2,trial,9475049.0,9476950.0,1901.0,83,R,9475241,9475421,182,570.2,555.3,4198,left
19,2,binary,33,2,trial,9475049.0,9476950.0,1901.0,83,R,9475453,9475711,260,346.6,517.7,4018,left
19,2,binary,33,2,trial,9475049.0,9476950.0,1901.0,83,R,9475773,9475999,228,1510.5,496.9,3847,right
19,2,binary,33,2,trial,9475049.0,9476950.0,1901.0,83,R,9476023,9476163,142,1607.7,472.4,3827,right
19,2,binary,33,2,trial,9475049.0,9476950.0,1901.0,83,R,9476185,9476431,248,1641.4,446.5,3830,right
19,2,binary,33,2,postResponse,9475049.0,9476950.0,1901.0,83,R,9476461,9477285,826,1367.1,580.7,4016,right
19,2,binary,34,1,fixationCross,9478033.0,9480400.0,2367.0,84,R,9477361,9477731,372,849.0,520.0,4172,NA
19,2,binary,34,1,trial,9478033.0,9480400.0,2367.0,84,R,9477751,9478179,430,906.4,522.4,4215,NA
19,2,binary,34,1,trial,9478033.0,9480400.0,2367.0,84,R,9478217,9478469,254,578.2,567.1,4198,left
19,2,binary,34,1,trial,9478033.0,9480400.0,2367.0,84,R,9478493,9478813,322,623.9,499.8,4004,left
19,2,binary,34,1,trial,9478033.0,9480400.0,2367.0,84,R,9478867,9479711,846,1447.0,518.7,3870,right
19,2,binary,34,1,trial,9478033.0,9480400.0,2367.0,84,R,9479765,9479939,176,641.3,896.8,3973,NA
19,2,binary,34,1,trial,9478033.0,9480400.0,2367.0,84,R,9479979,9480245,268,598.6,595.1,3987,left
19,2,binary,34,1,trial,9478033.0,9480400.0,2367.0,84,R,9480271,9480611,342,478.6,543.4,3966,left
19,2,binary,35,1,fixationCross,9481466.0,9484183.0,2717.0,85,R,9480833,9481157,326,790.7,550.0,4088,NA
19,2,binary,35,1,trial,9481466.0,9484183.0,2717.0,85,R,9481185,9481627,444,966.2,542.3,4118,NA
19,2,binary,35,1,trial,9481466.0,9484183.0,2717.0,85,R,9481667,9481973,308,579.1,661.4,4141,left
19,2,binary,35,1,trial,9481466.0,9484183.0,2717.0,85,R,9482017,9482139,124,944.8,888.8,4098,likertHorizontal
19,2,binary,35,1,trial,9481466.0,9484183.0,2717.0,85,R,9482187,9482783,598,1451.6,523.5,4013,right
19,2,binary,35,1,trial,9481466.0,9484183.0,2717.0,85,R,9482845,9483125,282,483.7,628.6,3979,left
19,2,binary,35,1,trial,9481466.0,9484183.0,2717.0,85,R,9483151,9483385,236,361.6,637.5,3970,left
19,2,binary,35,1,trial,9481466.0,9484183.0,2717.0,85,R,9483415,9484069,656,622.4,657.8,4082,left
19,2,binary,35,1,trial,9481466.0,9484183.0,2717.0,85,R,9484121,9484379,260,1464.1,529.7,4110,right
19,2,binary,36,1,fixationCross,9485100.0,9486899.0,1799.0,86,R,9484661,9485035,376,1002.3,559.6,4142,NA
19,2,binary,36,1,trial,9485100.0,9486899.0,1799.0,86,R,9485051,9485259,210,948.1,544.6,4150,NA
19,2,binary,36,1,trial,9485100.0,9486899.0,1799.0,86,R,9485297,9485527,232,546.3,620.4,4022,left
19,2,binary,36,1,trial,9485100.0,9486899.0,1799.0,86,R,9485551,9485841,292,457.6,669.8,3917,left
19,2,binary,36,1,trial,9485100.0,9486899.0,1799.0,86,R,9485897,9486391,496,1485.9,569.6,3752,right
19,2,binary,36,1,postResponse,9485100.0,9486899.0,1799.0,86,R,9486447,9487233,788,518.4,649.5,3951,left
19,2,binary,37,2,fixationCross,9487950.0,9490900.0,2950.0,87,R,9487307,9487381,76,517.2,652.0,4077,left
19,2,binary,37,2,fixationCross,9487950.0,9490900.0,2950.0,87,R,9487411,9487659,250,793.7,547.8,4144,NA
19,2,binary,37,2,trial,9487950.0,9490900.0,2950.0,87,R,9487687,9488105,420,965.3,540.1,4281,NA
19,2,binary,37,2,trial,9487950.0,9490900.0,2950.0,87,R,9488155,9488533,380,527.7,601.2,4398,left
19,2,binary,37,2,trial,9487950.0,9490900.0,2950.0,87,R,9488589,9488925,338,1451.3,557.0,4121,right
19,2,binary,37,2,trial,9487950.0,9490900.0,2950.0,87,R,9488945,9489253,310,1413.7,628.8,4185,right
19,2,binary,37,2,trial,9487950.0,9490900.0,2950.0,87,R,9489281,9489553,274,1576.0,617.5,4129,right
19,2,binary,37,2,trial,9487950.0,9490900.0,2950.0,87,R,9489577,9489759,184,1560.5,537.2,4032,right
19,2,binary,37,2,trial,9487950.0,9490900.0,2950.0,87,R,9489783,9489911,130,1482.9,443.7,4001,right
19,2,binary,37,2,trial,9487950.0,9490900.0,2950.0,87,R,9489971,9490327,358,490.5,605.7,4126,left
19,2,binary,37,2,trial,9487950.0,9490900.0,2950.0,87,R,9490357,9490693,338,563.7,594.1,4080,left
19,2,binary,37,2,postResponse,9487950.0,9490900.0,2950.0,87,R,9490749,9491233,486,1435.4,559.8,4068,right
19,2,binary,38,2,fixationCross,9491933.0,9495916.0,3983.0,88,R,9491307,9491333,28,1430.2,565.0,4205,right
19,2,binary,38,2,fixationCross,9491933.0,9495916.0,3983.0,88,R,9491371,9491625,256,1105.9,498.0,4337,NA
19,2,binary,38,2,trial,9491933.0,9495916.0,3983.0,88,R,9491653,9492097,446,944.5,514.8,4340,NA
19,2,binary,38,2,trial,9491933.0,9495916.0,3983.0,88,R,9492137,9492369,234,580.6,591.0,4348,left
19,2,binary,38,2,trial,9491933.0,9495916.0,3983.0,88,R,9492409,9492627,220,381.7,442.9,4130,left
19,2,binary,38,2,trial,9491933.0,9495916.0,3983.0,88,R,9492649,9492943,296,318.3,422.0,3987,left
19,2,binary,38,2,trial,9491933.0,9495916.0,3983.0,88,R,9492969,9493225,258,441.6,424.1,3957,left
19,2,binary,38,2,trial,9491933.0,9495916.0,3983.0,88,R,9493239,9493635,398,407.0,428.4,3985,left
19,2,binary,38,2,trial,9491933.0,9495916.0,3983.0,88,R,9493651,9494061,412,457.3,426.5,4025,left
19,2,binary,38,2,trial,9491933.0,9495916.0,3983.0,88,R,9494117,9494391,276,1397.8,475.1,4015,right
19,2,binary,38,2,trial,9491933.0,9495916.0,3983.0,88,R,9494415,9494687,274,1492.6,541.1,4032,right
19,2,binary,38,2,trial,9491933.0,9495916.0,3983.0,88,R,9494713,9494969,258,1629.9,518.2,3957,right
19,2,binary,38,2,trial,9491933.0,9495916.0,3983.0,88,R,9494997,9495213,218,1525.8,380.8,3883,right
19,2,binary,38,2,trial,9491933.0,9495916.0,3983.0,88,R,9495265,9495361,98,1376.9,897.9,3960,NA
19,2,binary,38,2,trial,9491933.0,9495916.0,3983.0,88,R,9495387,9495765,380,1461.9,1000.3,4085,NA
19,2,binary,38,2,trial,9491933.0,9495916.0,3983.0,88,R,9495811,9496133,324,1491.0,522.2,4102,right
19,2,binary,39,2,fixationCross,9496833.0,9499433.0,2600.0,89,R,9496453,9496721,270,874.4,554.3,4198,NA
19,2,binary,39,2,trial,9496833.0,9499433.0,2600.0,89,R,9496747,9496983,238,946.2,546.0,4117,NA
19,2,binary,39,2,trial,9496833.0,9499433.0,2600.0,89,R,9497025,9497265,242,542.8,577.4,3957,left
19,2,binary,39,2,trial,9496833.0,9499433.0,2600.0,89,R,9497285,9497507,224,478.1,609.1,3890,left
19,2,binary,39,2,trial,9496833.0,9499433.0,2600.0,89,R,9497561,9497753,194,1381.8,439.7,3793,right
19,2,binary,39,2,trial,9496833.0,9499433.0,2600.0,89,R,9497781,9498065,286,1518.2,497.9,3812,right
19,2,binary,39,2,trial,9496833.0,9499433.0,2600.0,89,R,9498091,9498497,408,1379.2,370.8,3891,right
19,2,binary,39,2,trial,9496833.0,9499433.0,2600.0,89,R,9498527,9499275,750,1516.9,515.9,4003,right
19,2,binary,39,2,trial,9496833.0,9499433.0,2600.0,89,R,9499303,9499655,354,1379.6,392.8,4063,right
19,2,binary,40,2,fixationCross,9500333.0,9502784.0,2451.0,90,R,9499991,9500233,244,869.0,552.5,4229,NA
19,2,binary,40,2,trial,9500333.0,9502784.0,2451.0,90,R,9500259,9500507,250,948.1,541.4,4246,NA
19,2,binary,40,2,trial,9500333.0,9502784.0,2451.0,90,R,9500547,9500797,252,501.1,561.6,4004,left
19,2,binary,40,2,trial,9500333.0,9502784.0,2451.0,90,R,9500815,9500927,114,478.0,616.2,3914,left
19,2,binary,40,2,trial,9500333.0,9502784.0,2451.0,90,R,9500983,9501217,236,1461.7,455.4,3855,right
19,2,binary,40,2,trial,9500333.0,9502784.0,2451.0,90,R,9501231,9501643,414,1443.5,420.8,3755,right
19,2,binary,40,2,trial,9500333.0,9502784.0,2451.0,90,R,9501671,9502105,436,1333.8,565.6,3842,right
19,2,binary,40,2,trial,9500333.0,9502784.0,2451.0,90,R,9502133,9502427,296,1484.4,531.2,3900,right
19,2,binary,40,2,trial,9500333.0,9502784.0,2451.0,90,R,9502489,9502663,176,476.9,539.3,4059,left
19,2,binary,40,2,postResponse,9500333.0,9502784.0,2451.0,90,R,9502687,9503119,434,531.2,579.3,4162,left
19,2,binary,41,1,fixationCross,9503700.0,9505550.0,1850.0,91,R,9503253,9503569,318,861.4,533.6,4227,NA
19,2,binary,41,1,trial,9503700.0,9505550.0,1850.0,91,R,9503591,9503837,248,941.0,532.2,4188,NA
19,2,binary,41,1,trial,9503700.0,9505550.0,1850.0,91,R,9503879,9504127,250,512.2,516.0,4209,left
19,2,binary,41,1,trial,9503700.0,9505550.0,1850.0,91,R,9504143,9504523,382,462.7,476.8,3965,left
19,2,binary,41,1,trial,9503700.0,9505550.0,1850.0,91,R,9504581,9505165,586,1429.1,478.1,3839,right
19,2,binary,41,1,trial,9503700.0,9505550.0,1850.0,91,R,9505189,9505301,114,1560.4,464.1,3927,right
19,2,binary,41,1,trial,9503700.0,9505550.0,1850.0,91,R,9505363,9505499,138,516.1,570.7,4050,left
19,2,binary,41,1,trial,9503700.0,9505550.0,1850.0,91,R,9505539,9505811,274,499.9,916.1,4073,NA
19,2,binary,42,2,fixationCross,9506617.0,9509150.0,2533.0,92,R,9506069,9506307,240,782.5,534.6,4096,NA
19,2,binary,42,2,trial,9506617.0,9509150.0,2533.0,92,R,9506345,9506739,396,966.4,537.4,4130,NA
19,2,binary,42,2,trial,9506617.0,9509150.0,2533.0,92,R,9506781,9507059,280,519.3,565.2,4114,left
19,2,binary,42,2,trial,9506617.0,9509150.0,2533.0,92,R,9507079,9507455,378,455.7,547.7,4028,left
19,2,binary,42,2,trial,9506617.0,9509150.0,2533.0,92,R,9507481,9507727,248,545.2,564.0,3921,left
19,2,binary,42,2,trial,9506617.0,9509150.0,2533.0,92,R,9507749,9507899,152,459.0,576.1,3905,left
19,2,binary,42,2,trial,9506617.0,9509150.0,2533.0,92,R,9507957,9508213,258,1420.3,563.4,3857,right
19,2,binary,42,2,trial,9506617.0,9509150.0,2533.0,92,R,9508241,9508491,252,1567.0,549.8,3831,right
19,2,binary,42,2,trial,9506617.0,9509150.0,2533.0,92,R,9508515,9509011,498,1622.7,552.5,3847,right
19,2,binary,42,2,trial,9506617.0,9509150.0,2533.0,92,R,9509031,9509145,116,1685.7,544.0,3874,right
