participantNo,block,task,blockTrial,response,trialStage,trialStartTime,trialFinishTime,rt,trial,eye,fixStart,fixEnd,fixLength,fixPosX,fixPosY,dilation,aoi
25,1,continuous,1,11,fixationCross,6310934.0,6318902.0,7968.0,1,R,6310430,6310860,432,985.9,536.8,6601,NA
25,1,continuous,1,11,trial,6310934.0,6318902.0,7968.0,1,R,6310872,6311078,208,971.6,558.8,6411,NA
25,1,continuous,1,11,trial,6310934.0,6318902.0,7968.0,1,R,6311136,6311364,230,529.6,542.5,6561,left
25,1,continuous,1,11,trial,6310934.0,6318902.0,7968.0,1,R,6311384,6311920,538,399.3,523.3,5683,left
25,1,continuous,1,11,trial,6310934.0,6318902.0,7968.0,1,R,6311940,6312250,312,492.9,560.5,5281,left
25,1,continuous,1,11,trial,6310934.0,6318902.0,7968.0,1,R,6312326,6312694,370,1356.2,534.5,5229,right
25,1,continuous,1,11,trial,6310934.0,6318902.0,7968.0,1,R,6312722,6312942,222,1522.7,586.5,5211,right
25,1,continuous,1,11,trial,6310934.0,6318902.0,7968.0,1,R,6312960,6313276,318,1613.5,615.0,5342,right
25,1,continuous,1,11,trial,6310934.0,6318902.0,7968.0,1,R,6313292,6313434,144,1608.0,667.6,5339,right
25,1,continuous,1,11,trial,6310934.0,6318902.0,7968.0,1,R,6313488,6314396,910,1278.8,472.2,5268,right
25,1,continuous,1,11,trial,6310934.0,6318902.0,7968.0,1,R,6314458,6314948,492,897.7,935.9,5761,likertHorizontal
25,1,continuous,1,11,trial,6310934.0,6318902.0,7968.0,1,R,6314972,6315118,148,814.5,1004.3,5925,likertHorizontal
25,1,continuous,1,11,trial,6310934.0,6318902.0,7968.0,1,R,6315172,6315328,158,521.1,769.6,5867,NA
25,1,continuous,1,11,trial,6310934.0,6318902.0,7968.0,1,R,6315378,6315614,238,443.3,531.1,5619,left
25,1,continuous,1,11,trial,6310934.0,6318902.0,7968.0,1,R,6315632,6315962,332,367.7,521.3,5236,left
25,1,continuous,1,11,trial,6310934.0,6318902.0,7968.0,1,R,6316070,6316336,268,400.4,1087.3,5142,NA
25,1,continuous,1,11,trial,6310934.0,6318902.0,7968.0,1,R,6316416,6316702,288,1335.1,571.5,5243,right
25,1,continuous,1,11,trial,6310934.0,6318902.0,7968.0,1,R,6316732,6316936,206,1533.2,597.5,5283,right
25,1,continuous,1,11,trial,6310934.0,6318902.0,7968.0,1,R,6316952,6317246,296,1605.8,625.5,5346,right
25,1,continuous,1,11,trial,6310934.0,6318902.0,7968.0,1,R,6317258,6317416,160,1603.4,658.0,5333,right
25,1,continuous,1,11,trial,6310934.0,6318902.0,7968.0,1,R,6317460,6317686,228,1304.4,515.5,5369,right
25,1,continuous,1,11,trial,6310934.0,6318902.0,7968.0,1,R,6317710,6318002,294,1231.6,433.8,5232,right
25,1,continuous,1,11,trial,6310934.0,6318902.0,7968.0,1,R,6318090,6318350,262,437.1,541.3,5325,left
25,1,continuous,1,11,trial,6310934.0,6318902.0,7968.0,1,R,6318368,6318624,258,348.9,523.8,5115,left
25,1,continuous,1,11,trial,6310934.0,6318902.0,7968.0,1,R,6318642,6318730,90,422.5,542.7,4894,left
25,1,continuous,1,11,trial,6310934.0,6318902.0,7968.0,1,R,6318842,6319148,308,416.2,548.1,4778,left
25,1,continuous,1,11,postResponse,6310934.0,6318902.0,7968.0,1,R,6319186,6319270,86,718.5,568.6,4868,left
25,1,continuous,2,49,fixationCross,6320002.0,6330052.0,10050.0,2,R,6319370,6319436,68,720.7,565.9,4924,left
25,1,continuous,2,49,fixationCross,6320002.0,6330052.0,10050.0,2,R,6319476,6319858,384,986.1,477.5,5195,NA
25,1,continuous,2,49,trial,6320002.0,6330052.0,10050.0,2,R,6319882,6320162,282,926.7,568.0,5675,NA
25,1,continuous,2,49,trial,6320002.0,6330052.0,10050.0,2,R,6320216,6320534,320,533.4,537.0,5801,left
25,1,continuous,2,49,trial,6320002.0,6330052.0,10050.0,2,R,6320556,6321050,496,393.0,497.5,5385,left
25,1,continuous,2,49,trial,6320002.0,6330052.0,10050.0,2,R,6321070,6321690,622,462.8,554.9,5441,left
25,1,continuous,2,49,trial,6320002.0,6330052.0,10050.0,2,R,6321708,6321978,272,543.5,596.6,5643,left
25,1,continuous,2,49,trial,6320002.0,6330052.0,10050.0,2,R,6322002,6322212,212,453.0,564.4,5588,left
25,1,continuous,2,49,trial,6320002.0,6330052.0,10050.0,2,R,6322236,6322530,296,389.1,488.0,5495,left
25,1,continuous,2,49,trial,6320002.0,6330052.0,10050.0,2,R,6322606,6322780,176,1476.9,601.9,5219,right
25,1,continuous,2,49,trial,6320002.0,6330052.0,10050.0,2,R,6322802,6323170,370,1367.1,628.9,5101,right
25,1,continuous,2,49,trial,6320002.0,6330052.0,10050.0,2,R,6323202,6323460,260,1455.6,492.2,4876,right
25,1,continuous,2,49,trial,6320002.0,6330052.0,10050.0,2,R,6323472,6323602,132,1442.7,517.5,4841,right
25,1,continuous,2,49,trial,6320002.0,6330052.0,10050.0,2,R,6323854,6324246,394,1448.8,452.7,4934,right
25,1,continuous,2,49,trial,6320002.0,6330052.0,10050.0,2,R,6324268,6324454,188,1411.5,571.2,5072,right
25,1,continuous,2,49,trial,6320002.0,6330052.0,10050.0,2,R,6324526,6325014,490,530.8,585.2,5088,left
25,1,continuous,2,49,trial,6320002.0,6330052.0,10050.0,2,R,6325050,6325606,558,374.0,470.3,5136,left
25,1,continuous,2,49,trial,6320002.0,6330052.0,10050.0,2,R,6325632,6325830,200,523.3,534.4,5300,left
25,1,continuous,2,49,trial,6320002.0,6330052.0,10050.0,2,R,6325848,6326138,292,551.7,592.9,5371,left
25,1,continuous,2,49,trial,6320002.0,6330052.0,10050.0,2,R,6326202,6326662,462,1341.3,607.4,5377,right
25,1,continuous,2,49,trial,6320002.0,6330052.0,10050.0,2,R,6326692,6326902,212,1498.9,572.7,5176,right
25,1,continuous,2,49,trial,6320002.0,6330052.0,10050.0,2,R,6326926,6327096,172,1461.0,481.8,5038,right
25,1,continuous,2,49,trial,6320002.0,6330052.0,10050.0,2,R,6327118,6327536,420,1332.4,496.3,4972,right
25,1,continuous,2,49,trial,6320002.0,6330052.0,10050.0,2,R,6327554,6327662,110,1243.2,495.6,4993,right
25,1,continuous,2,49,trial,6320002.0,6330052.0,10050.0,2,R,6327734,6328176,444,449.0,541.0,5120,left
25,1,continuous,2,49,trial,6320002.0,6330052.0,10050.0,2,R,6328200,6328580,382,304.4,593.0,5218,left
25,1,continuous,2,49,trial,6320002.0,6330052.0,10050.0,2,R,6328620,6328902,284,549.2,510.3,5405,left
25,1,continuous,2,49,trial,6320002.0,6330052.0,10050.0,2,R,6328966,6329116,152,763.4,944.4,5440,likertHorizontal
25,1,continuous,2,49,trial,6320002.0,6330052.0,10050.0,2,R,6329136,6329506,372,886.8,1000.0,5607,likertHorizontal
25,1,continuous,2,49,trial,6320002.0,6330052.0,10050.0,2,R,6329528,6329748,222,925.1,938.0,5797,likertHorizontal
25,1,continuous,2,49,trial,6320002.0,6330052.0,10050.0,2,R,6329770,6329896,128,927.4,1012.0,5906,likertHorizontal
25,1,continuous,2,49,postResponse,6320002.0,6330052.0,10050.0,2,R,6329966,6330402,438,864.8,489.8,5906,NA
25,1,continuous,3,31,fixationCross,6330952.0,6347902.0,16950.0,3,R,6330476,6330554,80,860.3,488.7,5927,NA
25,1,continuous,3,31,fixationCross,6330952.0,6347902.0,16950.0,3,R,6330570,6330928,360,927.5,492.7,6045,NA
25,1,continuous,3,31,trial,6330952.0,6347902.0,16950.0,3,R,6330948,6331112,166,938.7,542.1,6217,NA
25,1,continuous,3,31,trial,6330952.0,6347902.0,16950.0,3,R,6331168,6331910,744,470.0,492.1,5657,left
25,1,continuous,3,31,trial,6330952.0,6347902.0,16950.0,3,R,6331928,6332070,144,456.1,537.3,5207,left
25,1,continuous,3,31,trial,6330952.0,6347902.0,16950.0,3,R,6332144,6332462,320,1483.6,524.3,5124,right
25,1,continuous,3,31,trial,6330952.0,6347902.0,16950.0,3,R,6332634,6333132,500,1624.2,525.3,5335,right
25,1,continuous,3,31,trial,6330952.0,6347902.0,16950.0,3,R,6333156,6333394,240,1540.5,558.2,5406,right
25,1,continuous,3,31,trial,6330952.0,6347902.0,16950.0,3,R,6333408,6333666,260,1578.9,504.0,5382,right
25,1,continuous,3,31,trial,6330952.0,6347902.0,16950.0,3,R,6333744,6333982,240,521.7,546.6,5626,left
25,1,continuous,3,31,trial,6330952.0,6347902.0,16950.0,3,R,6333998,6334474,478,460.9,482.8,5387,left
25,1,continuous,3,31,trial,6330952.0,6347902.0,16950.0,3,R,6334546,6334848,304,1492.6,521.1,5002,right
25,1,continuous,3,31,trial,6330952.0,6347902.0,16950.0,3,R,6334870,6335104,236,1597.2,504.2,5160,right
25,1,continuous,3,31,trial,6330952.0,6347902.0,16950.0,3,R,6335116,6335452,338,1651.3,508.0,5160,right
25,1,continuous,3,31,trial,6330952.0,6347902.0,16950.0,3,R,6335642,6336092,452,487.7,509.5,5706,left
25,1,continuous,3,31,trial,6330952.0,6347902.0,16950.0,3,R,6336114,6336312,200,396.5,642.8,5595,left
25,1,continuous,3,31,trial,6330952.0,6347902.0,16950.0,3,R,6336324,6336610,288,343.3,653.0,5481,left
25,1,continuous,3,31,trial,6330952.0,6347902.0,16950.0,3,R,6336648,6336888,242,559.5,739.9,5642,NA
25,1,continuous,3,31,trial,6330952.0,6347902.0,16950.0,3,R,6336914,6337136,224,472.8,553.1,5811,left
25,1,continuous,3,31,trial,6330952.0,6347902.0,16950.0,3,R,6337156,6337878,724,499.5,483.0,5650,left
25,1,continuous,3,31,trial,6330952.0,6347902.0,16950.0,3,R,6337902,6338156,256,454.4,559.2,5768,left
25,1,continuous,3,31,trial,6330952.0,6347902.0,16950.0,3,R,6338186,6338390,206,560.8,677.1,5733,left
25,1,continuous,3,31,trial,6330952.0,6347902.0,16950.0,3,R,6338444,6338746,304,931.2,1035.0,5671,likertHorizontal
25,1,continuous,3,31,trial,6330952.0,6347902.0,16950.0,3,R,6338812,6338900,90,1433.2,1031.3,5404,NA
25,1,continuous,3,31,trial,6330952.0,6347902.0,16950.0,3,R,6338966,6339224,260,1509.1,559.6,5179,right
25,1,continuous,3,31,trial,6330952.0,6347902.0,16950.0,3,R,6339252,6339898,648,1643.8,503.8,5265,right
25,1,continuous,3,31,trial,6330952.0,6347902.0,16950.0,3,R,6339922,6340212,292,1486.8,514.6,5510,right
25,1,continuous,3,31,trial,6330952.0,6347902.0,16950.0,3,R,6340236,6340494,260,1343.3,512.9,5618,right
25,1,continuous,3,31,trial,6330952.0,6347902.0,16950.0,3,R,6340570,6341538,970,461.4,521.9,5515,left
25,1,continuous,3,31,trial,6330952.0,6347902.0,16950.0,3,R,6341562,6341760,200,433.9,594.1,5607,left
25,1,continuous,3,31,trial,6330952.0,6347902.0,16950.0,3,R,6341776,6342166,392,359.9,637.7,5749,left
25,1,continuous,3,31,trial,6330952.0,6347902.0,16950.0,3,R,6342190,6342384,196,477.3,528.3,5730,left
25,1,continuous,3,31,trial,6330952.0,6347902.0,16950.0,3,R,6342400,6342884,486,477.4,479.4,5660,left
25,1,continuous,3,31,trial,6330952.0,6347902.0,16950.0,3,R,6342904,6343014,112,478.5,552.2,5534,left
25,1,continuous,3,31,trial,6330952.0,6347902.0,16950.0,3,R,6343090,6343252,164,1538.7,553.9,5313,right
25,1,continuous,3,31,trial,6330952.0,6347902.0,16950.0,3,R,6343276,6343910,636,1662.1,518.9,5163,right
25,1,continuous,3,31,trial,6330952.0,6347902.0,16950.0,3,R,6343934,6344186,254,1561.2,640.5,5290,right
25,1,continuous,3,31,trial,6330952.0,6347902.0,16950.0,3,R,6344204,6344436,234,1512.9,680.7,5485,right
25,1,continuous,3,31,trial,6330952.0,6347902.0,16950.0,3,R,6344508,6344736,230,848.4,990.0,5837,likertHorizontal
25,1,continuous,3,31,trial,6330952.0,6347902.0,16950.0,3,R,6344752,6344878,128,894.0,1020.2,5858,likertHorizontal
25,1,continuous,3,31,trial,6330952.0,6347902.0,16950.0,3,R,6344944,6345260,318,1443.5,509.4,5682,right
25,1,continuous,3,31,trial,6330952.0,6347902.0,16950.0,3,R,6345286,6345608,324,1592.2,520.9,5759,right
25,1,continuous,3,31,trial,6330952.0,6347902.0,16950.0,3,R,6345622,6345718,98,1643.0,520.4,5729,right
25,1,continuous,3,31,trial,6330952.0,6347902.0,16950.0,3,R,6345906,6346062,158,1631.4,523.4,5611,right
25,1,continuous,3,31,trial,6330952.0,6347902.0,16950.0,3,R,6346112,6346334,224,1277.0,507.9,5809,right
25,1,continuous,3,31,trial,6330952.0,6347902.0,16950.0,3,R,6346358,6346596,240,1416.1,510.7,5569,right
25,1,continuous,3,31,trial,6330952.0,6347902.0,16950.0,3,R,6346620,6346756,138,1549.5,504.9,5361,right
25,1,continuous,3,31,trial,6330952.0,6347902.0,16950.0,3,R,6346840,6346972,134,804.7,1113.3,5715,likertHorizontal
25,1,continuous,3,31,trial,6330952.0,6347902.0,16950.0,3,R,6346992,6347136,146,832.5,1045.2,5805,likertHorizontal
25,1,continuous,3,31,trial,6330952.0,6347902.0,16950.0,3,R,6347198,6347374,178,480.6,1041.5,5750,NA
25,1,continuous,3,31,trial,6330952.0,6347902.0,16950.0,3,R,6347466,6347722,258,541.3,516.2,5534,left
25,1,continuous,3,31,trial,6330952.0,6347902.0,16950.0,3,R,6347738,6348122,386,489.5,494.1,5651,left
25,1,continuous,3,31,postResponse,6330952.0,6347902.0,16950.0,3,R,6348150,6348240,92,689.7,542.4,5582,left
25,1,continuous,4,80,fixationCross,6348835.0,6352219.0,3384.0,4,R,6348342,6348784,444,898.8,536.7,5730,NA
25,1,continuous,4,80,trial,6348835.0,6352219.0,3384.0,4,R,6348796,6348986,192,935.8,539.4,6029,NA
25,1,continuous,4,80,trial,6348835.0,6352219.0,3384.0,4,R,6349040,6349222,184,515.1,528.8,6167,left
25,1,continuous,4,80,trial,6348835.0,6352219.0,3384.0,4,R,6349242,6349436,196,434.6,549.4,5881,left
25,1,continuous,4,80,trial,6348835.0,6352219.0,3384.0,4,R,6349458,6349726,270,380.7,660.6,5589,left
25,1,continuous,4,80,trial,6348835.0,6352219.0,3384.0,4,R,6349864,6350354,492,397.4,649.1,5640,left
25,1,continuous,4,80,trial,6348835.0,6352219.0,3384.0,4,R,6350366,6350510,146,393.8,682.8,5670,left
25,1,continuous,4,80,trial,6348835.0,6352219.0,3384.0,4,R,6350584,6350822,240,1364.9,510.4,5350,right
25,1,continuous,4,80,trial,6348835.0,6352219.0,3384.0,4,R,6350838,6351056,220,1306.2,467.9,5173,right
25,1,continuous,4,80,trial,6348835.0,6352219.0,3384.0,4,R,6351076,6351296,222,1424.8,488.9,5069,right
25,1,continuous,4,80,trial,6348835.0,6352219.0,3384.0,4,R,6351328,6351574,248,1498.2,621.7,5062,right
25,1,continuous,4,80,trial,6348835.0,6352219.0,3384.0,4,R,6351618,6352140,524,1226.1,719.5,5103,right
25,1,continuous,4,80,trial,6348835.0,6352219.0,3384.0,4,R,6352188,6352482,296,1231.3,1038.4,5634,NA
25,1,continuous,5,96,fixationCross,6353169.0,6360952.0,7783.0,5,R,6352674,6352832,160,1033.9,580.6,5788,NA
25,1,continuous,5,96,fixationCross,6353169.0,6360952.0,7783.0,5,R,6352854,6353064,212,987.0,491.9,5879,NA
25,1,continuous,5,96,trial,6353169.0,6360952.0,7783.0,5,R,6353084,6353304,222,941.3,539.6,6121,NA
25,1,continuous,5,96,trial,6353169.0,6360952.0,7783.0,5,R,6353366,6353572,208,444.2,486.9,6251,left
25,1,continuous,5,96,trial,6353169.0,6360952.0,7783.0,5,R,6353592,6353908,318,388.9,429.0,5575,left
25,1,continuous,5,96,trial,6353169.0,6360952.0,7783.0,5,R,6354038,6354694,658,354.3,525.8,5371,left
25,1,continuous,5,96,trial,6353169.0,6360952.0,7783.0,5,R,6354718,6355036,320,481.5,493.5,5454,left
25,1,continuous,5,96,trial,6353169.0,6360952.0,7783.0,5,R,6355058,6355282,226,347.6,532.3,5621,left
25,1,continuous,5,96,trial,6353169.0,6360952.0,7783.0,5,R,6355302,6355696,396,360.2,602.4,5696,left
25,1,continuous,5,96,trial,6353169.0,6360952.0,7783.0,5,R,6355738,6356044,308,668.1,509.1,5617,left
25,1,continuous,5,96,trial,6353169.0,6360952.0,7783.0,5,R,6356108,6356792,686,1394.6,611.2,5494,right
25,1,continuous,5,96,trial,6353169.0,6360952.0,7783.0,5,R,6356812,6357102,292,1332.4,676.5,5180,right
25,1,continuous,5,96,trial,6353169.0,6360952.0,7783.0,5,R,6357124,6357248,126,1379.9,577.6,5182,right
25,1,continuous,5,96,trial,6353169.0,6360952.0,7783.0,5,R,6357330,6357580,252,427.7,486.3,5303,left
25,1,continuous,5,96,trial,6353169.0,6360952.0,7783.0,5,R,6357602,6357786,186,343.5,574.2,5337,left
25,1,continuous,5,96,trial,6353169.0,6360952.0,7783.0,5,R,6357828,6358214,388,569.8,521.3,5440,left
25,1,continuous,5,96,trial,6353169.0,6360952.0,7783.0,5,R,6358228,6358494,268,600.8,494.1,5530,left
25,1,continuous,5,96,trial,6353169.0,6360952.0,7783.0,5,R,6358526,6358858,334,373.5,659.9,5637,left
25,1,continuous,5,96,trial,6353169.0,6360952.0,7783.0,5,R,6358900,6359078,180,555.3,514.8,5532,left
25,1,continuous,5,96,trial,6353169.0,6360952.0,7783.0,5,R,6359152,6359494,344,1389.0,635.9,5277,right
25,1,continuous,5,96,trial,6353169.0,6360952.0,7783.0,5,R,6359514,6359764,252,1473.8,559.1,4967,right
25,1,continuous,5,96,trial,6353169.0,6360952.0,7783.0,5,R,6359790,6360264,476,1342.7,712.6,4886,right
25,1,continuous,5,96,trial,6353169.0,6360952.0,7783.0,5,R,6360304,6360852,550,1446.4,565.7,5245,right
25,1,continuous,5,96,trial,6353169.0,6360952.0,7783.0,5,R,6360928,6361218,292,527.6,537.5,5629,left
25,1,continuous,5,96,postResponse,6353169.0,6360952.0,7783.0,5,R,6361252,6361292,42,798.7,610.0,5649,NA
25,1,continuous,6,100,fixationCross,6361852.0,6365269.0,3417.0,6,R,6361366,6361534,170,813.1,609.3,5739,NA
25,1,continuous,6,100,trial,6361852.0,6365269.0,3417.0,6,R,6361560,6361862,304,929.0,556.4,5881,NA
25,1,continuous,6,100,trial,6361852.0,6365269.0,3417.0,6,R,6361872,6362006,136,936.9,572.4,6015,NA
25,1,continuous,6,100,trial,6361852.0,6365269.0,3417.0,6,R,6362066,6362334,270,495.4,572.8,6059,left
25,1,continuous,6,100,trial,6361852.0,6365269.0,3417.0,6,R,6362354,6362712,360,439.8,625.4,5515,left
25,1,continuous,6,100,trial,6361852.0,6365269.0,3417.0,6,R,6362742,6362986,246,349.8,447.7,5370,left
25,1,continuous,6,100,trial,6361852.0,6365269.0,3417.0,6,R,6362998,6363088,92,397.3,431.9,5372,left
25,1,continuous,6,100,trial,6361852.0,6365269.0,3417.0,6,R,6363160,6363344,186,1373.3,593.7,5250,right
25,1,continuous,6,100,trial,6361852.0,6365269.0,3417.0,6,R,6363510,6363612,104,1296.4,560.1,5104,right
25,1,continuous,6,100,trial,6361852.0,6365269.0,3417.0,6,R,6363650,6363820,172,1522.0,530.4,5012,right
25,1,continuous,6,100,trial,6361852.0,6365269.0,3417.0,6,R,6363834,6364152,320,1518.3,495.5,4905,right
25,1,continuous,6,100,trial,6361852.0,6365269.0,3417.0,6,R,6364190,6364530,342,1279.9,563.7,4797,right
25,1,continuous,6,100,trial,6361852.0,6365269.0,3417.0,6,R,6364586,6364766,182,1374.9,1011.0,5059,NA
25,1,continuous,6,100,trial,6361852.0,6365269.0,3417.0,6,R,6364782,6364926,146,1313.9,1021.8,5258,NA
25,1,continuous,6,100,trial,6361852.0,6365269.0,3417.0,6,R,6364944,6365120,178,1427.7,1008.4,5323,NA
25,1,continuous,6,100,trial,6361852.0,6365269.0,3417.0,6,R,6365194,6365520,328,1380.1,540.9,5400,right
25,1,continuous,7,100,fixationCross,6366402.0,6369285.0,2883.0,7,R,6365700,6365940,242,846.5,564.2,5499,NA
25,1,continuous,7,100,fixationCross,6366402.0,6369285.0,2883.0,7,R,6365960,6366108,150,768.4,527.2,5762,NA
25,1,continuous,7,100,trial,6366402.0,6369285.0,2883.0,7,R,6366130,6366548,420,948.8,555.8,6004,NA
25,1,continuous,7,100,trial,6366402.0,6369285.0,2883.0,7,R,6366602,6366802,202,542.3,531.4,6150,left
25,1,continuous,7,100,trial,6366402.0,6369285.0,2883.0,7,R,6366814,6367124,312,489.1,525.9,5499,left
25,1,continuous,7,100,trial,6366402.0,6369285.0,2883.0,7,R,6367140,6367652,514,446.8,571.5,5093,left
25,1,continuous,7,100,trial,6366402.0,6369285.0,2883.0,7,R,6367670,6367886,218,515.0,538.2,5347,left
25,1,continuous,7,100,trial,6366402.0,6369285.0,2883.0,7,R,6367966,6368266,302,1447.9,528.3,5068,right
25,1,continuous,7,100,trial,6366402.0,6369285.0,2883.0,7,R,6368282,6368574,294,1439.8,584.2,5001,right
25,1,continuous,7,100,trial,6366402.0,6369285.0,2883.0,7,R,6368582,6368992,412,1431.2,616.3,5037,right
25,1,continuous,7,100,trial,6366402.0,6369285.0,2883.0,7,R,6369078,6369538,462,469.7,597.4,5177,left
25,1,continuous,7,100,postResponse,6366402.0,6369285.0,2883.0,7,R,6369578,6369620,44,720.6,613.1,5085,left
25,1,continuous,8,100,fixationCross,6370185.0,6375719.0,5534.0,8,R,6369694,6369710,18,728.4,612.2,5078,left
25,1,continuous,8,100,trial,6370185.0,6375719.0,5534.0,8,R,6369744,6370334,592,944.8,559.9,5346,NA
25,1,continuous,8,100,trial,6370185.0,6375719.0,5534.0,8,R,6370392,6371306,916,468.9,569.3,5455,left
25,1,continuous,8,100,trial,6370185.0,6375719.0,5534.0,8,R,6371380,6371698,320,1317.6,594.1,5171,right
25,1,continuous,8,100,trial,6370185.0,6375719.0,5534.0,8,R,6371720,6372000,282,1491.7,629.9,4969,right
25,1,continuous,8,100,trial,6370185.0,6375719.0,5534.0,8,R,6372042,6372406,366,1254.7,514.8,4900,right
25,1,continuous,8,100,trial,6370185.0,6375719.0,5534.0,8,R,6372584,6373450,868,458.0,657.6,5182,left
25,1,continuous,8,100,trial,6370185.0,6375719.0,5534.0,8,R,6373474,6373670,198,455.2,549.5,5194,left
25,1,continuous,8,100,trial,6370185.0,6375719.0,5534.0,8,R,6373682,6374080,400,418.4,559.8,5195,left
25,1,continuous,8,100,trial,6370185.0,6375719.0,5534.0,8,R,6374098,6374360,264,468.6,512.7,5203,left
25,1,continuous,8,100,trial,6370185.0,6375719.0,5534.0,8,R,6374386,6374578,194,605.6,488.8,5154,left
25,1,continuous,8,100,trial,6370185.0,6375719.0,5534.0,8,R,6374646,6374960,316,1437.6,643.3,5095,right
25,1,continuous,8,100,trial,6370185.0,6375719.0,5534.0,8,R,6374980,6375394,416,1377.5,686.1,5153,right
25,1,continuous,8,100,trial,6370185.0,6375719.0,5534.0,8,R,6375416,6375618,204,1255.7,659.4,5216,right
25,1,continuous,8,100,trial,6370185.0,6375719.0,5534.0,8,R,6375630,6375740,112,1236.6,627.2,5269,right
25,1,continuous,8,100,postResponse,6370185.0,6375719.0,5534.0,8,R,6375780,6376054,276,1254.7,448.9,5175,right
25,1,continuous,9,17,fixationCross,6376602.0,6383219.0,6617.0,9,R,6376128,6376188,62,1243.4,447.3,4952,right
25,1,continuous,9,17,fixationCross,6376602.0,6383219.0,6617.0,9,R,6376246,6376520,276,878.0,584.7,5257,NA
25,1,continuous,9,17,trial,6376602.0,6383219.0,6617.0,9,R,6376534,6376748,216,923.6,568.4,5576,NA
25,1,continuous,9,17,trial,6376602.0,6383219.0,6617.0,9,R,6376804,6377038,236,465.3,584.7,5714,left
25,1,continuous,9,17,trial,6376602.0,6383219.0,6617.0,9,R,6377058,6377194,138,400.9,547.9,5306,left
25,1,continuous,9,17,trial,6376602.0,6383219.0,6617.0,9,R,6377266,6377604,340,1398.7,502.6,4848,right
25,1,continuous,9,17,trial,6376602.0,6383219.0,6617.0,9,R,6377614,6378198,586,1453.3,502.3,4890,right
25,1,continuous,9,17,trial,6376602.0,6383219.0,6617.0,9,R,6378222,6378348,128,1370.3,430.7,4945,right
25,1,continuous,9,17,trial,6376602.0,6383219.0,6617.0,9,R,6378424,6378716,294,389.6,581.3,5194,left
25,1,continuous,9,17,trial,6376602.0,6383219.0,6617.0,9,R,6378738,6379196,460,373.1,476.7,5070,left
25,1,continuous,9,17,trial,6376602.0,6383219.0,6617.0,9,R,6379220,6379532,314,361.4,570.8,5039,left
25,1,continuous,9,17,trial,6376602.0,6383219.0,6617.0,9,R,6379614,6379990,378,1451.4,516.4,4928,right
25,1,continuous,9,17,trial,6376602.0,6383219.0,6617.0,9,R,6380006,6380158,154,1417.3,584.2,4932,right
25,1,continuous,9,17,trial,6376602.0,6383219.0,6617.0,9,R,6380192,6380500,310,1232.5,605.3,5080,right
25,1,continuous,9,17,trial,6376602.0,6383219.0,6617.0,9,R,6380554,6380884,332,1411.1,428.2,5105,right
25,1,continuous,9,17,trial,6376602.0,6383219.0,6617.0,9,R,6380900,6381130,232,1477.9,442.9,5185,right
25,1,continuous,9,17,trial,6376602.0,6383219.0,6617.0,9,R,6381152,6381554,404,1519.2,502.5,5179,right
25,1,continuous,9,17,trial,6376602.0,6383219.0,6617.0,9,R,6381602,6381988,388,1257.0,623.7,5342,right
25,1,continuous,9,17,trial,6376602.0,6383219.0,6617.0,9,R,6382166,6382562,398,432.1,627.2,5663,left
25,1,continuous,9,17,trial,6376602.0,6383219.0,6617.0,9,R,6382574,6382964,392,455.2,615.7,5252,left
25,1,continuous,9,17,trial,6376602.0,6383219.0,6617.0,9,R,6382982,6383220,240,401.0,526.9,5074,left
25,1,continuous,9,17,trial,6376602.0,6383219.0,6617.0,9,R,6383232,6383480,250,378.9,491.3,5204,left
25,1,continuous,9,17,postResponse,6376602.0,6383219.0,6617.0,9,R,6383510,6383552,44,567.6,530.1,5346,left
25,1,continuous,10,100,fixationCross,6384119.0,6387019.0,2900.0,10,R,6383628,6383644,18,575.4,532.6,5384,left
25,1,continuous,10,100,fixationCross,6384119.0,6387019.0,2900.0,10,R,6383696,6383998,304,995.2,496.9,5491,NA
25,1,continuous,10,100,trial,6384119.0,6387019.0,2900.0,10,R,6384018,6384260,244,929.9,539.3,5759,NA
25,1,continuous,10,100,trial,6384119.0,6387019.0,2900.0,10,R,6384316,6384782,468,440.5,550.2,5628,left
25,1,continuous,10,100,trial,6384119.0,6387019.0,2900.0,10,R,6384796,6384992,198,492.7,557.0,5074,left
25,1,continuous,10,100,trial,6384119.0,6387019.0,2900.0,10,R,6385062,6385378,318,1392.7,567.8,4775,right
25,1,continuous,10,100,trial,6384119.0,6387019.0,2900.0,10,R,6385390,6385570,182,1424.2,595.5,4764,right
25,1,continuous,10,100,trial,6384119.0,6387019.0,2900.0,10,R,6385610,6385944,336,1484.6,427.3,4892,right
25,1,continuous,10,100,trial,6384119.0,6387019.0,2900.0,10,R,6386022,6386576,556,459.3,553.1,5279,left
25,1,continuous,10,100,trial,6384119.0,6387019.0,2900.0,10,R,6386650,6386812,164,1382.0,974.2,5105,NA
25,1,continuous,10,100,trial,6384119.0,6387019.0,2900.0,10,R,6386876,6387216,342,1396.5,543.6,5121,right
25,1,continuous,11,1,fixationCross,6387936.0,6392886.0,4950.0,11,R,6387452,6387556,106,1090.0,540.5,5380,NA
25,1,continuous,11,1,fixationCross,6387936.0,6392886.0,4950.0,11,R,6387584,6387874,292,911.2,532.5,5610,NA
25,1,continuous,11,1,trial,6387936.0,6392886.0,4950.0,11,R,6387884,6388090,208,931.3,540.8,5787,NA
25,1,continuous,11,1,trial,6387936.0,6392886.0,4950.0,11,R,6388142,6388826,686,468.8,544.7,5483,left
25,1,continuous,11,1,trial,6387936.0,6392886.0,4950.0,11,R,6388838,6389006,170,417.0,536.4,5108,left
25,1,continuous,11,1,trial,6387936.0,6392886.0,4950.0,11,R,6389076,6389250,176,1329.4,569.1,5054,right
25,1,continuous,11,1,trial,6387936.0,6392886.0,4950.0,11,R,6389270,6389650,382,1435.0,590.3,4904,right
25,1,continuous,11,1,trial,6387936.0,6392886.0,4950.0,11,R,6389664,6389794,132,1490.6,591.5,4705,right
25,1,continuous,11,1,trial,6387936.0,6392886.0,4950.0,11,R,6389818,6389982,166,1330.9,563.3,4730,right
25,1,continuous,11,1,trial,6387936.0,6392886.0,4950.0,11,R,6390056,6391586,1532,433.7,555.8,5128,left
25,1,continuous,11,1,trial,6387936.0,6392886.0,4950.0,11,R,6391602,6391860,260,484.9,569.0,5118,left
25,1,continuous,11,1,trial,6387936.0,6392886.0,4950.0,11,R,6391882,6392382,502,518.8,632.0,5116,left
25,1,continuous,11,1,trial,6387936.0,6392886.0,4950.0,11,R,6392400,6393142,744,455.8,615.7,5243,left
25,1,continuous,11,1,postResponse,6387936.0,6392886.0,4950.0,11,R,6393166,6393218,54,620.7,604.6,5455,left
25,1,continuous,12,73,fixationCross,6393786.0,6398819.0,5033.0,12,R,6393358,6393698,342,861.4,539.0,5600,NA
25,1,continuous,12,73,trial,6393786.0,6398819.0,5033.0,12,R,6393712,6393930,220,937.6,539.6,5799,NA
25,1,continuous,12,73,trial,6393786.0,6398819.0,5033.0,12,R,6393982,6394178,198,501.6,520.2,5855,left
25,1,continuous,12,73,trial,6393786.0,6398819.0,5033.0,12,R,6394194,6394352,160,428.6,534.5,5556,left
25,1,continuous,12,73,trial,6393786.0,6398819.0,5033.0,12,R,6394374,6394628,256,543.5,552.8,5301,left
25,1,continuous,12,73,trial,6393786.0,6398819.0,5033.0,12,R,6394700,6395202,504,1457.6,570.1,4995,right
25,1,continuous,12,73,trial,6393786.0,6398819.0,5033.0,12,R,6395404,6395660,258,1469.7,587.0,4865,right
25,1,continuous,12,73,trial,6393786.0,6398819.0,5033.0,12,R,6395668,6395854,188,1468.7,605.0,5001,right
25,1,continuous,12,73,trial,6393786.0,6398819.0,5033.0,12,R,6395928,6396132,206,487.2,548.6,5128,left
25,1,continuous,12,73,trial,6393786.0,6398819.0,5033.0,12,R,6396146,6396508,364,421.1,523.7,5032,left
25,1,continuous,12,73,trial,6393786.0,6398819.0,5033.0,12,R,6396530,6396714,186,488.7,427.8,4965,left
25,1,continuous,12,73,trial,6393786.0,6398819.0,5033.0,12,R,6396730,6396978,250,561.0,413.4,4977,left
25,1,continuous,12,73,trial,6393786.0,6398819.0,5033.0,12,R,6397050,6397456,408,1448.7,561.1,4957,right
25,1,continuous,12,73,trial,6393786.0,6398819.0,5033.0,12,R,6397468,6397706,240,1505.0,534.1,4949,right
25,1,continuous,12,73,trial,6393786.0,6398819.0,5033.0,12,R,6397730,6398090,362,1523.5,626.2,5016,right
25,1,continuous,12,73,trial,6393786.0,6398819.0,5033.0,12,R,6398148,6398576,430,1086.1,805.9,5218,likertHorizontal
25,1,continuous,12,73,trial,6393786.0,6398819.0,5033.0,12,R,6398600,6398784,186,1166.5,860.0,5409,likertHorizontal
25,1,continuous,12,73,postResponse,6393786.0,6398819.0,5033.0,12,R,6398810,6399136,328,1163.3,1010.0,5673,likertHorizontal
25,1,continuous,13,53,fixationCross,6399736.0,6409636.0,9900.0,13,R,6399230,6399368,140,1025.6,574.3,5543,NA
25,1,continuous,13,53,fixationCross,6399736.0,6409636.0,9900.0,13,R,6399390,6399646,258,895.3,529.5,5632,NA
25,1,continuous,13,53,trial,6399736.0,6409636.0,9900.0,13,R,6399662,6399878,218,940.3,541.7,5878,NA
25,1,continuous,13,53,trial,6399736.0,6409636.0,9900.0,13,R,6399934,6400362,430,505.7,564.3,5726,left
25,1,continuous,13,53,trial,6399736.0,6409636.0,9900.0,13,R,6400376,6400730,356,526.7,585.7,5101,left
25,1,continuous,13,53,trial,6399736.0,6409636.0,9900.0,13,R,6400936,6401080,146,224.4,409.0,5000,left
25,1,continuous,13,53,trial,6399736.0,6409636.0,9900.0,13,R,6401100,6401258,160,317.9,438.7,5083,left
25,1,continuous,13,53,trial,6399736.0,6409636.0,9900.0,13,R,6401302,6401438,138,564.8,604.3,5190,left
25,1,continuous,13,53,trial,6399736.0,6409636.0,9900.0,13,R,6401504,6401792,290,1367.4,509.2,5010,right
25,1,continuous,13,53,trial,6399736.0,6409636.0,9900.0,13,R,6401810,6402344,536,1426.7,531.8,5242,right
25,1,continuous,13,53,trial,6399736.0,6409636.0,9900.0,13,R,6402368,6402786,420,1419.9,635.1,5341,right
25,1,continuous,13,53,trial,6399736.0,6409636.0,9900.0,13,R,6402812,6403630,820,1433.2,496.2,5325,right
25,1,continuous,13,53,trial,6399736.0,6409636.0,9900.0,13,R,6403650,6403868,220,1426.0,564.1,5405,right
25,1,continuous,13,53,trial,6399736.0,6409636.0,9900.0,13,R,6403956,6404238,284,455.7,575.5,5438,left
25,1,continuous,13,53,trial,6399736.0,6409636.0,9900.0,13,R,6404258,6404692,436,551.2,590.1,5224,left
25,1,continuous,13,53,trial,6399736.0,6409636.0,9900.0,13,R,6404744,6405146,404,302.8,429.9,5077,left
25,1,continuous,13,53,trial,6399736.0,6409636.0,9900.0,13,R,6405196,6405502,308,563.9,631.4,5148,left
25,1,continuous,13,53,trial,6399736.0,6409636.0,9900.0,13,R,6405514,6405730,218,540.0,598.9,5205,left
25,1,continuous,13,53,trial,6399736.0,6409636.0,9900.0,13,R,6405742,6405966,226,491.7,585.8,5217,left
25,1,continuous,13,53,trial,6399736.0,6409636.0,9900.0,13,R,6405988,6406398,412,581.4,620.8,5162,left
25,1,continuous,13,53,trial,6399736.0,6409636.0,9900.0,13,R,6406412,6406550,140,626.7,642.8,5141,left
25,1,continuous,13,53,trial,6399736.0,6409636.0,9900.0,13,R,6406614,6406846,234,1341.9,568.1,5032,right
25,1,continuous,13,53,trial,6399736.0,6409636.0,9900.0,13,R,6406864,6407078,216,1423.9,568.2,4926,right
25,1,continuous,13,53,trial,6399736.0,6409636.0,9900.0,13,R,6407094,6407404,312,1420.3,622.3,4922,right
25,1,continuous,13,53,trial,6399736.0,6409636.0,9900.0,13,R,6407424,6407858,436,1421.8,503.7,4837,right
25,1,continuous,13,53,trial,6399736.0,6409636.0,9900.0,13,R,6407880,6408068,190,1469.0,462.1,4759,right
25,1,continuous,13,53,trial,6399736.0,6409636.0,9900.0,13,R,6408098,6408256,160,1231.0,515.7,4950,right
25,1,continuous,13,53,trial,6399736.0,6409636.0,9900.0,13,R,6408316,6409118,804,921.0,998.4,5492,likertHorizontal
25,1,continuous,13,53,trial,6399736.0,6409636.0,9900.0,13,R,6409132,6409856,726,966.2,996.6,5798,likertHorizontal
25,1,continuous,13,53,postResponse,6399736.0,6409636.0,9900.0,13,R,6409870,6409972,104,957.4,933.4,5858,likertHorizontal
25,1,continuous,14,100,fixationCross,6410536.0,6418636.0,8100.0,14,R,6410046,6410060,16,953.0,923.2,5913,likertHorizontal
25,1,continuous,14,100,fixationCross,6410536.0,6418636.0,8100.0,14,R,6410130,6410480,352,954.0,500.8,6024,NA
25,1,continuous,14,100,trial,6410536.0,6418636.0,8100.0,14,R,6410494,6410696,204,940.8,528.0,6212,NA
25,1,continuous,14,100,trial,6410536.0,6418636.0,8100.0,14,R,6410760,6411100,342,452.6,528.9,6160,left
25,1,continuous,14,100,trial,6410536.0,6418636.0,8100.0,14,R,6411268,6411346,80,564.2,546.3,5825,left
25,1,continuous,14,100,trial,6410536.0,6418636.0,8100.0,14,R,6411416,6411604,190,1441.0,533.3,5712,right
25,1,continuous,14,100,trial,6410536.0,6418636.0,8100.0,14,R,6411618,6411872,256,1392.6,564.8,5734,right
25,1,continuous,14,100,trial,6410536.0,6418636.0,8100.0,14,R,6411888,6412376,490,1469.3,601.2,5211,right
25,1,continuous,14,100,trial,6410536.0,6418636.0,8100.0,14,R,6412388,6412678,292,1469.5,632.6,5086,right
25,1,continuous,14,100,trial,6410536.0,6418636.0,8100.0,14,R,6412696,6412802,108,1392.4,626.2,5132,right
25,1,continuous,14,100,trial,6410536.0,6418636.0,8100.0,14,R,6412872,6413032,162,485.9,596.1,5341,left
25,1,continuous,14,100,trial,6410536.0,6418636.0,8100.0,14,R,6413056,6413306,252,447.5,673.2,5520,left
25,1,continuous,14,100,trial,6410536.0,6418636.0,8100.0,14,R,6413314,6413506,194,454.8,694.4,5656,left
25,1,continuous,14,100,trial,6410536.0,6418636.0,8100.0,14,R,6413540,6413786,248,457.5,530.3,5605,left
25,1,continuous,14,100,trial,6410536.0,6418636.0,8100.0,14,R,6413800,6414004,206,491.6,493.3,5415,left
25,1,continuous,14,100,trial,6410536.0,6418636.0,8100.0,14,R,6414074,6414396,324,1361.7,577.2,5238,right
25,1,continuous,14,100,trial,6410536.0,6418636.0,8100.0,14,R,6414420,6414862,444,1216.8,540.7,5146,right
25,1,continuous,14,100,trial,6410536.0,6418636.0,8100.0,14,R,6414890,6415004,116,1378.6,548.6,5203,right
25,1,continuous,14,100,trial,6410536.0,6418636.0,8100.0,14,R,6415074,6415294,222,469.5,640.3,5448,left
25,1,continuous,14,100,trial,6410536.0,6418636.0,8100.0,14,R,6415314,6415512,200,456.9,658.0,5581,left
25,1,continuous,14,100,trial,6410536.0,6418636.0,8100.0,14,R,6415548,6415794,248,472.2,479.6,5501,left
25,1,continuous,14,100,trial,6410536.0,6418636.0,8100.0,14,R,6415806,6416046,242,484.2,462.4,5276,left
25,1,continuous,14,100,trial,6410536.0,6418636.0,8100.0,14,R,6416074,6416244,172,506.9,562.4,5195,left
25,1,continuous,14,100,trial,6410536.0,6418636.0,8100.0,14,R,6416314,6416576,264,1380.4,579.7,5214,right
25,1,continuous,14,100,trial,6410536.0,6418636.0,8100.0,14,R,6416594,6417100,508,1477.5,560.0,5048,right
25,1,continuous,14,100,trial,6410536.0,6418636.0,8100.0,14,R,6417118,6417422,306,1473.5,622.3,4879,right
25,1,continuous,14,100,trial,6410536.0,6418636.0,8100.0,14,R,6417440,6417892,454,1407.2,562.3,5015,right
25,1,continuous,14,100,trial,6410536.0,6418636.0,8100.0,14,R,6417918,6418190,274,1309.4,558.9,5100,right
25,1,continuous,14,100,trial,6410536.0,6418636.0,8100.0,14,R,6418212,6418430,220,1187.3,545.8,5196,right
25,1,continuous,14,100,trial,6410536.0,6418636.0,8100.0,14,R,6418506,6418904,400,510.6,560.5,5514,left
25,1,continuous,14,100,postResponse,6410536.0,6418636.0,8100.0,14,R,6418930,6418970,42,666.4,533.5,5461,left
25,1,continuous,15,50,fixationCross,6419536.0,6425469.0,5933.0,15,R,6419046,6419208,164,749.9,549.0,5379,NA
25,1,continuous,15,50,fixationCross,6419536.0,6425469.0,5933.0,15,R,6419232,6419466,236,908.9,523.6,5542,NA
25,1,continuous,15,50,trial,6419536.0,6425469.0,5933.0,15,R,6419478,6419682,206,930.4,550.4,5714,NA
25,1,continuous,15,50,trial,6419536.0,6425469.0,5933.0,15,R,6419738,6419958,222,532.4,538.1,5812,left
25,1,continuous,15,50,trial,6419536.0,6425469.0,5933.0,15,R,6419980,6420236,258,403.9,572.2,5295,left
25,1,continuous,15,50,trial,6419536.0,6425469.0,5933.0,15,R,6420252,6420650,400,444.9,616.9,5128,left
25,1,continuous,15,50,trial,6419536.0,6425469.0,5933.0,15,R,6420722,6421112,392,1402.0,614.1,4936,right
25,1,continuous,15,50,trial,6419536.0,6425469.0,5933.0,15,R,6421134,6421324,192,1396.5,679.7,4743,right
25,1,continuous,15,50,trial,6419536.0,6425469.0,5933.0,15,R,6421402,6421708,308,434.2,596.8,4903,left
25,1,continuous,15,50,trial,6419536.0,6425469.0,5933.0,15,R,6421726,6422514,790,394.4,632.8,5042,left
25,1,continuous,15,50,trial,6419536.0,6425469.0,5933.0,15,R,6422534,6422820,288,391.1,528.2,5048,left
25,1,continuous,15,50,trial,6419536.0,6425469.0,5933.0,15,R,6422838,6423152,316,493.5,523.6,5158,left
25,1,continuous,15,50,trial,6419536.0,6425469.0,5933.0,15,R,6423166,6423464,300,522.2,489.9,5139,left
25,1,continuous,15,50,trial,6419536.0,6425469.0,5933.0,15,R,6423536,6423738,204,1402.0,607.0,5041,right
25,1,continuous,15,50,trial,6419536.0,6425469.0,5933.0,15,R,6423758,6424148,392,1415.0,673.6,4831,right
25,1,continuous,15,50,trial,6419536.0,6425469.0,5933.0,15,R,6424172,6424404,234,1375.9,569.3,4642,right
25,1,continuous,15,50,trial,6419536.0,6425469.0,5933.0,15,R,6424422,6424978,558,1304.8,503.2,4354,right
25,1,continuous,15,50,trial,6419536.0,6425469.0,5933.0,15,R,6425072,6425332,262,553.6,537.9,4406,left
25,1,continuous,15,50,trial,6419536.0,6425469.0,5933.0,15,R,6425388,6425754,368,849.8,1012.3,4945,likertHorizontal
25,1,continuous,16,1,fixationCross,6426353.0,6430619.0,4266.0,16,R,6425880,6425944,66,933.1,689.1,5346,NA
25,1,continuous,16,1,trial,6426353.0,6430619.0,4266.0,16,R,6425980,6426398,420,896.3,493.5,5565,NA
25,1,continuous,16,1,trial,6426353.0,6430619.0,4266.0,16,R,6426414,6426536,124,919.5,538.1,5774,NA
25,1,continuous,16,1,trial,6426353.0,6430619.0,4266.0,16,R,6426594,6426906,314,449.9,554.9,5765,left
25,1,continuous,16,1,trial,6426353.0,6430619.0,4266.0,16,R,6427122,6427578,458,482.2,554.7,5555,left
25,1,continuous,16,1,trial,6426353.0,6430619.0,4266.0,16,R,6427648,6427954,308,1379.1,558.5,5156,right
25,1,continuous,16,1,trial,6426353.0,6430619.0,4266.0,16,R,6427970,6428364,396,1445.8,541.1,4846,right
25,1,continuous,16,1,trial,6426353.0,6430619.0,4266.0,16,R,6428378,6428598,222,1437.2,506.3,4884,right
25,1,continuous,16,1,trial,6426353.0,6430619.0,4266.0,16,R,6428672,6429048,378,465.0,570.3,5192,left
25,1,continuous,16,1,trial,6426353.0,6430619.0,4266.0,16,R,6429060,6429268,210,496.1,550.8,5371,left
25,1,continuous,16,1,trial,6426353.0,6430619.0,4266.0,16,R,6429290,6429520,232,449.0,445.9,5356,left
25,1,continuous,16,1,trial,6426353.0,6430619.0,4266.0,16,R,6429592,6429952,362,1439.8,603.5,5274,right
25,1,continuous,16,1,trial,6426353.0,6430619.0,4266.0,16,R,6429972,6430452,482,1417.4,519.1,4923,right
25,1,continuous,16,1,trial,6426353.0,6430619.0,4266.0,16,R,6430536,6430884,350,426.3,1051.0,5292,NA
25,1,continuous,17,100,fixationCross,6431519.0,6436319.0,4800.0,17,R,6431030,6431196,168,1005.8,476.1,5377,NA
25,1,continuous,17,100,trial,6431519.0,6436319.0,4800.0,17,R,6431218,6431532,316,907.9,480.8,5681,NA
25,1,continuous,17,100,trial,6431519.0,6436319.0,4800.0,17,R,6431546,6431662,118,931.6,522.6,5899,NA
25,1,continuous,17,100,trial,6431519.0,6436319.0,4800.0,17,R,6431720,6432024,306,500.0,556.4,5852,left
25,1,continuous,17,100,trial,6431519.0,6436319.0,4800.0,17,R,6432040,6432370,332,429.3,544.5,5050,left
25,1,continuous,17,100,trial,6431519.0,6436319.0,4800.0,17,R,6432380,6432558,180,425.9,503.2,4704,left
25,1,continuous,17,100,trial,6431519.0,6436319.0,4800.0,17,R,6432630,6432910,282,1414.9,548.2,4503,right
25,1,continuous,17,100,trial,6431519.0,6436319.0,4800.0,17,R,6432928,6433142,216,1368.4,600.4,4611,right
25,1,continuous,17,100,trial,6431519.0,6436319.0,4800.0,17,R,6433152,6433348,198,1344.9,612.2,4719,right
25,1,continuous,17,100,trial,6431519.0,6436319.0,4800.0,17,R,6433552,6433782,232,1337.7,600.6,4682,right
25,1,continuous,17,100,trial,6431519.0,6436319.0,4800.0,17,R,6433790,6434182,394,1359.7,603.9,4703,right
25,1,continuous,17,100,trial,6431519.0,6436319.0,4800.0,17,R,6434196,6434386,192,1362.7,558.2,4528,right
25,1,continuous,17,100,trial,6431519.0,6436319.0,4800.0,17,R,6434464,6434758,296,398.7,565.4,4702,left
25,1,continuous,17,100,trial,6431519.0,6436319.0,4800.0,17,R,6434772,6435042,272,457.6,554.2,4741,left
25,1,continuous,17,100,trial,6431519.0,6436319.0,4800.0,17,R,6435060,6435442,384,573.3,524.7,4635,left
25,1,continuous,17,100,trial,6431519.0,6436319.0,4800.0,17,R,6435512,6435870,360,1390.9,538.6,4422,right
25,1,continuous,17,100,trial,6431519.0,6436319.0,4800.0,17,R,6435888,6436252,366,1354.5,607.6,4568,right
25,1,continuous,17,100,postResponse,6431519.0,6436319.0,4800.0,17,R,6436274,6436654,382,1464.7,563.4,4544,right
25,1,continuous,18,76,fixationCross,6437386.0,6448386.0,11000.0,18,R,6436756,6437032,278,991.1,530.9,4867,NA
25,1,continuous,18,76,fixationCross,6437386.0,6448386.0,11000.0,18,R,6437058,6437238,182,833.7,521.0,5195,NA
25,1,continuous,18,76,trial,6437386.0,6448386.0,11000.0,18,R,6437258,6437526,270,931.0,549.8,5405,NA
25,1,continuous,18,76,trial,6437386.0,6448386.0,11000.0,18,R,6437584,6437868,286,521.9,538.8,5458,left
25,1,continuous,18,76,trial,6437386.0,6448386.0,11000.0,18,R,6437884,6438348,466,426.7,564.5,4862,left
25,1,continuous,18,76,trial,6437386.0,6448386.0,11000.0,18,R,6438420,6438786,368,1367.1,578.3,4551,right
25,1,continuous,18,76,trial,6437386.0,6448386.0,11000.0,18,R,6438800,6439020,222,1436.0,554.8,4519,right
25,1,continuous,18,76,trial,6437386.0,6448386.0,11000.0,18,R,6439046,6439246,202,1405.8,447.7,4603,right
25,1,continuous,18,76,trial,6437386.0,6448386.0,11000.0,18,R,6439264,6439360,98,1503.2,458.7,4675,right
25,1,continuous,18,76,trial,6437386.0,6448386.0,11000.0,18,R,6439440,6439664,226,464.4,603.8,5000,left
25,1,continuous,18,76,trial,6437386.0,6448386.0,11000.0,18,R,6439676,6440180,506,412.6,595.5,4954,left
25,1,continuous,18,76,trial,6437386.0,6448386.0,11000.0,18,R,6440206,6440462,258,362.4,467.3,4691,left
25,1,continuous,18,76,trial,6437386.0,6448386.0,11000.0,18,R,6440486,6440848,364,460.4,540.8,4730,left
25,1,continuous,18,76,trial,6437386.0,6448386.0,11000.0,18,R,6440864,6441276,414,524.4,542.0,4944,left
25,1,continuous,18,76,trial,6437386.0,6448386.0,11000.0,18,R,6441294,6441432,140,472.7,547.5,5062,left
25,1,continuous,18,76,trial,6437386.0,6448386.0,11000.0,18,R,6441506,6441810,306,1381.7,611.3,4901,right
25,1,continuous,18,76,trial,6437386.0,6448386.0,11000.0,18,R,6441826,6442004,180,1344.9,577.2,4784,right
25,1,continuous,18,76,trial,6437386.0,6448386.0,11000.0,18,R,6442094,6442378,286,390.4,560.5,4968,left
25,1,continuous,18,76,trial,6437386.0,6448386.0,11000.0,18,R,6442390,6442718,330,416.6,585.1,4885,left
25,1,continuous,18,76,trial,6437386.0,6448386.0,11000.0,18,R,6442744,6443072,330,587.1,551.8,4888,left
25,1,continuous,18,76,trial,6437386.0,6448386.0,11000.0,18,R,6443086,6443908,824,520.8,542.7,4856,left
25,1,continuous,18,76,trial,6437386.0,6448386.0,11000.0,18,R,6443994,6444276,284,1483.7,619.9,4634,right
25,1,continuous,18,76,trial,6437386.0,6448386.0,11000.0,18,R,6444300,6444650,352,1365.2,555.4,4713,right
25,1,continuous,18,76,trial,6437386.0,6448386.0,11000.0,18,R,6444672,6444938,268,1428.6,599.5,4674,right
25,1,continuous,18,76,trial,6437386.0,6448386.0,11000.0,18,R,6444954,6445204,252,1506.8,623.0,4695,right
25,1,continuous,18,76,trial,6437386.0,6448386.0,11000.0,18,R,6445216,6445864,650,1469.7,609.8,4689,right
25,1,continuous,18,76,trial,6437386.0,6448386.0,11000.0,18,R,6445880,6446004,126,1411.9,600.9,4588,right
25,1,continuous,18,76,trial,6437386.0,6448386.0,11000.0,18,R,6446090,6446334,246,455.2,637.7,4785,left
25,1,continuous,18,76,trial,6437386.0,6448386.0,11000.0,18,R,6446350,6446632,284,379.7,584.9,4797,left
25,1,continuous,18,76,trial,6437386.0,6448386.0,11000.0,18,R,6446646,6447036,392,294.4,557.7,4666,left
25,1,continuous,18,76,trial,6437386.0,6448386.0,11000.0,18,R,6447122,6447344,224,1360.2,681.5,4509,right
25,1,continuous,18,76,trial,6437386.0,6448386.0,11000.0,18,R,6447364,6447552,190,1295.0,606.5,4650,right
25,1,continuous,18,76,trial,6437386.0,6448386.0,11000.0,18,R,6447576,6448078,504,1234.5,469.2,4909,right
25,1,continuous,18,76,trial,6437386.0,6448386.0,11000.0,18,R,6448096,6448600,506,1351.7,459.3,4888,right
25,1,continuous,19,1,fixationCross,6449436.0,6452236.0,2800.0,19,R,6448794,6448956,164,1037.6,484.8,5117,NA
25,1,continuous,19,1,fixationCross,6449436.0,6452236.0,2800.0,19,R,6448988,6449190,204,817.8,486.1,5338,NA
25,1,continuous,19,1,trial,6449436.0,6452236.0,2800.0,19,R,6449210,6449574,366,929.2,514.0,5522,NA
25,1,continuous,19,1,trial,6449436.0,6452236.0,2800.0,19,R,6449630,6449822,194,483.1,545.7,5733,left
25,1,continuous,19,1,trial,6449436.0,6452236.0,2800.0,19,R,6449840,6450164,326,389.5,513.9,5282,left
25,1,continuous,19,1,trial,6449436.0,6452236.0,2800.0,19,R,6450180,6450522,344,440.7,565.7,4985,left
25,1,continuous,19,1,trial,6449436.0,6452236.0,2800.0,19,R,6450536,6450728,194,475.0,586.3,5047,left
25,1,continuous,19,1,trial,6449436.0,6452236.0,2800.0,19,R,6450754,6450950,198,370.5,542.4,5100,left
25,1,continuous,19,1,trial,6449436.0,6452236.0,2800.0,19,R,6450960,6451112,154,340.6,519.7,5073,left
25,1,continuous,19,1,trial,6449436.0,6452236.0,2800.0,19,R,6451184,6451486,304,1319.6,530.2,4802,right
25,1,continuous,19,1,trial,6449436.0,6452236.0,2800.0,19,R,6451506,6451750,246,1343.5,612.6,4989,right
25,1,continuous,19,1,trial,6449436.0,6452236.0,2800.0,19,R,6451828,6452132,306,389.9,578.0,5517,left
25,1,continuous,19,1,trial,6449436.0,6452236.0,2800.0,19,R,6452150,6452530,382,474.8,581.4,5137,left
25,1,continuous,20,100,fixationCross,6453136.0,6455836.0,2700.0,20,R,6452646,6453040,396,872.7,547.9,5194,NA
25,1,continuous,20,100,trial,6453136.0,6455836.0,2700.0,20,R,6453056,6453282,228,950.6,549.9,5599,NA
25,1,continuous,20,100,trial,6453136.0,6455836.0,2700.0,20,R,6453338,6453744,408,489.7,550.0,5691,left
25,1,continuous,20,100,trial,6453136.0,6455836.0,2700.0,20,R,6453758,6454070,314,515.3,501.3,5286,left
25,1,continuous,20,100,trial,6453136.0,6455836.0,2700.0,20,R,6454142,6454480,340,1465.1,533.7,4980,right
25,1,continuous,20,100,trial,6453136.0,6455836.0,2700.0,20,R,6454702,6454880,180,1379.1,502.6,4876,right
25,1,continuous,20,100,trial,6453136.0,6455836.0,2700.0,20,R,6454966,6455300,336,484.1,545.9,5312,left
25,1,continuous,20,100,trial,6453136.0,6455836.0,2700.0,20,R,6455316,6455624,310,477.4,489.5,5184,left
25,1,continuous,20,100,trial,6453136.0,6455836.0,2700.0,20,R,6455704,6456130,428,1486.4,534.2,4905,right
25,1,continuous,21,1,fixationCross,6457086.0,6467153.0,10067.0,21,R,6456270,6456316,48,1087.9,533.8,4977,NA
25,1,continuous,21,1,fixationCross,6457086.0,6467153.0,10067.0,21,R,6456354,6456774,422,815.5,545.7,5208,NA
25,1,continuous,21,1,trial,6457086.0,6467153.0,10067.0,21,R,6456796,6457236,442,923.5,545.3,5605,NA
25,1,continuous,21,1,trial,6457086.0,6467153.0,10067.0,21,R,6457292,6457662,372,481.2,560.8,5660,left
25,1,continuous,21,1,trial,6457086.0,6467153.0,10067.0,21,R,6457678,6458000,324,525.7,530.2,5083,left
25,1,continuous,21,1,trial,6457086.0,6467153.0,10067.0,21,R,6458020,6458318,300,457.7,580.8,4848,left
25,1,continuous,21,1,trial,6457086.0,6467153.0,10067.0,21,R,6458344,6458596,254,412.8,655.1,4837,left
25,1,continuous,21,1,trial,6457086.0,6467153.0,10067.0,21,R,6458618,6458916,300,496.8,682.3,4860,left
25,1,continuous,21,1,trial,6457086.0,6467153.0,10067.0,21,R,6458940,6459298,360,566.3,711.8,4951,left
25,1,continuous,21,1,trial,6457086.0,6467153.0,10067.0,21,R,6459320,6459598,280,475.1,664.5,5046,left
25,1,continuous,21,1,trial,6457086.0,6467153.0,10067.0,21,R,6459654,6460016,364,353.5,382.0,4918,left
25,1,continuous,21,1,trial,6457086.0,6467153.0,10067.0,21,R,6460046,6460642,598,577.8,422.8,4850,left
25,1,continuous,21,1,trial,6457086.0,6467153.0,10067.0,21,R,6460686,6461030,346,462.3,534.7,4917,left
25,1,continuous,21,1,trial,6457086.0,6467153.0,10067.0,21,R,6461056,6461886,832,507.2,644.9,4894,left
25,1,continuous,21,1,trial,6457086.0,6467153.0,10067.0,21,R,6461954,6462270,318,1327.9,541.6,4840,right
25,1,continuous,21,1,trial,6457086.0,6467153.0,10067.0,21,R,6462282,6462616,336,1329.3,507.3,4680,right
25,1,continuous,21,1,trial,6457086.0,6467153.0,10067.0,21,R,6462632,6462804,174,1393.2,543.9,4601,right
25,1,continuous,21,1,trial,6457086.0,6467153.0,10067.0,21,R,6462826,6462928,104,1294.2,524.3,4607,right
25,1,continuous,21,1,trial,6457086.0,6467153.0,10067.0,21,R,6463000,6463342,344,456.0,597.5,4758,left
25,1,continuous,21,1,trial,6457086.0,6467153.0,10067.0,21,R,6463356,6464002,648,411.5,569.6,4876,left
25,1,continuous,21,1,trial,6457086.0,6467153.0,10067.0,21,R,6464016,6464310,296,460.5,554.1,4878,left
25,1,continuous,21,1,trial,6457086.0,6467153.0,10067.0,21,R,6464324,6464812,490,423.2,578.3,4955,left
25,1,continuous,21,1,trial,6457086.0,6467153.0,10067.0,21,R,6464834,6465238,406,513.6,593.5,4963,left
25,1,continuous,21,1,trial,6457086.0,6467153.0,10067.0,21,R,6465258,6465536,280,534.6,646.1,5111,left
25,1,continuous,21,1,trial,6457086.0,6467153.0,10067.0,21,R,6465554,6466948,1396,581.3,693.2,5178,left
25,1,continuous,21,1,trial,6457086.0,6467153.0,10067.0,21,R,6466988,6467136,150,400.5,724.3,5301,left
25,1,continuous,21,1,postResponse,6457086.0,6467153.0,10067.0,21,R,6467204,6467486,284,1293.8,590.5,5117,right
25,1,continuous,22,1,fixationCross,6468353.0,6473236.0,4883.0,22,R,6467562,6468020,460,842.7,489.1,5269,NA
25,1,continuous,22,1,fixationCross,6468353.0,6473236.0,4883.0,22,R,6468040,6468338,300,929.5,544.2,5598,NA
25,1,continuous,22,1,trial,6468353.0,6473236.0,4883.0,22,R,6468362,6468512,152,745.6,512.7,5714,NA
25,1,continuous,22,1,trial,6468353.0,6473236.0,4883.0,22,R,6468564,6468820,258,455.4,542.5,5639,left
25,1,continuous,22,1,trial,6468353.0,6473236.0,4883.0,22,R,6468888,6469502,616,1337.5,524.0,4847,right
25,1,continuous,22,1,trial,6468353.0,6473236.0,4883.0,22,R,6469522,6470080,560,1427.3,495.0,4969,right
25,1,continuous,22,1,trial,6468353.0,6473236.0,4883.0,22,R,6470100,6470428,330,1319.5,484.0,5320,right
25,1,continuous,22,1,trial,6468353.0,6473236.0,4883.0,22,R,6470530,6470842,314,426.8,572.4,5307,left
25,1,continuous,22,1,trial,6468353.0,6473236.0,4883.0,22,R,6470866,6471520,656,529.1,552.4,5028,left
25,1,continuous,22,1,trial,6468353.0,6473236.0,4883.0,22,R,6471540,6471866,328,480.3,549.9,5252,left
25,1,continuous,22,1,trial,6468353.0,6473236.0,4883.0,22,R,6471874,6472190,318,437.8,534.0,5139,left
25,1,continuous,22,1,trial,6468353.0,6473236.0,4883.0,22,R,6472202,6472346,146,469.7,561.1,5027,left
25,1,continuous,22,1,trial,6468353.0,6473236.0,4883.0,22,R,6472420,6472750,332,1440.0,536.2,4825,right
25,1,continuous,22,1,trial,6468353.0,6473236.0,4883.0,22,R,6472770,6473218,450,1351.6,525.9,4712,right
25,1,continuous,22,1,trial,6468353.0,6473236.0,4883.0,22,R,6473238,6473448,212,1446.8,534.0,4680,right
25,1,continuous,23,100,fixationCross,6474136.0,6485854.0,11718.0,23,R,6473682,6473830,150,1214.5,489.4,4951,right
25,1,continuous,23,100,trial,6474136.0,6485854.0,11718.0,23,R,6473862,6474140,280,950.3,507.8,5328,NA
25,1,continuous,23,100,trial,6474136.0,6485854.0,11718.0,23,R,6474156,6474280,126,924.4,545.1,5474,NA
25,1,continuous,23,100,trial,6474136.0,6485854.0,11718.0,23,R,6474334,6475038,706,489.2,528.3,5176,left
25,1,continuous,23,100,trial,6474136.0,6485854.0,11718.0,23,R,6475052,6475396,346,520.9,489.0,4914,left
25,1,continuous,23,100,trial,6474136.0,6485854.0,11718.0,23,R,6475406,6475822,418,485.3,502.9,5003,left
25,1,continuous,23,100,trial,6474136.0,6485854.0,11718.0,23,R,6475906,6476054,150,1312.4,538.0,4965,right
25,1,continuous,23,100,trial,6474136.0,6485854.0,11718.0,23,R,6476074,6476364,292,1431.8,527.3,4878,right
25,1,continuous,23,100,trial,6474136.0,6485854.0,11718.0,23,R,6476388,6476790,404,1398.0,603.3,4987,right
25,1,continuous,23,100,trial,6474136.0,6485854.0,11718.0,23,R,6476806,6477318,514,1433.6,543.4,5184,right
25,1,continuous,23,100,trial,6474136.0,6485854.0,11718.0,23,R,6477574,6477762,190,1421.5,529.0,5350,right
25,1,continuous,23,100,trial,6474136.0,6485854.0,11718.0,23,R,6477788,6478320,534,1373.0,647.2,5452,right
25,1,continuous,23,100,trial,6474136.0,6485854.0,11718.0,23,R,6478332,6478602,272,1418.3,614.2,5211,right
25,1,continuous,23,100,trial,6474136.0,6485854.0,11718.0,23,R,6478624,6478748,126,1428.6,557.3,5212,right
25,1,continuous,23,100,trial,6474136.0,6485854.0,11718.0,23,R,6478824,6479196,374,510.5,559.4,5262,left
25,1,continuous,23,100,trial,6474136.0,6485854.0,11718.0,23,R,6479210,6480014,806,485.7,489.7,4971,left
25,1,continuous,23,100,trial,6474136.0,6485854.0,11718.0,23,R,6480026,6480340,316,450.7,463.7,4967,left
25,1,continuous,23,100,trial,6474136.0,6485854.0,11718.0,23,R,6480352,6480820,470,498.2,455.1,5032,left
25,1,continuous,23,100,trial,6474136.0,6485854.0,11718.0,23,R,6480894,6481118,226,1423.1,575.8,5018,right
25,1,continuous,23,100,trial,6474136.0,6485854.0,11718.0,23,R,6481140,6481614,476,1374.9,654.0,4984,right
25,1,continuous,23,100,trial,6474136.0,6485854.0,11718.0,23,R,6481632,6481936,306,1416.1,551.7,4854,right
25,1,continuous,23,100,trial,6474136.0,6485854.0,11718.0,23,R,6482012,6482310,300,496.7,597.6,4902,left
25,1,continuous,23,100,trial,6474136.0,6485854.0,11718.0,23,R,6482332,6482702,372,455.7,498.7,4838,left
25,1,continuous,23,100,trial,6474136.0,6485854.0,11718.0,23,R,6482718,6482962,246,505.5,475.4,4780,left
25,1,continuous,23,100,trial,6474136.0,6485854.0,11718.0,23,R,6482972,6483182,212,483.0,459.6,4740,left
25,1,continuous,23,100,trial,6474136.0,6485854.0,11718.0,23,R,6483206,6483512,308,494.4,566.5,4766,left
25,1,continuous,23,100,trial,6474136.0,6485854.0,11718.0,23,R,6483534,6484086,554,547.1,652.8,4887,left
25,1,continuous,23,100,trial,6474136.0,6485854.0,11718.0,23,R,6484102,6484452,352,518.0,612.8,4981,left
25,1,continuous,23,100,trial,6474136.0,6485854.0,11718.0,23,R,6484468,6484776,310,438.2,568.6,5009,left
25,1,continuous,23,100,trial,6474136.0,6485854.0,11718.0,23,R,6484794,6484950,158,505.5,526.7,5018,left
25,1,continuous,23,100,trial,6474136.0,6485854.0,11718.0,23,R,6485018,6485342,326,1393.4,583.7,4857,right
25,1,continuous,23,100,trial,6474136.0,6485854.0,11718.0,23,R,6485354,6485604,252,1436.2,562.2,4721,right
25,1,continuous,23,100,trial,6474136.0,6485854.0,11718.0,23,R,6485628,6485824,198,1466.4,688.8,4671,right
25,1,continuous,23,100,trial,6474136.0,6485854.0,11718.0,23,R,6485846,6486052,208,1410.5,623.2,4747,right
25,1,continuous,24,50,fixationCross,6486770.0,6491904.0,5134.0,24,R,6486290,6486398,110,1115.2,473.4,4929,NA
25,1,continuous,24,50,fixationCross,6486770.0,6491904.0,5134.0,24,R,6486428,6486762,336,893.5,469.7,5323,NA
25,1,continuous,24,50,trial,6486770.0,6491904.0,5134.0,24,R,6486782,6486950,170,947.1,548.3,5578,NA
25,1,continuous,24,50,trial,6486770.0,6491904.0,5134.0,24,R,6487010,6487318,310,458.8,529.1,5633,left
25,1,continuous,24,50,trial,6486770.0,6491904.0,5134.0,24,R,6487386,6487616,232,1374.0,516.3,5351,right
25,1,continuous,24,50,trial,6486770.0,6491904.0,5134.0,24,R,6487630,6488120,492,1396.8,473.0,5376,right
25,1,continuous,24,50,trial,6486770.0,6491904.0,5134.0,24,R,6488238,6488548,312,468.8,543.0,5461,left
25,1,continuous,24,50,trial,6486770.0,6491904.0,5134.0,24,R,6488560,6488862,304,465.7,516.8,5426,left
25,1,continuous,24,50,trial,6486770.0,6491904.0,5134.0,24,R,6488936,6489134,200,1384.7,520.2,5168,right
25,1,continuous,24,50,trial,6486770.0,6491904.0,5134.0,24,R,6489152,6489436,286,1383.5,475.6,5121,right
25,1,continuous,24,50,trial,6486770.0,6491904.0,5134.0,24,R,6489454,6489824,372,1501.0,493.5,4953,right
25,1,continuous,24,50,trial,6486770.0,6491904.0,5134.0,24,R,6489836,6490072,238,1491.9,528.2,5033,right
25,1,continuous,24,50,trial,6486770.0,6491904.0,5134.0,24,R,6490086,6490244,160,1469.8,560.0,5088,right
25,1,continuous,24,50,trial,6486770.0,6491904.0,5134.0,24,R,6490264,6490414,152,1367.6,499.8,5142,right
25,1,continuous,24,50,trial,6486770.0,6491904.0,5134.0,24,R,6490492,6490676,186,420.1,542.1,5264,left
25,1,continuous,24,50,trial,6486770.0,6491904.0,5134.0,24,R,6490686,6491258,574,439.6,523.5,5062,left
25,1,continuous,24,50,trial,6486770.0,6491904.0,5134.0,24,R,6491330,6491594,266,1348.4,496.4,5003,right
25,1,continuous,24,50,trial,6486770.0,6491904.0,5134.0,24,R,6491606,6492192,588,1400.6,481.7,5159,right
25,1,continuous,25,100,fixationCross,6492987.0,6495187.0,2200.0,25,R,6492312,6492354,44,1232.3,512.0,5103,right
25,1,continuous,25,100,fixationCross,6492987.0,6495187.0,2200.0,25,R,6492422,6492684,264,752.9,580.0,5363,NA
25,1,continuous,25,100,trial,6492987.0,6495187.0,2200.0,25,R,6492710,6493118,410,926.8,540.7,5629,NA
25,1,continuous,25,100,trial,6492987.0,6495187.0,2200.0,25,R,6493174,6493542,370,515.9,532.6,5667,left
25,1,continuous,25,100,trial,6492987.0,6495187.0,2200.0,25,R,6493566,6493752,188,603.8,560.4,5196,left
25,1,continuous,25,100,trial,6492987.0,6495187.0,2200.0,25,R,6493764,6494038,276,641.3,561.2,5089,left
25,1,continuous,25,100,trial,6492987.0,6495187.0,2200.0,25,R,6494120,6494436,318,1439.8,589.2,4929,right
25,1,continuous,25,100,trial,6492987.0,6495187.0,2200.0,25,R,6494456,6494604,150,1357.1,609.4,4888,right
25,1,continuous,25,100,trial,6492987.0,6495187.0,2200.0,25,R,6494674,6494916,244,595.3,571.1,4922,left
25,1,continuous,25,100,trial,6492987.0,6495187.0,2200.0,25,R,6494964,6495146,184,360.0,466.4,4922,left
25,1,continuous,25,100,trial,6492987.0,6495187.0,2200.0,25,R,6495160,6495446,288,346.5,433.4,5065,left
25,1,continuous,26,1,fixationCross,6520954.0,6529970.0,9016.0,26,R,6520318,6520652,336,755.6,476.7,5705,NA
25,1,continuous,26,1,trial,6520954.0,6529970.0,9016.0,26,R,6520678,6521158,482,942.2,527.6,5915,NA
25,1,continuous,26,1,trial,6520954.0,6529970.0,9016.0,26,R,6521210,6521618,410,517.7,512.9,5708,left
25,1,continuous,26,1,trial,6520954.0,6529970.0,9016.0,26,R,6521642,6521834,194,576.5,587.8,5045,left
25,1,continuous,26,1,trial,6520954.0,6529970.0,9016.0,26,R,6521852,6522024,174,494.4,602.1,4954,left
25,1,continuous,26,1,trial,6520954.0,6529970.0,9016.0,26,R,6522094,6523372,1280,1415.8,545.9,4956,right
25,1,continuous,26,1,trial,6520954.0,6529970.0,9016.0,26,R,6523440,6523618,180,928.5,1005.1,5153,likertHorizontal
25,1,continuous,26,1,trial,6520954.0,6529970.0,9016.0,26,R,6523686,6524408,724,483.1,539.9,5133,left
25,1,continuous,26,1,trial,6520954.0,6529970.0,9016.0,26,R,6524452,6524602,152,812.6,491.9,5019,NA
25,1,continuous,26,1,trial,6520954.0,6529970.0,9016.0,26,R,6524660,6524962,304,1338.2,527.7,5113,right
25,1,continuous,26,1,trial,6520954.0,6529970.0,9016.0,26,R,6524982,6525292,312,1429.4,544.1,5177,right
25,1,continuous,26,1,trial,6520954.0,6529970.0,9016.0,26,R,6525302,6525820,520,1399.3,545.6,5150,right
25,1,continuous,26,1,trial,6520954.0,6529970.0,9016.0,26,R,6525896,6526074,180,526.2,584.1,5303,left
25,1,continuous,26,1,trial,6520954.0,6529970.0,9016.0,26,R,6526086,6526382,298,482.4,591.9,5269,left
25,1,continuous,26,1,trial,6520954.0,6529970.0,9016.0,26,R,6526400,6526796,398,466.5,532.6,5133,left
25,1,continuous,26,1,trial,6520954.0,6529970.0,9016.0,26,R,6526812,6527156,346,438.8,475.1,5099,left
25,1,continuous,26,1,trial,6520954.0,6529970.0,9016.0,26,R,6527190,6527918,730,500.5,654.3,5193,left
25,1,continuous,26,1,trial,6520954.0,6529970.0,9016.0,26,R,6527930,6528148,220,489.0,624.5,5470,left
25,1,continuous,26,1,trial,6520954.0,6529970.0,9016.0,26,R,6528208,6528348,142,462.8,1117.7,5550,NA
25,1,continuous,26,1,trial,6520954.0,6529970.0,9016.0,26,R,6528362,6528522,162,462.2,1078.2,5566,NA
25,1,continuous,26,1,trial,6520954.0,6529970.0,9016.0,26,R,6528594,6528694,102,619.1,533.0,5321,left
25,1,continuous,26,1,trial,6520954.0,6529970.0,9016.0,26,R,6528760,6529056,298,1367.2,559.3,5082,right
25,1,continuous,26,1,trial,6520954.0,6529970.0,9016.0,26,R,6529070,6529700,632,1440.2,560.1,5027,right
25,1,continuous,26,1,trial,6520954.0,6529970.0,9016.0,26,R,6529728,6529960,234,1500.9,654.4,5083,right
25,1,continuous,26,1,trial,6520954.0,6529970.0,9016.0,26,R,6529998,6530278,282,1389.2,511.5,5261,right
25,1,continuous,27,72,fixationCross,6530871.0,6536921.0,6050.0,27,R,6530386,6530536,152,1132.1,522.2,5294,NA
25,1,continuous,27,72,fixationCross,6530871.0,6536921.0,6050.0,27,R,6530560,6530822,264,927.0,509.3,5535,NA
25,1,continuous,27,72,trial,6530871.0,6536921.0,6050.0,27,R,6530834,6531022,190,936.5,549.8,5761,NA
25,1,continuous,27,72,trial,6530871.0,6536921.0,6050.0,27,R,6531082,6531582,502,475.6,563.0,5639,left
25,1,continuous,27,72,trial,6530871.0,6536921.0,6050.0,27,R,6531656,6531824,170,1385.9,515.7,4915,right
25,1,continuous,27,72,trial,6530871.0,6536921.0,6050.0,27,R,6531844,6532056,214,1517.2,516.4,4716,right
25,1,continuous,27,72,trial,6530871.0,6536921.0,6050.0,27,R,6532096,6532524,430,1296.7,480.1,4681,right
25,1,continuous,27,72,trial,6530871.0,6536921.0,6050.0,27,R,6532574,6532998,426,1500.6,699.1,4737,right
25,1,continuous,27,72,trial,6530871.0,6536921.0,6050.0,27,R,6533008,6533356,350,1483.2,719.0,4822,right
25,1,continuous,27,72,trial,6530871.0,6536921.0,6050.0,27,R,6533414,6533526,114,1530.9,487.8,4786,right
25,1,continuous,27,72,trial,6530871.0,6536921.0,6050.0,27,R,6533606,6533856,252,449.2,584.3,5022,left
25,1,continuous,27,72,trial,6530871.0,6536921.0,6050.0,27,R,6533872,6534208,338,432.0,538.0,5048,left
25,1,continuous,27,72,trial,6530871.0,6536921.0,6050.0,27,R,6534222,6534522,302,483.4,535.7,5112,left
25,1,continuous,27,72,trial,6530871.0,6536921.0,6050.0,27,R,6534542,6535028,488,443.7,624.9,5394,left
25,1,continuous,27,72,trial,6530871.0,6536921.0,6050.0,27,R,6535050,6535478,430,447.9,530.3,5497,left
25,1,continuous,27,72,trial,6530871.0,6536921.0,6050.0,27,R,6535584,6535764,182,1346.5,478.8,5361,right
25,1,continuous,27,72,trial,6530871.0,6536921.0,6050.0,27,R,6535776,6536164,390,1308.2,491.2,5224,right
25,1,continuous,27,72,trial,6530871.0,6536921.0,6050.0,27,R,6536202,6536610,410,1528.2,521.7,4881,right
25,1,continuous,27,72,trial,6530871.0,6536921.0,6050.0,27,R,6536652,6537204,554,1494.2,714.8,4807,right
25,1,continuous,28,83,fixationCross,6538054.0,6544554.0,6500.0,28,R,6537356,6537538,184,914.5,564.6,5075,NA
25,1,continuous,28,83,fixationCross,6538054.0,6544554.0,6500.0,28,R,6537562,6537796,236,814.4,462.2,5401,NA
25,1,continuous,28,83,trial,6538054.0,6544554.0,6500.0,28,R,6537820,6538196,378,930.2,534.6,5772,NA
25,1,continuous,28,83,trial,6538054.0,6544554.0,6500.0,28,R,6538260,6538574,316,412.6,547.6,5847,left
25,1,continuous,28,83,trial,6538054.0,6544554.0,6500.0,28,R,6538588,6538976,390,472.0,551.3,5224,left
25,1,continuous,28,83,trial,6538054.0,6544554.0,6500.0,28,R,6539050,6539336,288,1384.4,425.5,4915,right
25,1,continuous,28,83,trial,6538054.0,6544554.0,6500.0,28,R,6539354,6539606,254,1422.8,479.0,5057,right
25,1,continuous,28,83,trial,6538054.0,6544554.0,6500.0,28,R,6539622,6539920,300,1496.1,485.8,5170,right
25,1,continuous,28,83,trial,6538054.0,6544554.0,6500.0,28,R,6539942,6540270,330,1407.3,462.8,5287,right
25,1,continuous,28,83,trial,6538054.0,6544554.0,6500.0,28,R,6540292,6540612,322,1429.8,526.1,5355,right
25,1,continuous,28,83,trial,6538054.0,6544554.0,6500.0,28,R,6540630,6540986,358,1427.3,593.0,5542,right
25,1,continuous,28,83,trial,6538054.0,6544554.0,6500.0,28,R,6540998,6541162,166,1451.5,564.2,5535,right
25,1,continuous,28,83,trial,6538054.0,6544554.0,6500.0,28,R,6541186,6541326,142,1484.0,664.1,5445,right
25,1,continuous,28,83,trial,6538054.0,6544554.0,6500.0,28,R,6541384,6541756,374,1416.3,419.0,5248,right
25,1,continuous,28,83,trial,6538054.0,6544554.0,6500.0,28,R,6541782,6541884,104,1439.0,489.7,5250,right
25,1,continuous,28,83,trial,6538054.0,6544554.0,6500.0,28,R,6541960,6542384,426,484.3,551.4,5441,left
25,1,continuous,28,83,trial,6538054.0,6544554.0,6500.0,28,R,6542408,6542762,356,465.8,423.4,4998,left
25,1,continuous,28,83,trial,6538054.0,6544554.0,6500.0,28,R,6542786,6542976,192,377.6,426.7,5027,left
25,1,continuous,28,83,trial,6538054.0,6544554.0,6500.0,28,R,6543000,6543232,234,463.1,567.7,5134,left
25,1,continuous,28,83,trial,6538054.0,6544554.0,6500.0,28,R,6543304,6543620,318,1442.0,469.2,5105,right
25,1,continuous,28,83,trial,6538054.0,6544554.0,6500.0,28,R,6543646,6544024,380,1408.4,588.0,5198,right
25,1,continuous,28,83,trial,6538054.0,6544554.0,6500.0,28,R,6544042,6544384,344,1490.9,626.8,5159,right
25,1,continuous,28,83,trial,6538054.0,6544554.0,6500.0,28,R,6544400,6544862,464,1507.7,677.8,5181,right
25,1,continuous,29,88,fixationCross,6545454.0,6548921.0,3467.0,29,R,6544962,6545030,70,1422.1,655.4,5204,right
25,1,continuous,29,88,fixationCross,6545454.0,6548921.0,3467.0,29,R,6545092,6545312,222,1041.4,545.0,5335,NA
25,1,continuous,29,88,trial,6545454.0,6548921.0,3467.0,29,R,6545336,6545592,258,904.9,565.7,5575,NA
25,1,continuous,29,88,trial,6545454.0,6548921.0,3467.0,29,R,6545648,6545840,194,469.0,534.2,5807,left
25,1,continuous,29,88,trial,6545454.0,6548921.0,3467.0,29,R,6545860,6546314,456,479.7,446.9,5239,left
25,1,continuous,29,88,trial,6545454.0,6548921.0,3467.0,29,R,6546392,6546612,222,1510.9,435.3,4762,right
25,1,continuous,29,88,trial,6545454.0,6548921.0,3467.0,29,R,6546624,6546914,292,1550.9,464.4,4990,right
25,1,continuous,29,88,trial,6545454.0,6548921.0,3467.0,29,R,6546930,6547258,330,1538.3,427.2,5339,right
25,1,continuous,29,88,trial,6545454.0,6548921.0,3467.0,29,R,6547276,6547454,180,1562.2,466.8,5341,right
25,1,continuous,29,88,trial,6545454.0,6548921.0,3467.0,29,R,6547476,6547844,370,1608.1,574.2,5404,right
25,1,continuous,29,88,trial,6545454.0,6548921.0,3467.0,29,R,6548028,6548194,168,1553.2,436.5,5549,right
25,1,continuous,29,88,trial,6545454.0,6548921.0,3467.0,29,R,6548266,6548518,254,490.6,563.8,5953,left
25,1,continuous,29,88,trial,6545454.0,6548921.0,3467.0,29,R,6548542,6548720,180,593.4,596.3,5581,left
25,1,continuous,29,88,trial,6545454.0,6548921.0,3467.0,29,R,6548730,6548868,140,616.4,593.3,5225,left
25,1,continuous,29,88,postResponse,6545454.0,6548921.0,3467.0,29,R,6548916,6549256,342,470.0,444.2,5117,left
25,1,continuous,30,1,fixationCross,6550854.0,6561171.0,10317.0,30,R,6549358,6549388,32,475.3,453.4,5417,left
25,1,continuous,30,1,fixationCross,6550854.0,6561171.0,10317.0,30,R,6549412,6550142,732,623.5,488.7,5937,left
25,1,continuous,30,1,fixationCross,6550854.0,6561171.0,10317.0,30,R,6550158,6550524,368,588.8,493.4,6356,left
25,1,continuous,30,1,trial,6550854.0,6561171.0,10317.0,30,R,6550570,6550998,430,955.4,558.8,6406,NA
25,1,continuous,30,1,trial,6550854.0,6561171.0,10317.0,30,R,6551056,6551490,436,497.1,513.4,5967,left
25,1,continuous,30,1,trial,6550854.0,6561171.0,10317.0,30,R,6551506,6551830,326,416.2,533.6,5150,left
25,1,continuous,30,1,trial,6550854.0,6561171.0,10317.0,30,R,6551988,6552204,218,361.8,557.2,5421,left
25,1,continuous,30,1,trial,6550854.0,6561171.0,10317.0,30,R,6552244,6552412,170,596.7,546.2,5577,left
25,1,continuous,30,1,trial,6550854.0,6561171.0,10317.0,30,R,6552442,6552852,412,350.5,566.5,5343,left
25,1,continuous,30,1,trial,6550854.0,6561171.0,10317.0,30,R,6552874,6552980,108,463.0,521.8,5257,left
25,1,continuous,30,1,trial,6550854.0,6561171.0,10317.0,30,R,6553052,6553374,324,1445.8,550.4,5138,right
25,1,continuous,30,1,trial,6550854.0,6561171.0,10317.0,30,R,6553392,6553640,250,1487.8,510.9,5212,right
25,1,continuous,30,1,trial,6550854.0,6561171.0,10317.0,30,R,6553666,6553972,308,1476.7,620.6,5161,right
25,1,continuous,30,1,trial,6550854.0,6561171.0,10317.0,30,R,6553986,6554218,234,1471.7,576.1,5060,right
25,1,continuous,30,1,trial,6550854.0,6561171.0,10317.0,30,R,6554236,6554658,424,1472.8,510.3,5072,right
25,1,continuous,30,1,trial,6550854.0,6561171.0,10317.0,30,R,6554668,6554798,132,1504.0,520.6,5062,right
25,1,continuous,30,1,trial,6550854.0,6561171.0,10317.0,30,R,6554822,6555120,300,1464.6,605.4,5132,right
25,1,continuous,30,1,trial,6550854.0,6561171.0,10317.0,30,R,6555142,6555348,208,1582.7,579.7,5076,right
25,1,continuous,30,1,trial,6550854.0,6561171.0,10317.0,30,R,6555430,6555640,212,458.2,555.5,5220,left
25,1,continuous,30,1,trial,6550854.0,6561171.0,10317.0,30,R,6555656,6555806,152,395.5,536.2,5033,left
25,1,continuous,30,1,trial,6550854.0,6561171.0,10317.0,30,R,6555828,6556216,390,284.6,603.8,4852,left
25,1,continuous,30,1,trial,6550854.0,6561171.0,10317.0,30,R,6556252,6556486,236,455.8,495.8,4780,left
25,1,continuous,30,1,trial,6550854.0,6561171.0,10317.0,30,R,6556562,6556934,374,1459.1,614.8,4588,right
25,1,continuous,30,1,trial,6550854.0,6561171.0,10317.0,30,R,6556948,6557568,622,1536.2,621.3,4804,right
25,1,continuous,30,1,trial,6550854.0,6561171.0,10317.0,30,R,6557586,6558038,454,1562.8,661.9,4774,right
25,1,continuous,30,1,trial,6550854.0,6561171.0,10317.0,30,R,6558054,6558460,408,1519.3,689.3,4784,right
25,1,continuous,30,1,trial,6550854.0,6561171.0,10317.0,30,R,6558472,6558888,418,1584.0,659.9,4751,right
25,1,continuous,30,1,trial,6550854.0,6561171.0,10317.0,30,R,6558904,6559206,304,1524.5,677.7,4705,right
25,1,continuous,30,1,trial,6550854.0,6561171.0,10317.0,30,R,6559230,6559528,300,1402.1,627.5,4791,right
25,1,continuous,30,1,trial,6550854.0,6561171.0,10317.0,30,R,6559548,6559840,294,1474.4,695.9,4832,right
25,1,continuous,30,1,trial,6550854.0,6561171.0,10317.0,30,R,6559850,6560004,156,1448.9,701.0,4891,right
25,1,continuous,30,1,trial,6550854.0,6561171.0,10317.0,30,R,6560048,6560202,156,1272.6,585.4,4913,right
25,1,continuous,30,1,trial,6550854.0,6561171.0,10317.0,30,R,6560274,6560502,230,342.6,588.7,5014,left
25,1,continuous,30,1,trial,6550854.0,6561171.0,10317.0,30,R,6560518,6560830,314,272.1,604.7,4800,left
25,1,continuous,30,1,trial,6550854.0,6561171.0,10317.0,30,R,6560872,6561354,484,469.8,469.9,4590,left
25,1,continuous,31,1,fixationCross,6562221.0,6567171.0,4950.0,31,R,6561606,6561660,56,858.1,447.9,5054,NA
25,1,continuous,31,1,fixationCross,6562221.0,6567171.0,4950.0,31,R,6561690,6561896,208,1107.8,441.2,5196,NA
25,1,continuous,31,1,fixationCross,6562221.0,6567171.0,4950.0,31,R,6561922,6562132,212,947.5,474.3,5462,NA
25,1,continuous,31,1,trial,6562221.0,6567171.0,4950.0,31,R,6562152,6562358,208,930.1,545.9,5526,NA
25,1,continuous,31,1,trial,6562221.0,6567171.0,4950.0,31,R,6562416,6562696,282,477.2,569.4,5605,left
25,1,continuous,31,1,trial,6562221.0,6567171.0,4950.0,31,R,6562712,6562946,236,549.1,559.9,5018,left
25,1,continuous,31,1,trial,6562221.0,6567171.0,4950.0,31,R,6562972,6563286,316,399.3,529.5,4712,left
25,1,continuous,31,1,trial,6562221.0,6567171.0,4950.0,31,R,6563316,6563568,254,586.7,547.8,4632,left
25,1,continuous,31,1,trial,6562221.0,6567171.0,4950.0,31,R,6563636,6563898,264,1435.3,670.3,4655,right
25,1,continuous,31,1,trial,6562221.0,6567171.0,4950.0,31,R,6563912,6564184,274,1393.1,647.0,4795,right
25,1,continuous,31,1,trial,6562221.0,6567171.0,4950.0,31,R,6564208,6564464,258,1512.7,600.7,4772,right
25,1,continuous,31,1,trial,6562221.0,6567171.0,4950.0,31,R,6564484,6564596,114,1402.5,612.8,4808,right
25,1,continuous,31,1,trial,6562221.0,6567171.0,4950.0,31,R,6564668,6564960,294,453.7,564.6,4997,left
25,1,continuous,31,1,trial,6562221.0,6567171.0,4950.0,31,R,6564988,6565524,538,611.3,568.9,4739,left
25,1,continuous,31,1,trial,6562221.0,6567171.0,4950.0,31,R,6565594,6565800,208,1434.2,645.8,4604,right
25,1,continuous,31,1,trial,6562221.0,6567171.0,4950.0,31,R,6565818,6566192,376,1382.0,677.5,4814,right
25,1,continuous,31,1,trial,6562221.0,6567171.0,4950.0,31,R,6566218,6566418,202,1485.6,626.3,4784,right
25,1,continuous,31,1,trial,6562221.0,6567171.0,4950.0,31,R,6566506,6566704,200,384.9,549.9,4923,left
25,1,continuous,31,1,trial,6562221.0,6567171.0,4950.0,31,R,6566718,6567012,296,348.7,504.4,4844,left
25,1,continuous,31,1,trial,6562221.0,6567171.0,4950.0,31,R,6567034,6567320,288,496.8,535.1,4856,left
25,1,continuous,31,1,trial,6562221.0,6567171.0,4950.0,31,R,6567388,6567406,20,979.5,606.3,4944,NA
25,1,continuous,31,1,postResponse,6562221.0,6567171.0,4950.0,31,R,6567438,6567508,72,1063.6,665.3,4921,NA
25,1,continuous,32,100,fixationCross,6568054.0,6570271.0,2217.0,32,R,6567582,6567608,28,1064.4,673.6,4943,NA
25,1,continuous,32,100,fixationCross,6568054.0,6570271.0,2217.0,32,R,6567620,6567850,232,954.0,548.8,5106,NA
25,1,continuous,32,100,trial,6568054.0,6570271.0,2217.0,32,R,6567866,6568086,222,978.4,461.0,5343,NA
25,1,continuous,32,100,trial,6568054.0,6570271.0,2217.0,32,R,6568112,6568222,112,928.3,541.1,5527,NA
25,1,continuous,32,100,trial,6568054.0,6570271.0,2217.0,32,R,6568278,6568512,236,470.6,557.2,5661,left
25,1,continuous,32,100,trial,6568054.0,6570271.0,2217.0,32,R,6568524,6568736,214,443.6,528.0,5358,left
25,1,continuous,32,100,trial,6568054.0,6570271.0,2217.0,32,R,6568760,6568960,202,297.0,551.9,5234,left
25,1,continuous,32,100,trial,6568054.0,6570271.0,2217.0,32,R,6569006,6569196,192,599.6,632.8,5309,left
25,1,continuous,32,100,trial,6568054.0,6570271.0,2217.0,32,R,6569264,6569484,222,1463.5,541.0,5319,right
25,1,continuous,32,100,trial,6568054.0,6570271.0,2217.0,32,R,6569498,6569730,234,1415.3,538.2,5083,right
25,1,continuous,32,100,trial,6568054.0,6570271.0,2217.0,32,R,6569744,6569922,180,1336.3,514.7,4911,right
25,1,continuous,32,100,trial,6568054.0,6570271.0,2217.0,32,R,6569998,6570264,268,450.9,554.3,5040,left
25,1,continuous,32,100,trial,6568054.0,6570271.0,2217.0,32,R,6570328,6570498,172,1344.8,566.9,5206,right
25,1,continuous,33,1,fixationCross,6571188.0,6575955.0,4767.0,33,R,6570746,6570882,138,1063.7,478.7,5550,NA
25,1,continuous,33,1,trial,6571188.0,6575955.0,4767.0,33,R,6570906,6571232,328,912.7,504.3,5919,NA
25,1,continuous,33,1,trial,6571188.0,6575955.0,4767.0,33,R,6571248,6571412,166,941.1,537.0,6025,NA
25,1,continuous,33,1,trial,6571188.0,6575955.0,4767.0,33,R,6571464,6571790,328,1354.6,517.6,5597,right
25,1,continuous,33,1,trial,6571188.0,6575955.0,4767.0,33,R,6571814,6572066,254,1505.7,542.8,5379,right
25,1,continuous,33,1,trial,6571188.0,6575955.0,4767.0,33,R,6572084,6572230,148,1567.6,508.4,5393,right
25,1,continuous,33,1,trial,6571188.0,6575955.0,4767.0,33,R,6572308,6572460,154,498.4,520.4,5639,left
25,1,continuous,33,1,trial,6571188.0,6575955.0,4767.0,33,R,6572478,6572634,158,433.9,485.1,5622,left
25,1,continuous,33,1,trial,6571188.0,6575955.0,4767.0,33,R,6572658,6573060,404,477.2,566.1,5308,left
25,1,continuous,33,1,trial,6571188.0,6575955.0,4767.0,33,R,6573248,6573442,196,507.0,538.5,5389,left
25,1,continuous,33,1,trial,6571188.0,6575955.0,4767.0,33,R,6573464,6573614,152,450.1,474.9,5484,left
25,1,continuous,33,1,trial,6571188.0,6575955.0,4767.0,33,R,6573690,6573932,244,1454.1,565.9,5277,right
25,1,continuous,33,1,trial,6571188.0,6575955.0,4767.0,33,R,6573954,6574168,216,1578.8,511.1,5210,right
25,1,continuous,33,1,trial,6571188.0,6575955.0,4767.0,33,R,6574178,6574386,210,1575.2,487.4,5310,right
25,1,continuous,33,1,trial,6571188.0,6575955.0,4767.0,33,R,6574466,6574614,150,519.7,542.5,5642,left
25,1,continuous,33,1,trial,6571188.0,6575955.0,4767.0,33,R,6574634,6575260,628,438.4,467.3,5320,left
25,1,continuous,33,1,trial,6571188.0,6575955.0,4767.0,33,R,6575284,6575716,434,480.6,589.5,5102,left
25,1,continuous,33,1,trial,6571188.0,6575955.0,4767.0,33,R,6575750,6575932,184,332.7,703.0,5366,left
25,1,continuous,33,1,trial,6571188.0,6575955.0,4767.0,33,R,6576012,6576216,206,1462.1,558.3,5301,right
25,1,continuous,33,1,postResponse,6571188.0,6575955.0,4767.0,33,R,6576260,6576288,30,1171.9,546.1,5469,NA
25,1,continuous,34,100,fixationCross,6576838.0,6583271.0,6433.0,34,R,6576362,6576452,92,1168.9,549.3,5538,NA
25,1,continuous,34,100,fixationCross,6576838.0,6583271.0,6433.0,34,R,6576482,6576778,298,996.6,494.6,5664,NA
25,1,continuous,34,100,trial,6576838.0,6583271.0,6433.0,34,R,6576796,6577016,222,942.3,532.5,5830,NA
25,1,continuous,34,100,trial,6576838.0,6583271.0,6433.0,34,R,6577070,6577342,274,510.2,535.4,5832,left
25,1,continuous,34,100,trial,6576838.0,6583271.0,6433.0,34,R,6577352,6577530,180,476.5,500.7,5382,left
25,1,continuous,34,100,trial,6576838.0,6583271.0,6433.0,34,R,6577560,6577992,434,392.8,693.2,5071,left
25,1,continuous,34,100,trial,6576838.0,6583271.0,6433.0,34,R,6578046,6578256,212,489.8,448.3,4879,left
25,1,continuous,34,100,trial,6576838.0,6583271.0,6433.0,34,R,6578276,6578402,128,393.2,445.9,4823,left
25,1,continuous,34,100,trial,6576838.0,6583271.0,6433.0,34,R,6578476,6578668,194,1374.8,539.4,4654,right
25,1,continuous,34,100,trial,6576838.0,6583271.0,6433.0,34,R,6578684,6578948,266,1468.5,546.5,4664,right
25,1,continuous,34,100,trial,6576838.0,6583271.0,6433.0,34,R,6578958,6579408,452,1447.4,554.8,4761,right
25,1,continuous,34,100,trial,6576838.0,6583271.0,6433.0,34,R,6579444,6579804,362,1264.5,486.0,4855,right
25,1,continuous,34,100,trial,6576838.0,6583271.0,6433.0,34,R,6579838,6580078,242,1440.4,578.8,5073,right
25,1,continuous,34,100,trial,6576838.0,6583271.0,6433.0,34,R,6580164,6580436,274,477.8,560.3,5313,left
25,1,continuous,34,100,trial,6576838.0,6583271.0,6433.0,34,R,6580470,6580660,192,459.0,677.3,5068,left
25,1,continuous,34,100,trial,6576838.0,6583271.0,6433.0,34,R,6580702,6580998,298,848.0,606.9,4978,NA
25,1,continuous,34,100,trial,6576838.0,6583271.0,6433.0,34,R,6581050,6581680,632,1352.3,549.9,5026,right
25,1,continuous,34,100,trial,6576838.0,6583271.0,6433.0,34,R,6581762,6582078,318,449.6,560.9,5213,left
25,1,continuous,34,100,trial,6576838.0,6583271.0,6433.0,34,R,6582108,6582474,368,492.0,646.0,5266,left
25,1,continuous,34,100,trial,6576838.0,6583271.0,6433.0,34,R,6582544,6582768,226,614.6,375.1,5361,left
25,1,continuous,34,100,trial,6576838.0,6583271.0,6433.0,34,R,6582780,6582884,106,591.9,391.7,5363,left
25,1,continuous,34,100,trial,6576838.0,6583271.0,6433.0,34,R,6582950,6583204,256,1397.5,541.6,5343,right
25,1,continuous,34,100,postResponse,6576838.0,6583271.0,6433.0,34,R,6583218,6583608,392,1437.8,565.3,5405,right
25,1,continuous,35,2,fixationCross,6584288.0,6587304.0,3016.0,35,R,6583682,6583726,46,1436.9,567.4,5502,right
25,1,continuous,35,2,fixationCross,6584288.0,6587304.0,3016.0,35,R,6583748,6583976,230,1289.6,549.8,5616,right
25,1,continuous,35,2,fixationCross,6584288.0,6587304.0,3016.0,35,R,6584030,6584282,254,923.4,596.8,5926,NA
25,1,continuous,35,2,trial,6584288.0,6587304.0,3016.0,35,R,6584294,6584442,150,940.2,579.0,6097,NA
25,1,continuous,35,2,trial,6584288.0,6587304.0,3016.0,35,R,6584510,6584820,312,498.5,600.3,6161,left
25,1,continuous,35,2,trial,6584288.0,6587304.0,3016.0,35,R,6584834,6585102,270,536.3,553.1,5387,left
25,1,continuous,35,2,trial,6584288.0,6587304.0,3016.0,35,R,6585122,6585230,110,455.6,596.4,5072,left
25,1,continuous,35,2,trial,6584288.0,6587304.0,3016.0,35,R,6585296,6585438,144,1293.9,563.2,4936,right
25,1,continuous,35,2,trial,6584288.0,6587304.0,3016.0,35,R,6585640,6585980,342,1341.5,536.1,5381,right
25,1,continuous,35,2,trial,6584288.0,6587304.0,3016.0,35,R,6586056,6586476,422,484.5,579.4,5540,left
25,1,continuous,35,2,trial,6584288.0,6587304.0,3016.0,35,R,6586492,6586914,424,527.4,530.1,4953,left
25,1,continuous,35,2,trial,6584288.0,6587304.0,3016.0,35,R,6586934,6587072,140,493.7,505.6,4916,left
25,1,continuous,35,2,postResponse,6584288.0,6587304.0,3016.0,35,R,6587138,6587638,502,1291.3,546.6,5177,right
25,1,continuous,36,85,fixationCross,6588171.0,6593238.0,5067.0,36,R,6587734,6587740,8,1126.4,521.3,5477,NA
25,1,continuous,36,85,fixationCross,6588171.0,6593238.0,5067.0,36,R,6587776,6588124,350,883.1,497.6,5712,NA
25,1,continuous,36,85,trial,6588171.0,6593238.0,5067.0,36,R,6588144,6588342,200,947.2,555.1,5895,NA
25,1,continuous,36,85,trial,6588171.0,6593238.0,5067.0,36,R,6588396,6588628,234,486.9,561.3,6031,left
25,1,continuous,36,85,trial,6588171.0,6593238.0,5067.0,36,R,6588644,6588828,186,417.6,586.2,5765,left
25,1,continuous,36,85,trial,6588171.0,6593238.0,5067.0,36,R,6588850,6589420,572,427.5,645.7,5515,left
25,1,continuous,36,85,trial,6588171.0,6593238.0,5067.0,36,R,6589498,6589964,468,1416.1,532.8,5260,right
25,1,continuous,36,85,trial,6588171.0,6593238.0,5067.0,36,R,6589976,6590220,246,1437.2,574.4,5259,right
25,1,continuous,36,85,trial,6588171.0,6593238.0,5067.0,36,R,6590244,6590596,354,1514.1,635.6,5283,right
25,1,continuous,36,85,trial,6588171.0,6593238.0,5067.0,36,R,6590608,6590754,148,1551.5,629.1,5226,right
25,1,continuous,36,85,trial,6588171.0,6593238.0,5067.0,36,R,6590768,6590958,192,1612.3,656.6,5174,right
25,1,continuous,36,85,trial,6588171.0,6593238.0,5067.0,36,R,6590972,6591360,390,1608.7,701.5,5192,right
25,1,continuous,36,85,trial,6588171.0,6593238.0,5067.0,36,R,6591370,6591482,114,1590.4,674.6,5184,right
25,1,continuous,36,85,trial,6588171.0,6593238.0,5067.0,36,R,6591532,6591798,268,1337.2,538.5,5134,right
25,1,continuous,36,85,trial,6588171.0,6593238.0,5067.0,36,R,6591814,6592158,346,1265.6,520.9,5104,right
25,1,continuous,36,85,trial,6588171.0,6593238.0,5067.0,36,R,6592172,6592444,274,1261.5,549.8,5090,right
25,1,continuous,36,85,trial,6588171.0,6593238.0,5067.0,36,R,6592482,6592946,466,1381.3,633.2,5164,right
25,1,continuous,36,85,trial,6588171.0,6593238.0,5067.0,36,R,6592962,6593078,118,1430.8,630.5,5265,right
25,1,continuous,36,85,trial,6588171.0,6593238.0,5067.0,36,R,6593156,6593442,288,479.4,644.7,5434,left
25,1,continuous,37,1,fixationCross,6594255.0,6599705.0,5450.0,37,R,6593646,6593952,308,1048.9,488.7,5423,NA
25,1,continuous,37,1,trial,6594255.0,6599705.0,5450.0,37,R,6593982,6594406,426,941.7,512.3,5809,NA
25,1,continuous,37,1,trial,6594255.0,6599705.0,5450.0,37,R,6594472,6594656,186,516.4,559.5,5986,left
25,1,continuous,37,1,trial,6594255.0,6599705.0,5450.0,37,R,6594676,6594866,192,537.8,613.5,5917,left
25,1,continuous,37,1,trial,6594255.0,6599705.0,5450.0,37,R,6594880,6595150,272,480.7,617.3,5913,left
25,1,continuous,37,1,trial,6594255.0,6599705.0,5450.0,37,R,6595170,6595490,322,618.3,643.8,6061,left
25,1,continuous,37,1,trial,6594255.0,6599705.0,5450.0,37,R,6595500,6595654,156,600.6,663.1,6066,left
25,1,continuous,37,1,trial,6594255.0,6599705.0,5450.0,37,R,6595676,6595902,228,504.9,626.8,6095,left
25,1,continuous,37,1,trial,6594255.0,6599705.0,5450.0,37,R,6595920,6596118,200,623.4,640.3,6020,left
25,1,continuous,37,1,trial,6594255.0,6599705.0,5450.0,37,R,6596128,6596318,192,652.1,629.8,5944,left
25,1,continuous,37,1,trial,6594255.0,6599705.0,5450.0,37,R,6596336,6596732,398,633.6,587.5,5905,left
25,1,continuous,37,1,trial,6594255.0,6599705.0,5450.0,37,R,6596800,6597100,302,1343.1,536.8,5623,right
25,1,continuous,37,1,trial,6594255.0,6599705.0,5450.0,37,R,6597132,6597280,150,1505.7,539.1,5391,right
25,1,continuous,37,1,trial,6594255.0,6599705.0,5450.0,37,R,6597302,6597908,608,1418.0,560.2,5064,right
25,1,continuous,37,1,trial,6594255.0,6599705.0,5450.0,37,R,6597934,6598336,404,1589.9,598.4,4714,right
25,1,continuous,37,1,trial,6594255.0,6599705.0,5450.0,37,R,6598392,6598642,252,1207.4,519.3,5017,right
25,1,continuous,37,1,trial,6594255.0,6599705.0,5450.0,37,R,6598720,6598996,278,431.3,612.4,5278,left
25,1,continuous,37,1,trial,6594255.0,6599705.0,5450.0,37,R,6599018,6599242,226,565.9,627.0,5458,left
25,1,continuous,37,1,trial,6594255.0,6599705.0,5450.0,37,R,6599260,6599396,138,631.8,597.4,5537,left
25,1,continuous,37,1,trial,6594255.0,6599705.0,5450.0,37,R,6599422,6599890,470,513.4,495.1,5513,left
25,1,continuous,37,1,postResponse,6594255.0,6599705.0,5450.0,37,R,6599924,6600036,114,748.7,602.5,5537,NA
25,1,continuous,38,18,trial,6600588.0,6608238.0,7650.0,38,R,6600130,6600732,604,921.3,475.9,5819,NA
25,1,continuous,38,18,trial,6600588.0,6608238.0,7650.0,38,R,6600784,6601118,336,570.2,532.4,6047,left
25,1,continuous,38,18,trial,6600588.0,6608238.0,7650.0,38,R,6601136,6601292,158,620.8,517.4,5508,left
25,1,continuous,38,18,trial,6600588.0,6608238.0,7650.0,38,R,6601304,6601574,272,589.7,500.4,5336,left
25,1,continuous,38,18,trial,6600588.0,6608238.0,7650.0,38,R,6601654,6601860,208,1455.4,551.7,5194,right
25,1,continuous,38,18,trial,6600588.0,6608238.0,7650.0,38,R,6602058,6602250,194,1341.4,576.6,5062,right
25,1,continuous,38,18,trial,6600588.0,6608238.0,7650.0,38,R,6602264,6602478,216,1289.2,584.3,5194,right
25,1,continuous,38,18,trial,6600588.0,6608238.0,7650.0,38,R,6602554,6603074,522,478.1,552.8,5371,left
25,1,continuous,38,18,trial,6600588.0,6608238.0,7650.0,38,R,6603108,6603302,196,698.9,570.4,5505,left
25,1,continuous,38,18,trial,6600588.0,6608238.0,7650.0,38,R,6603374,6603636,264,1391.3,574.0,5579,right
25,1,continuous,38,18,trial,6600588.0,6608238.0,7650.0,38,R,6603656,6603972,318,1298.4,613.7,5637,right
25,1,continuous,38,18,trial,6600588.0,6608238.0,7650.0,38,R,6603994,6604434,442,1445.3,498.3,5602,right
25,1,continuous,38,18,trial,6600588.0,6608238.0,7650.0,38,R,6604458,6604604,148,1441.4,558.3,5562,right
25,1,continuous,38,18,trial,6600588.0,6608238.0,7650.0,38,R,6604626,6604986,362,1413.7,636.1,5501,right
25,1,continuous,38,18,trial,6600588.0,6608238.0,7650.0,38,R,6605006,6605278,274,1326.0,666.4,5646,right
25,1,continuous,38,18,trial,6600588.0,6608238.0,7650.0,38,R,6605498,6605828,332,1384.7,579.8,5528,right
25,1,continuous,38,18,trial,6600588.0,6608238.0,7650.0,38,R,6605852,6606060,210,1451.0,552.1,5427,right
25,1,continuous,38,18,trial,6600588.0,6608238.0,7650.0,38,R,6606134,6606386,254,564.6,538.7,5301,left
25,1,continuous,38,18,trial,6600588.0,6608238.0,7650.0,38,R,6606404,6606874,472,636.7,488.0,5206,left
25,1,continuous,38,18,trial,6600588.0,6608238.0,7650.0,38,R,6606942,6607408,468,1386.0,559.0,5153,right
25,1,continuous,38,18,trial,6600588.0,6608238.0,7650.0,38,R,6607436,6607514,80,1506.4,520.5,5022,right
25,1,continuous,38,18,trial,6600588.0,6608238.0,7650.0,38,R,6607596,6607866,272,474.8,594.4,5135,left
25,1,continuous,38,18,trial,6600588.0,6608238.0,7650.0,38,R,6607886,6608116,232,431.2,524.8,5196,left
25,1,continuous,38,18,trial,6600588.0,6608238.0,7650.0,38,R,6608142,6608554,414,604.1,525.0,5286,left
25,1,continuous,39,11,fixationCross,6609121.0,6614822.0,5701.0,39,R,6608648,6608782,136,764.0,567.4,5322,NA
25,1,continuous,39,11,trial,6609121.0,6614822.0,5701.0,39,R,6608806,6609284,480,941.0,542.2,5719,NA
25,1,continuous,39,11,trial,6609121.0,6614822.0,5701.0,39,R,6609344,6609706,364,490.7,577.0,5947,left
25,1,continuous,39,11,trial,6609121.0,6614822.0,5701.0,39,R,6609782,6610086,306,1446.1,514.5,5356,right
25,1,continuous,39,11,trial,6609121.0,6614822.0,5701.0,39,R,6610290,6610582,294,1431.5,486.1,5699,right
25,1,continuous,39,11,trial,6609121.0,6614822.0,5701.0,39,R,6610598,6610768,172,1508.0,515.5,5906,right
25,1,continuous,39,11,trial,6609121.0,6614822.0,5701.0,39,R,6610848,6611234,388,558.9,615.2,5926,left
25,1,continuous,39,11,trial,6609121.0,6614822.0,5701.0,39,R,6611254,6611954,702,469.6,571.4,6025,left
25,1,continuous,39,11,trial,6609121.0,6614822.0,5701.0,39,R,6611974,6612608,636,572.4,570.5,6368,left
25,1,continuous,39,11,trial,6609121.0,6614822.0,5701.0,39,R,6612620,6612942,324,528.6,583.7,6269,left
25,1,continuous,39,11,trial,6609121.0,6614822.0,5701.0,39,R,6612962,6613108,148,605.0,562.0,6106,left
25,1,continuous,39,11,trial,6609121.0,6614822.0,5701.0,39,R,6613174,6613384,212,1456.5,541.7,5763,right
25,1,continuous,39,11,trial,6609121.0,6614822.0,5701.0,39,R,6613406,6613724,320,1534.8,472.6,5488,right
25,1,continuous,39,11,trial,6609121.0,6614822.0,5701.0,39,R,6613804,6614070,268,493.8,590.0,5458,left
25,1,continuous,39,11,trial,6609121.0,6614822.0,5701.0,39,R,6614094,6614472,380,400.2,541.8,5477,left
25,1,continuous,39,11,trial,6609121.0,6614822.0,5701.0,39,R,6614498,6614730,234,560.2,575.9,5593,left
25,1,continuous,39,11,trial,6609121.0,6614822.0,5701.0,39,R,6614804,6615122,320,1463.1,570.8,5472,right
25,1,continuous,40,8,fixationCross,6615722.0,6618288.0,2566.0,40,R,6615256,6615428,174,1043.4,552.3,5573,NA
25,1,continuous,40,8,fixationCross,6615722.0,6618288.0,2566.0,40,R,6615450,6615702,254,923.1,513.9,5799,NA
25,1,continuous,40,8,trial,6615722.0,6618288.0,2566.0,40,R,6615716,6615874,160,944.8,536.1,5993,NA
25,1,continuous,40,8,trial,6615722.0,6618288.0,2566.0,40,R,6615928,6616160,234,544.3,517.3,6035,left
25,1,continuous,40,8,trial,6615722.0,6618288.0,2566.0,40,R,6616202,6616440,240,349.8,596.7,5528,left
25,1,continuous,40,8,trial,6615722.0,6618288.0,2566.0,40,R,6616454,6616574,122,396.0,588.0,5278,left
25,1,continuous,40,8,trial,6615722.0,6618288.0,2566.0,40,R,6616618,6617008,392,542.1,471.5,5151,left
25,1,continuous,40,8,trial,6615722.0,6618288.0,2566.0,40,R,6617056,6617272,218,359.7,595.3,5390,left
25,1,continuous,40,8,trial,6615722.0,6618288.0,2566.0,40,R,6617282,6617744,464,380.4,594.7,5559,left
25,1,continuous,40,8,trial,6615722.0,6618288.0,2566.0,40,R,6617822,6618076,256,1424.8,610.7,5137,right
25,1,continuous,40,8,trial,6615722.0,6618288.0,2566.0,40,R,6618100,6618350,252,1559.2,553.4,4945,right
25,1,continuous,40,8,postResponse,6615722.0,6618288.0,2566.0,40,R,6618408,6618626,220,812.5,535.2,5047,NA
25,1,continuous,41,1,fixationCross,6619171.0,6622855.0,3684.0,41,R,6618702,6618764,64,807.8,531.6,5188,NA
25,1,continuous,41,1,trial,6619171.0,6622855.0,3684.0,41,R,6618784,6619308,526,928.1,528.8,5633,NA
25,1,continuous,41,1,trial,6619171.0,6622855.0,3684.0,41,R,6619364,6619746,384,483.4,560.6,5796,left
25,1,continuous,41,1,trial,6619171.0,6622855.0,3684.0,41,R,6619822,6620006,186,1423.4,571.3,4978,right
25,1,continuous,41,1,trial,6619171.0,6622855.0,3684.0,41,R,6620020,6620526,508,1464.9,603.2,4863,right
25,1,continuous,41,1,trial,6619171.0,6622855.0,3684.0,41,R,6620558,6620662,106,1279.1,489.6,4902,right
25,1,continuous,41,1,trial,6619171.0,6622855.0,3684.0,41,R,6620732,6621298,568,447.8,548.3,5093,left
25,1,continuous,41,1,trial,6619171.0,6622855.0,3684.0,41,R,6621374,6621530,158,1406.7,570.6,4777,right
25,1,continuous,41,1,trial,6619171.0,6622855.0,3684.0,41,R,6621544,6622508,966,1466.9,603.2,4998,right
25,1,continuous,41,1,trial,6619171.0,6622855.0,3684.0,41,R,6622586,6622800,216,460.4,590.4,5281,left
25,1,continuous,41,1,postResponse,6619171.0,6622855.0,3684.0,41,R,6622816,6623190,376,458.0,537.6,5128,left
25,1,continuous,42,100,fixationCross,6623955.0,6626222.0,2267.0,42,R,6623284,6623634,352,660.9,544.4,5074,left
25,1,continuous,42,100,fixationCross,6623955.0,6626222.0,2267.0,42,R,6623672,6623874,204,963.6,557.0,5459,NA
25,1,continuous,42,100,trial,6623955.0,6626222.0,2267.0,42,R,6623886,6624110,226,937.0,568.7,5683,NA
25,1,continuous,42,100,trial,6623955.0,6626222.0,2267.0,42,R,6624164,6624406,244,552.1,549.1,5797,left
25,1,continuous,42,100,trial,6623955.0,6626222.0,2267.0,42,R,6624420,6624764,346,568.4,581.9,5399,left
25,1,continuous,42,100,trial,6623955.0,6626222.0,2267.0,42,R,6624786,6624924,140,653.1,557.3,5265,left
25,1,continuous,42,100,trial,6623955.0,6626222.0,2267.0,42,R,6624986,6625214,230,1382.6,548.1,5078,right
25,1,continuous,42,100,trial,6623955.0,6626222.0,2267.0,42,R,6625230,6625556,328,1362.5,587.2,5220,right
25,1,continuous,42,100,trial,6623955.0,6626222.0,2267.0,42,R,6625578,6626126,550,1453.2,619.4,5220,right
25,1,continuous,42,100,trial,6623955.0,6626222.0,2267.0,42,R,6626204,6626516,314,566.8,585.4,5567,left
25,1,continuous,43,18,fixationCross,6627238.0,6631955.0,4717.0,43,R,6626656,6626718,64,941.0,508.7,5277,NA
25,1,continuous,43,18,fixationCross,6627238.0,6631955.0,4717.0,43,R,6626740,6626950,212,1061.7,512.9,5266,NA
25,1,continuous,43,18,trial,6627238.0,6631955.0,4717.0,43,R,6626974,6627394,422,933.5,534.5,5637,NA
25,1,continuous,43,18,trial,6627238.0,6631955.0,4717.0,43,R,6627452,6627728,278,428.9,556.9,5717,left
25,1,continuous,43,18,trial,6627238.0,6631955.0,4717.0,43,R,6627740,6628252,514,450.6,559.1,4971,left
25,1,continuous,43,18,trial,6627238.0,6631955.0,4717.0,43,R,6628320,6628558,240,1297.2,534.9,4671,right
25,1,continuous,43,18,trial,6627238.0,6631955.0,4717.0,43,R,6628608,6628774,168,1570.3,473.0,4619,right
25,1,continuous,43,18,trial,6627238.0,6631955.0,4717.0,43,R,6628784,6629538,756,1610.4,467.7,4740,right
25,1,continuous,43,18,trial,6627238.0,6631955.0,4717.0,43,R,6629580,6629762,184,1370.8,550.5,5021,right
25,1,continuous,43,18,trial,6627238.0,6631955.0,4717.0,43,R,6629784,6630010,228,1245.4,535.7,5109,right
25,1,continuous,43,18,trial,6627238.0,6631955.0,4717.0,43,R,6630042,6630282,242,1449.5,512.0,5110,right
25,1,continuous,43,18,trial,6627238.0,6631955.0,4717.0,43,R,6630364,6630674,312,460.5,594.5,5221,left
25,1,continuous,43,18,trial,6627238.0,6631955.0,4717.0,43,R,6630690,6631538,850,473.6,625.7,4872,left
25,1,continuous,43,18,trial,6627238.0,6631955.0,4717.0,43,R,6631558,6632124,568,476.3,486.5,5057,left
25,1,continuous,44,84,fixationCross,6633139.0,6641705.0,8566.0,44,R,6632366,6632440,76,879.5,480.5,5247,NA
25,1,continuous,44,84,fixationCross,6633139.0,6641705.0,8566.0,44,R,6632466,6632834,370,1045.5,480.5,5472,NA
25,1,continuous,44,84,trial,6633139.0,6641705.0,8566.0,44,R,6632858,6633292,436,944.2,534.8,5702,NA
25,1,continuous,44,84,trial,6633139.0,6641705.0,8566.0,44,R,6633352,6633514,164,475.3,538.2,5894,left
25,1,continuous,44,84,trial,6633139.0,6641705.0,8566.0,44,R,6633528,6634074,548,410.5,492.5,5225,left
25,1,continuous,44,84,trial,6633139.0,6641705.0,8566.0,44,R,6634148,6634510,364,1387.3,539.3,4687,right
25,1,continuous,44,84,trial,6633139.0,6641705.0,8566.0,44,R,6634528,6634664,138,1323.9,552.3,4863,right
25,1,continuous,44,84,trial,6633139.0,6641705.0,8566.0,44,R,6634850,6635104,256,1417.7,533.9,5133,right
25,1,continuous,44,84,trial,6633139.0,6641705.0,8566.0,44,R,6635116,6635396,282,1418.1,579.9,5368,right
25,1,continuous,44,84,trial,6633139.0,6641705.0,8566.0,44,R,6635416,6635620,206,1354.0,554.3,5197,right
25,1,continuous,44,84,trial,6633139.0,6641705.0,8566.0,44,R,6635712,6635980,270,444.0,497.8,5061,left
25,1,continuous,44,84,trial,6633139.0,6641705.0,8566.0,44,R,6635990,6636156,168,404.1,474.8,4823,left
25,1,continuous,44,84,trial,6633139.0,6641705.0,8566.0,44,R,6636228,6636596,370,1360.7,559.7,4612,right
25,1,continuous,44,84,trial,6633139.0,6641705.0,8566.0,44,R,6636622,6636982,362,1522.3,557.8,4948,right
25,1,continuous,44,84,trial,6633139.0,6641705.0,8566.0,44,R,6636996,6637294,300,1496.0,525.9,5061,right
25,1,continuous,44,84,trial,6633139.0,6641705.0,8566.0,44,R,6637318,6637736,420,1376.0,528.4,5120,right
25,1,continuous,44,84,trial,6633139.0,6641705.0,8566.0,44,R,6637758,6637994,238,1476.5,531.6,5081,right
25,1,continuous,44,84,trial,6633139.0,6641705.0,8566.0,44,R,6638066,6638544,480,482.8,536.4,5254,left
25,1,continuous,44,84,trial,6633139.0,6641705.0,8566.0,44,R,6638568,6638860,294,470.6,638.4,4885,left
25,1,continuous,44,84,trial,6633139.0,6641705.0,8566.0,44,R,6638870,6638966,98,480.9,617.2,4793,left
25,1,continuous,44,84,trial,6633139.0,6641705.0,8566.0,44,R,6638990,6639408,420,401.4,478.4,4718,left
25,1,continuous,44,84,trial,6633139.0,6641705.0,8566.0,44,R,6639478,6639880,404,1343.1,560.6,4727,right
25,1,continuous,44,84,trial,6633139.0,6641705.0,8566.0,44,R,6639904,6640190,288,1462.5,591.0,5010,right
25,1,continuous,44,84,trial,6633139.0,6641705.0,8566.0,44,R,6640248,6640386,140,1382.0,1012.0,5223,NA
25,1,continuous,44,84,trial,6633139.0,6641705.0,8566.0,44,R,6640458,6640684,228,1323.3,553.2,5154,right
25,1,continuous,44,84,trial,6633139.0,6641705.0,8566.0,44,R,6640710,6641172,464,1476.9,539.1,4914,right
25,1,continuous,44,84,trial,6633139.0,6641705.0,8566.0,44,R,6641196,6641538,344,1361.2,492.6,4917,right
25,1,continuous,44,84,trial,6633139.0,6641705.0,8566.0,44,R,6641610,6641990,382,1260.5,1023.5,5266,NA
25,1,continuous,45,27,fixationCross,6642572.0,6650555.0,7983.0,45,R,6642116,6642278,164,1051.1,599.9,5417,NA
25,1,continuous,45,27,fixationCross,6642572.0,6650555.0,7983.0,45,R,6642296,6642502,208,1040.3,492.5,5492,NA
25,1,continuous,45,27,trial,6642572.0,6650555.0,7983.0,45,R,6642522,6642732,212,934.9,538.4,5705,NA
25,1,continuous,45,27,trial,6642572.0,6650555.0,7983.0,45,R,6642786,6643302,518,494.2,557.7,5864,left
25,1,continuous,45,27,trial,6642572.0,6650555.0,7983.0,45,R,6643318,6643642,326,421.2,530.3,5438,left
25,1,continuous,45,27,trial,6642572.0,6650555.0,7983.0,45,R,6643658,6643828,172,395.7,487.0,5463,left
25,1,continuous,45,27,trial,6642572.0,6650555.0,7983.0,45,R,6643840,6644020,182,360.6,475.0,5524,left
25,1,continuous,45,27,trial,6642572.0,6650555.0,7983.0,45,R,6644048,6644278,232,554.4,485.6,5579,left
25,1,continuous,45,27,trial,6642572.0,6650555.0,7983.0,45,R,6644456,6644532,78,656.4,504.6,5868,left
25,1,continuous,45,27,trial,6642572.0,6650555.0,7983.0,45,R,6644594,6645072,480,1369.5,536.2,5972,right
25,1,continuous,45,27,trial,6642572.0,6650555.0,7983.0,45,R,6645086,6645620,536,1431.3,556.5,5925,right
25,1,continuous,45,27,trial,6642572.0,6650555.0,7983.0,45,R,6645630,6645812,184,1434.5,556.7,5977,right
25,1,continuous,45,27,trial,6642572.0,6650555.0,7983.0,45,R,6645830,6646034,206,1380.1,535.4,5995,right
25,1,continuous,45,27,trial,6642572.0,6650555.0,7983.0,45,R,6646058,6646754,698,1521.1,597.9,5835,right
25,1,continuous,45,27,trial,6642572.0,6650555.0,7983.0,45,R,6646766,6646978,214,1543.2,603.6,5806,right
25,1,continuous,45,27,trial,6642572.0,6650555.0,7983.0,45,R,6647000,6647228,230,1420.8,550.9,5885,right
25,1,continuous,45,27,trial,6642572.0,6650555.0,7983.0,45,R,6647310,6647452,144,457.3,502.6,6036,left
25,1,continuous,45,27,trial,6642572.0,6650555.0,7983.0,45,R,6647472,6647724,254,369.7,493.3,5967,left
25,1,continuous,45,27,trial,6642572.0,6650555.0,7983.0,45,R,6647758,6648220,464,569.4,519.8,5762,left
25,1,continuous,45,27,trial,6642572.0,6650555.0,7983.0,45,R,6648234,6648424,192,631.7,518.0,5909,left
25,1,continuous,45,27,trial,6642572.0,6650555.0,7983.0,45,R,6648444,6648832,390,525.1,555.2,6102,left
25,1,continuous,45,27,trial,6642572.0,6650555.0,7983.0,45,R,6648910,6649264,356,1421.2,540.3,5944,right
25,1,continuous,45,27,trial,6642572.0,6650555.0,7983.0,45,R,6649280,6649682,404,1351.2,542.9,5943,right
25,1,continuous,45,27,trial,6642572.0,6650555.0,7983.0,45,R,6649706,6650424,720,1523.5,603.5,5797,right
25,1,continuous,45,27,postResponse,6642572.0,6650555.0,7983.0,45,R,6650500,6650888,390,569.5,570.1,5515,left
25,1,continuous,46,85,fixationCross,6651722.0,6660155.0,8433.0,46,R,6650962,6651202,242,650.7,560.0,5719,left
25,1,continuous,46,85,fixationCross,6651722.0,6660155.0,8433.0,46,R,6651226,6651426,202,848.4,549.5,5957,NA
25,1,continuous,46,85,trial,6651722.0,6660155.0,8433.0,46,R,6651444,6651858,416,952.8,565.2,6119,NA
25,1,continuous,46,85,trial,6651722.0,6660155.0,8433.0,46,R,6651916,6652218,304,511.9,542.4,5930,left
25,1,continuous,46,85,trial,6651722.0,6660155.0,8433.0,46,R,6652228,6652574,348,452.9,540.2,5000,left
25,1,continuous,46,85,trial,6651722.0,6660155.0,8433.0,46,R,6652644,6652942,300,1422.1,552.7,4566,right
25,1,continuous,46,85,trial,6651722.0,6660155.0,8433.0,46,R,6652964,6653444,482,1503.9,469.1,4594,right
25,1,continuous,46,85,trial,6651722.0,6660155.0,8433.0,46,R,6653466,6653902,438,1422.5,557.8,4820,right
25,1,continuous,46,85,trial,6651722.0,6660155.0,8433.0,46,R,6653924,6654374,452,1513.1,468.1,4762,right
25,1,continuous,46,85,trial,6651722.0,6660155.0,8433.0,46,R,6654456,6654658,204,509.9,534.0,4934,left
25,1,continuous,46,85,trial,6651722.0,6660155.0,8433.0,46,R,6654670,6655778,1110,475.9,513.4,4744,left
25,1,continuous,46,85,trial,6651722.0,6660155.0,8433.0,46,R,6655800,6656552,754,440.5,554.9,4635,left
25,1,continuous,46,85,trial,6651722.0,6660155.0,8433.0,46,R,6656576,6657292,718,439.4,639.5,4675,left
25,1,continuous,46,85,trial,6651722.0,6660155.0,8433.0,46,R,6657308,6658066,760,446.2,549.6,4711,left
25,1,continuous,46,85,trial,6651722.0,6660155.0,8433.0,46,R,6658080,6658838,760,474.0,512.2,4688,left
25,1,continuous,46,85,trial,6651722.0,6660155.0,8433.0,46,R,6658954,6659130,178,1412.8,582.9,4542,right
25,1,continuous,46,85,trial,6651722.0,6660155.0,8433.0,46,R,6659144,6659514,372,1403.8,547.3,4667,right
25,1,continuous,46,85,trial,6651722.0,6660155.0,8433.0,46,R,6659536,6660142,608,1497.6,463.5,4472,right
25,1,continuous,46,85,trial,6651722.0,6660155.0,8433.0,46,R,6660168,6660370,204,1408.9,537.7,4731,right
25,1,continuous,47,71,fixationCross,6661306.0,6665305.0,3999.0,47,R,6660646,6660814,170,968.1,511.2,5226,NA
25,1,continuous,47,71,fixationCross,6661306.0,6665305.0,3999.0,47,R,6660838,6661062,226,835.2,505.9,5502,NA
25,1,continuous,47,71,trial,6661306.0,6665305.0,3999.0,47,R,6661082,6661332,252,915.4,550.3,5567,NA
25,1,continuous,47,71,trial,6661306.0,6665305.0,3999.0,47,R,6661340,6661470,132,933.5,566.6,5492,NA
25,1,continuous,47,71,trial,6661306.0,6665305.0,3999.0,47,R,6661522,6661742,222,516.7,540.3,5561,left
25,1,continuous,47,71,trial,6661306.0,6665305.0,3999.0,47,R,6661756,6662100,346,455.5,499.5,5208,left
25,1,continuous,47,71,trial,6661306.0,6665305.0,3999.0,47,R,6662120,6662474,356,532.0,512.2,4995,left
25,1,continuous,47,71,trial,6661306.0,6665305.0,3999.0,47,R,6662544,6662836,294,1465.7,568.7,5171,right
25,1,continuous,47,71,trial,6661306.0,6665305.0,3999.0,47,R,6662850,6663236,388,1475.0,535.9,5070,right
25,1,continuous,47,71,trial,6661306.0,6665305.0,3999.0,47,R,6663464,6663738,276,1449.1,549.6,5265,right
25,1,continuous,47,71,trial,6661306.0,6665305.0,3999.0,47,R,6663750,6663896,148,1485.5,542.7,5406,right
25,1,continuous,47,71,trial,6661306.0,6665305.0,3999.0,47,R,6663970,6664236,268,541.4,506.2,5416,left
25,1,continuous,47,71,trial,6661306.0,6665305.0,3999.0,47,R,6664248,6664760,514,567.6,516.4,5182,left
25,1,continuous,47,71,trial,6661306.0,6665305.0,3999.0,47,R,6664830,6665070,242,1421.0,539.6,5191,right
25,1,continuous,47,71,postResponse,6661306.0,6665305.0,3999.0,47,R,6665084,6665640,558,1496.6,553.2,5215,right
