participantNo,block,task,blockTrial,response,trialStage,trialStartTime,trialFinishTime,rt,trial,eye,fixStart,fixEnd,fixLength,fixPosX,fixPosY,dilation,aoi
7,1,continuous,1,87,fixationCross,13556925.0,13559558.0,2633.0,1,R,13556112,13556256,146,1061.4,829.3,7172,likertHorizontal
7,1,continuous,1,87,fixationCross,13556925.0,13559558.0,2633.0,1,R,13556310,13556402,94,1025.3,350.9,7208,NA
7,1,continuous,1,87,fixationCross,13556925.0,13559558.0,2633.0,1,R,13556534,13556632,100,994.8,335.2,7282,NA
7,1,continuous,1,87,fixationCross,13556925.0,13559558.0,2633.0,1,R,13556676,13556808,134,984.4,534.9,7246,NA
7,1,continuous,1,87,trial,13556925.0,13559558.0,2633.0,1,R,13556822,13557114,294,998.2,502.9,7313,NA
7,1,continuous,1,87,trial,13556925.0,13559558.0,2633.0,1,R,13557170,13557480,312,544.7,520.3,7053,left
7,1,continuous,1,87,trial,13556925.0,13559558.0,2633.0,1,R,13557544,13558342,800,1410.3,533.7,6098,right
7,1,continuous,1,87,trial,13556925.0,13559558.0,2633.0,1,R,13558384,13558630,248,1273.2,932.3,5646,NA
7,1,continuous,1,87,trial,13556925.0,13559558.0,2633.0,1,R,13558656,13558942,288,1373.6,991.2,5744,NA
7,1,continuous,1,87,trial,13556925.0,13559558.0,2633.0,1,R,13558964,13559128,166,1480.8,1028.1,5940,NA
7,1,continuous,1,87,trial,13556925.0,13559558.0,2633.0,1,R,13559208,13559508,302,497.2,1053.3,6204,NA
7,1,continuous,1,87,trial,13556925.0,13559558.0,2633.0,1,R,13559572,13559870,300,1397.3,799.5,6400,NA
7,1,continuous,2,1,fixationCross,13560675.0,13562959.0,2284.0,2,R,13560026,13560350,326,1215.2,324.1,6640,NA
7,1,continuous,2,1,fixationCross,13560675.0,13562959.0,2284.0,2,R,13560398,13560484,88,978.7,607.3,6851,NA
7,1,continuous,2,1,trial,13560675.0,13562959.0,2284.0,2,R,13560512,13560856,346,989.8,514.7,6958,NA
7,1,continuous,2,1,trial,13560675.0,13562959.0,2284.0,2,R,13560904,13561228,326,1441.3,502.7,6723,right
7,1,continuous,2,1,trial,13560675.0,13562959.0,2284.0,2,R,13561296,13561536,242,465.9,512.8,5958,left
7,1,continuous,2,1,trial,13560675.0,13562959.0,2284.0,2,R,13561560,13561968,410,480.3,446.5,5489,left
7,1,continuous,2,1,trial,13560675.0,13562959.0,2284.0,2,R,13562040,13562220,182,1550.5,612.2,5326,right
7,1,continuous,2,1,trial,13560675.0,13562959.0,2284.0,2,R,13562296,13562480,186,483.2,1134.1,5294,NA
7,1,continuous,2,1,trial,13560675.0,13562959.0,2284.0,2,R,13562504,13562684,182,438.8,1098.7,5390,NA
7,1,continuous,2,1,postResponse,13560675.0,13562959.0,2284.0,2,R,13562742,13563310,570,464.9,500.1,5643,left
7,1,continuous,3,100,fixationCross,13564175.0,13567775.0,3600.0,3,R,13563412,13563474,64,464.5,503.1,5646,left
7,1,continuous,3,100,fixationCross,13564175.0,13567775.0,3600.0,3,R,13563510,13563830,322,550.6,426.2,5812,left
7,1,continuous,3,100,fixationCross,13564175.0,13567775.0,3600.0,3,R,13563882,13563988,108,1015.7,536.2,6164,NA
7,1,continuous,3,100,trial,13564175.0,13567775.0,3600.0,3,R,13564006,13564380,376,965.2,517.7,6406,NA
7,1,continuous,3,100,trial,13564175.0,13567775.0,3600.0,3,R,13564426,13564808,384,503.2,496.4,6342,left
7,1,continuous,3,100,trial,13564175.0,13567775.0,3600.0,3,R,13564832,13564954,124,516.5,433.6,5976,left
7,1,continuous,3,100,trial,13564175.0,13567775.0,3600.0,3,R,13565022,13565530,510,1441.1,484.2,5544,right
7,1,continuous,3,100,trial,13564175.0,13567775.0,3600.0,3,R,13565560,13566000,442,1405.0,622.0,5611,right
7,1,continuous,3,100,trial,13564175.0,13567775.0,3600.0,3,R,13566026,13566132,108,1481.8,442.3,5676,right
7,1,continuous,3,100,trial,13564175.0,13567775.0,3600.0,3,R,13566260,13566548,290,515.5,528.2,5771,left
7,1,continuous,3,100,trial,13564175.0,13567775.0,3600.0,3,R,13566620,13566774,156,1499.0,981.9,6026,NA
7,1,continuous,3,100,trial,13564175.0,13567775.0,3600.0,3,R,13566804,13566828,26,1497.0,971.4,6125,NA
7,1,continuous,3,100,trial,13564175.0,13567775.0,3600.0,3,R,13566856,13566908,54,1496.7,966.4,6167,NA
7,1,continuous,3,100,trial,13564175.0,13567775.0,3600.0,3,R,13566970,13567526,558,1462.1,461.5,6287,right
7,1,continuous,3,100,trial,13564175.0,13567775.0,3600.0,3,R,13567598,13567814,218,507.2,555.4,6444,left
7,1,continuous,3,100,trial,13564175.0,13567775.0,3600.0,3,R,13567848,13568054,208,513.4,452.8,6503,left
7,1,continuous,4,1,fixationCross,13568792.0,13571275.0,2483.0,4,R,13568194,13568486,294,1283.0,481.7,6458,right
7,1,continuous,4,1,fixationCross,13568792.0,13571275.0,2483.0,4,R,13568532,13568644,114,951.2,589.7,6616,NA
7,1,continuous,4,1,trial,13568792.0,13571275.0,2483.0,4,R,13568668,13568830,164,995.3,499.2,6715,NA
7,1,continuous,4,1,trial,13568792.0,13571275.0,2483.0,4,R,13568842,13568986,146,962.4,493.6,6745,NA
7,1,continuous,4,1,trial,13568792.0,13571275.0,2483.0,4,R,13569032,13569270,240,495.3,487.5,6521,left
7,1,continuous,4,1,trial,13568792.0,13571275.0,2483.0,4,R,13569336,13569976,642,1460.8,468.2,5905,right
7,1,continuous,4,1,trial,13568792.0,13571275.0,2483.0,4,R,13569996,13570752,758,1426.4,446.5,5551,right
7,1,continuous,4,1,trial,13568792.0,13571275.0,2483.0,4,R,13570832,13571022,192,457.9,563.9,5558,left
7,1,continuous,4,1,trial,13568792.0,13571275.0,2483.0,4,R,13571046,13571522,478,437.2,481.4,5564,left
7,1,continuous,4,1,postResponse,13568792.0,13571275.0,2483.0,4,R,13571648,13571948,302,766.6,544.7,5647,NA
7,1,continuous,5,49,fixationCross,13572709.0,13579559.0,6850.0,5,R,13572050,13572204,156,679.3,559.7,5851,left
7,1,continuous,5,49,fixationCross,13572709.0,13579559.0,6850.0,5,R,13572228,13572416,190,580.7,556.3,5985,left
7,1,continuous,5,49,fixationCross,13572709.0,13579559.0,6850.0,5,R,13572468,13572586,120,1000.3,550.3,6133,NA
7,1,continuous,5,49,trial,13572709.0,13579559.0,6850.0,5,R,13572602,13572866,266,965.5,540.0,6179,NA
7,1,continuous,5,49,trial,13572709.0,13579559.0,6850.0,5,R,13572914,13573104,192,474.3,461.0,6132,left
7,1,continuous,5,49,trial,13572709.0,13579559.0,6850.0,5,R,13573136,13573362,228,445.8,661.6,5777,left
7,1,continuous,5,49,trial,13572709.0,13579559.0,6850.0,5,R,13573382,13573480,100,458.1,741.4,5581,NA
7,1,continuous,5,49,trial,13572709.0,13579559.0,6850.0,5,R,13573552,13573776,226,1400.0,498.1,5459,right
7,1,continuous,5,49,trial,13572709.0,13579559.0,6850.0,5,R,13573794,13574100,308,1347.7,446.6,5312,right
7,1,continuous,5,49,trial,13572709.0,13579559.0,6850.0,5,R,13574116,13574410,296,1407.3,437.9,5203,right
7,1,continuous,5,49,trial,13572709.0,13579559.0,6850.0,5,R,13574432,13574638,208,1332.9,475.3,5284,right
7,1,continuous,5,49,trial,13572709.0,13579559.0,6850.0,5,R,13574704,13575256,554,462.6,645.7,5459,left
7,1,continuous,5,49,trial,13572709.0,13579559.0,6850.0,5,R,13575306,13575434,130,975.4,1038.7,5674,likertHorizontal
7,1,continuous,5,49,trial,13572709.0,13579559.0,6850.0,5,R,13575572,13575758,188,1441.3,448.7,5636,right
7,1,continuous,5,49,trial,13572709.0,13579559.0,6850.0,5,R,13575814,13576218,406,922.5,993.6,5770,likertHorizontal
7,1,continuous,5,49,trial,13572709.0,13579559.0,6850.0,5,R,13576260,13576480,222,1408.4,1075.9,5959,NA
7,1,continuous,5,49,trial,13572709.0,13579559.0,6850.0,5,R,13576524,13576724,202,945.7,1024.1,6067,likertHorizontal
7,1,continuous,5,49,trial,13572709.0,13579559.0,6850.0,5,R,13576786,13576982,198,611.8,709.8,6143,left
7,1,continuous,5,49,trial,13572709.0,13579559.0,6850.0,5,R,13577058,13577346,290,1480.0,532.6,6193,right
7,1,continuous,5,49,trial,13572709.0,13579559.0,6850.0,5,R,13577408,13577554,148,987.5,1005.4,6173,likertHorizontal
7,1,continuous,5,49,trial,13572709.0,13579559.0,6850.0,5,R,13577576,13578346,772,935.8,996.7,6257,likertHorizontal
7,1,continuous,5,49,trial,13572709.0,13579559.0,6850.0,5,R,13578400,13578730,332,1196.8,621.1,6493,right
7,1,continuous,5,49,trial,13572709.0,13579559.0,6850.0,5,R,13578782,13579244,464,799.4,569.4,6335,NA
7,1,continuous,5,49,trial,13572709.0,13579559.0,6850.0,5,R,13579288,13579562,276,1279.3,460.1,6436,right
7,1,continuous,5,49,trial,13572709.0,13579559.0,6850.0,5,R,13579612,13579802,192,971.3,997.9,6400,likertHorizontal
7,1,continuous,6,100,fixationCross,13580809.0,13585008.0,4199.0,6,R,13580034,13580294,262,1149.8,480.8,6403,NA
7,1,continuous,6,100,fixationCross,13580809.0,13585008.0,4199.0,6,R,13580348,13580418,72,1076.0,951.8,6533,likertHorizontal
7,1,continuous,6,100,fixationCross,13580809.0,13585008.0,4199.0,6,R,13580468,13580506,40,921.1,587.4,6572,NA
7,1,continuous,6,100,fixationCross,13580809.0,13585008.0,4199.0,6,R,13580640,13580782,144,966.3,488.9,6574,NA
7,1,continuous,6,100,trial,13580809.0,13585008.0,4199.0,6,R,13580794,13580986,194,945.6,517.6,6559,NA
7,1,continuous,6,100,trial,13580809.0,13585008.0,4199.0,6,R,13581032,13581394,364,497.8,477.5,6301,left
7,1,continuous,6,100,trial,13580809.0,13585008.0,4199.0,6,R,13581462,13581660,200,1455.3,527.2,5828,right
7,1,continuous,6,100,trial,13580809.0,13585008.0,4199.0,6,R,13581688,13582762,1076,1338.6,606.2,5557,right
7,1,continuous,6,100,trial,13580809.0,13585008.0,4199.0,6,R,13582806,13583062,258,1471.6,839.3,5939,NA
7,1,continuous,6,100,trial,13580809.0,13585008.0,4199.0,6,R,13583108,13583368,262,1377.6,560.5,6148,right
7,1,continuous,6,100,trial,13580809.0,13585008.0,4199.0,6,R,13583382,13583658,278,1352.1,596.4,6179,right
7,1,continuous,6,100,trial,13580809.0,13585008.0,4199.0,6,R,13583700,13583898,200,1515.5,472.1,6018,right
7,1,continuous,6,100,trial,13580809.0,13585008.0,4199.0,6,R,13584054,13584238,186,467.3,530.7,5729,left
7,1,continuous,6,100,trial,13580809.0,13585008.0,4199.0,6,R,13584252,13584854,604,457.4,506.5,5387,left
7,1,continuous,6,100,trial,13580809.0,13585008.0,4199.0,6,R,13584926,13585268,344,1465.3,535.9,5205,right
7,1,continuous,7,17,fixationCross,13586042.0,13590425.0,4383.0,7,R,13585420,13585724,306,1566.7,283.4,5393,NA
7,1,continuous,7,17,fixationCross,13586042.0,13590425.0,4383.0,7,R,13585776,13585914,140,916.8,605.6,5802,NA
7,1,continuous,7,17,trial,13586042.0,13590425.0,4383.0,7,R,13585940,13586214,276,960.1,524.1,6003,NA
7,1,continuous,7,17,trial,13586042.0,13590425.0,4383.0,7,R,13586256,13586594,340,539.3,545.3,5947,left
7,1,continuous,7,17,trial,13586042.0,13590425.0,4383.0,7,R,13586628,13586880,254,356.4,577.1,5607,left
7,1,continuous,7,17,trial,13586042.0,13590425.0,4383.0,7,R,13586956,13587430,476,1436.3,566.5,5335,right
7,1,continuous,7,17,trial,13586042.0,13590425.0,4383.0,7,R,13587446,13587770,326,1396.6,579.0,5517,right
7,1,continuous,7,17,trial,13586042.0,13590425.0,4383.0,7,R,13587792,13587930,140,1487.5,538.2,5780,right
7,1,continuous,7,17,trial,13586042.0,13590425.0,4383.0,7,R,13588014,13588738,726,459.3,586.5,6041,left
7,1,continuous,7,17,trial,13586042.0,13590425.0,4383.0,7,R,13588772,13589082,312,709.7,595.6,5834,left
7,1,continuous,7,17,trial,13586042.0,13590425.0,4383.0,7,R,13589128,13589268,142,675.5,1062.8,5759,NA
7,1,continuous,7,17,trial,13586042.0,13590425.0,4383.0,7,R,13589292,13589652,362,603.0,1054.9,5803,NA
7,1,continuous,7,17,trial,13586042.0,13590425.0,4383.0,7,R,13589806,13590012,208,404.5,522.5,5692,left
7,1,continuous,7,17,trial,13586042.0,13590425.0,4383.0,7,R,13590036,13590332,298,276.7,554.8,5603,left
7,1,continuous,7,17,trial,13586042.0,13590425.0,4383.0,7,R,13590374,13590740,368,649.3,552.7,5534,left
7,1,continuous,8,15,fixationCross,13591642.0,13597942.0,6300.0,8,R,13590894,13591160,268,1563.0,440.9,5566,right
7,1,continuous,8,15,fixationCross,13591642.0,13597942.0,6300.0,8,R,13591224,13591326,104,858.5,640.6,5823,NA
7,1,continuous,8,15,fixationCross,13591642.0,13597942.0,6300.0,8,R,13591358,13591504,148,986.2,527.3,5933,NA
7,1,continuous,8,15,trial,13591642.0,13597942.0,6300.0,8,R,13591522,13591786,266,952.9,537.6,6040,NA
7,1,continuous,8,15,trial,13591642.0,13597942.0,6300.0,8,R,13591834,13591984,152,476.3,463.0,6025,left
7,1,continuous,8,15,trial,13591642.0,13597942.0,6300.0,8,R,13592008,13592370,364,461.5,540.6,5749,left
7,1,continuous,8,15,trial,13591642.0,13597942.0,6300.0,8,R,13592404,13592628,226,624.9,512.6,5477,left
7,1,continuous,8,15,trial,13591642.0,13597942.0,6300.0,8,R,13592694,13592928,236,1459.4,601.6,5244,right
7,1,continuous,8,15,trial,13591642.0,13597942.0,6300.0,8,R,13592954,13593482,530,1601.3,521.1,5063,right
7,1,continuous,8,15,trial,13591642.0,13597942.0,6300.0,8,R,13593520,13593790,272,1358.1,600.4,4923,right
7,1,continuous,8,15,trial,13591642.0,13597942.0,6300.0,8,R,13593928,13594524,598,425.6,555.7,4817,left
7,1,continuous,8,15,trial,13591642.0,13597942.0,6300.0,8,R,13594688,13594754,68,860.1,1098.4,4939,likertHorizontal
7,1,continuous,8,15,trial,13591642.0,13597942.0,6300.0,8,R,13594816,13595180,366,545.7,540.2,4949,left
7,1,continuous,8,15,trial,13591642.0,13597942.0,6300.0,8,R,13595198,13595572,376,623.8,506.8,5230,left
7,1,continuous,8,15,trial,13591642.0,13597942.0,6300.0,8,R,13595620,13595832,214,620.1,978.0,5460,NA
7,1,continuous,8,15,trial,13591642.0,13597942.0,6300.0,8,R,13595978,13596268,292,1489.8,519.5,5441,right
7,1,continuous,8,15,trial,13591642.0,13597942.0,6300.0,8,R,13596292,13597176,886,1621.0,508.2,5499,right
7,1,continuous,8,15,trial,13591642.0,13597942.0,6300.0,8,R,13597262,13597502,242,490.1,549.2,5388,left
7,1,continuous,8,15,trial,13591642.0,13597942.0,6300.0,8,R,13597518,13598152,636,452.6,555.7,5283,left
7,1,continuous,9,100,fixationCross,13599042.0,13604492.0,5450.0,9,R,13598350,13598472,124,630.6,419.8,5450,left
7,1,continuous,9,100,fixationCross,13599042.0,13604492.0,5450.0,9,R,13598496,13598648,154,521.6,343.3,5552,NA
7,1,continuous,9,100,fixationCross,13599042.0,13604492.0,5450.0,9,R,13598754,13598920,168,946.6,556.0,5838,NA
7,1,continuous,9,100,trial,13599042.0,13604492.0,5450.0,9,R,13598932,13599202,272,943.5,531.2,5941,NA
7,1,continuous,9,100,trial,13599042.0,13604492.0,5450.0,9,R,13599250,13599734,486,494.6,501.7,5696,left
7,1,continuous,9,100,trial,13599042.0,13604492.0,5450.0,9,R,13599804,13600118,316,1471.3,536.4,5270,right
7,1,continuous,9,100,trial,13599042.0,13604492.0,5450.0,9,R,13600140,13600362,224,1429.8,477.2,5170,right
7,1,continuous,9,100,trial,13599042.0,13604492.0,5450.0,9,R,13600380,13600698,320,1495.5,487.0,5096,right
7,1,continuous,9,100,trial,13599042.0,13604492.0,5450.0,9,R,13600778,13600962,186,479.2,634.7,4976,left
7,1,continuous,9,100,trial,13599042.0,13604492.0,5450.0,9,R,13600998,13601444,448,445.3,512.9,4900,left
7,1,continuous,9,100,trial,13599042.0,13604492.0,5450.0,9,R,13601474,13601612,140,441.0,660.3,4997,left
7,1,continuous,9,100,trial,13599042.0,13604492.0,5450.0,9,R,13601766,13602050,286,526.6,596.4,5124,left
7,1,continuous,9,100,trial,13599042.0,13604492.0,5450.0,9,R,13602124,13602332,210,1472.9,509.1,5234,right
7,1,continuous,9,100,trial,13599042.0,13604492.0,5450.0,9,R,13602350,13603036,688,1498.8,461.5,5052,right
7,1,continuous,9,100,trial,13599042.0,13604492.0,5450.0,9,R,13603078,13603390,314,1229.0,626.2,4953,right
7,1,continuous,9,100,trial,13599042.0,13604492.0,5450.0,9,R,13603436,13603990,556,1435.4,928.8,5050,NA
7,1,continuous,9,100,trial,13599042.0,13604492.0,5450.0,9,R,13604024,13604214,192,1442.9,916.0,5401,NA
7,1,continuous,9,100,trial,13599042.0,13604492.0,5450.0,9,R,13604264,13604356,94,1448.6,912.2,5531,NA
7,1,continuous,9,100,trial,13599042.0,13604492.0,5450.0,9,R,13604420,13604722,304,1415.7,429.0,5603,right
7,1,continuous,10,82,fixationCross,13605442.0,13611625.0,6183.0,10,R,13604926,13605032,108,1749.7,456.9,5369,NA
7,1,continuous,10,82,fixationCross,13605442.0,13611625.0,6183.0,10,R,13605166,13605186,22,889.2,475.5,5470,NA
7,1,continuous,10,82,trial,13605442.0,13611625.0,6183.0,10,R,13605198,13605452,256,940.7,521.0,5625,NA
7,1,continuous,10,82,trial,13605442.0,13611625.0,6183.0,10,R,13605462,13605638,178,944.1,547.4,5758,NA
7,1,continuous,10,82,trial,13605442.0,13611625.0,6183.0,10,R,13605688,13606038,352,446.4,541.1,5457,left
7,1,continuous,10,82,trial,13605442.0,13611625.0,6183.0,10,R,13606114,13606386,274,1470.9,503.6,4923,right
7,1,continuous,10,82,trial,13605442.0,13611625.0,6183.0,10,R,13606404,13606636,234,1517.6,444.3,4721,right
7,1,continuous,10,82,trial,13605442.0,13611625.0,6183.0,10,R,13606660,13606688,30,1514.8,448.6,4727,right
7,1,continuous,10,82,trial,13605442.0,13611625.0,6183.0,10,R,13606754,13607158,406,1439.6,654.9,4850,right
7,1,continuous,10,82,trial,13605442.0,13611625.0,6183.0,10,R,13607246,13607456,212,451.8,610.2,4793,left
7,1,continuous,10,82,trial,13605442.0,13611625.0,6183.0,10,R,13607480,13608456,978,450.6,533.7,4533,left
7,1,continuous,10,82,trial,13605442.0,13611625.0,6183.0,10,R,13608530,13608562,34,1297.5,913.2,4415,NA
7,1,continuous,10,82,trial,13605442.0,13611625.0,6183.0,10,R,13608588,13608732,146,1291.6,920.6,4391,NA
7,1,continuous,10,82,trial,13605442.0,13611625.0,6183.0,10,R,13608784,13608932,150,1278.8,540.7,4362,right
7,1,continuous,10,82,trial,13605442.0,13611625.0,6183.0,10,R,13608960,13609190,232,1298.3,428.4,4457,right
7,1,continuous,10,82,trial,13605442.0,13611625.0,6183.0,10,R,13609326,13609458,134,1383.8,453.7,4655,right
7,1,continuous,10,82,trial,13605442.0,13611625.0,6183.0,10,R,13609474,13609732,260,1339.1,456.7,4884,right
7,1,continuous,10,82,trial,13605442.0,13611625.0,6183.0,10,R,13609786,13609822,38,1273.5,1001.0,5092,NA
7,1,continuous,10,82,trial,13605442.0,13611625.0,6183.0,10,R,13609872,13610050,180,1276.1,1001.5,5205,NA
7,1,continuous,10,82,trial,13605442.0,13611625.0,6183.0,10,R,13610110,13610264,156,1332.2,504.6,5264,right
7,1,continuous,10,82,trial,13605442.0,13611625.0,6183.0,10,R,13610286,13610534,250,1322.9,429.6,5315,right
7,1,continuous,10,82,trial,13605442.0,13611625.0,6183.0,10,R,13610560,13610746,188,1521.5,438.0,5375,right
7,1,continuous,10,82,trial,13605442.0,13611625.0,6183.0,10,R,13610880,13611018,140,1520.8,454.3,5492,right
7,1,continuous,10,82,trial,13605442.0,13611625.0,6183.0,10,R,13611050,13611394,346,1457.1,599.4,5479,right
7,1,continuous,10,82,trial,13605442.0,13611625.0,6183.0,10,R,13611432,13611874,444,1518.0,447.9,5073,right
7,1,continuous,11,1,fixationCross,13612642.0,13617009.0,4367.0,11,R,13612070,13612318,250,600.3,430.9,5136,left
7,1,continuous,11,1,fixationCross,13612642.0,13617009.0,4367.0,11,R,13612354,13612502,150,903.7,614.3,5393,NA
7,1,continuous,11,1,trial,13612642.0,13617009.0,4367.0,11,R,13612524,13612832,310,943.7,545.8,5606,NA
7,1,continuous,11,1,trial,13612642.0,13617009.0,4367.0,11,R,13612890,13613238,350,495.8,503.0,5618,left
7,1,continuous,11,1,trial,13612642.0,13617009.0,4367.0,11,R,13613304,13613514,212,1430.1,594.4,5431,right
7,1,continuous,11,1,trial,13612642.0,13617009.0,4367.0,11,R,13613542,13613984,444,1303.2,515.6,5231,right
7,1,continuous,11,1,trial,13612642.0,13617009.0,4367.0,11,R,13614014,13614160,148,1222.7,621.2,5056,right
7,1,continuous,11,1,trial,13612642.0,13617009.0,4367.0,11,R,13614182,13614650,470,1334.8,645.1,4951,right
7,1,continuous,11,1,trial,13612642.0,13617009.0,4367.0,11,R,13614688,13615056,370,1615.2,604.7,4906,right
7,1,continuous,11,1,trial,13612642.0,13617009.0,4367.0,11,R,13615140,13615916,778,489.8,557.0,4838,left
7,1,continuous,11,1,trial,13612642.0,13617009.0,4367.0,11,R,13615958,13616304,348,485.3,1039.9,4815,NA
7,1,continuous,11,1,trial,13612642.0,13617009.0,4367.0,11,R,13616434,13616896,464,466.2,493.6,4768,left
7,1,continuous,11,1,trial,13612642.0,13617009.0,4367.0,11,R,13616910,13617280,372,518.6,539.1,4661,left
7,1,continuous,12,86,fixationCross,13618092.0,13619926.0,1834.0,12,R,13617418,13617770,354,644.5,523.6,4652,left
7,1,continuous,12,86,fixationCross,13618092.0,13619926.0,1834.0,12,R,13617810,13617922,114,984.1,589.4,5007,NA
7,1,continuous,12,86,trial,13618092.0,13619926.0,1834.0,12,R,13617942,13618240,300,939.5,547.6,5226,NA
7,1,continuous,12,86,trial,13618092.0,13619926.0,1834.0,12,R,13618290,13618832,544,462.0,485.7,5214,left
7,1,continuous,12,86,trial,13618092.0,13619926.0,1834.0,12,R,13618904,13619556,654,1466.5,531.9,4818,right
7,1,continuous,12,86,trial,13618092.0,13619926.0,1834.0,12,R,13619576,13620150,576,1352.8,598.6,4640,right
7,1,continuous,13,100,fixationCross,13621008.0,13623676.0,2668.0,13,R,13620332,13620570,240,983.5,447.9,4865,NA
7,1,continuous,13,100,fixationCross,13621008.0,13623676.0,2668.0,13,R,13620610,13620770,162,805.4,536.2,5107,NA
7,1,continuous,13,100,trial,13621008.0,13623676.0,2668.0,13,R,13620918,13621150,234,908.5,556.7,5435,NA
7,1,continuous,13,100,trial,13621008.0,13623676.0,2668.0,13,R,13621196,13621702,508,494.0,495.2,5220,left
7,1,continuous,13,100,trial,13621008.0,13623676.0,2668.0,13,R,13621774,13622356,584,1432.6,537.4,5039,right
7,1,continuous,13,100,trial,13621008.0,13623676.0,2668.0,13,R,13622454,13622536,84,1284.9,1059.9,5061,NA
7,1,continuous,13,100,trial,13621008.0,13623676.0,2668.0,13,R,13622676,13622916,242,1391.1,614.9,5086,right
7,1,continuous,13,100,trial,13621008.0,13623676.0,2668.0,13,R,13622968,13623260,294,1395.2,608.8,5191,right
7,1,continuous,13,100,trial,13621008.0,13623676.0,2668.0,13,R,13623306,13623472,168,1474.8,1072.6,5238,NA
7,1,continuous,13,100,trial,13621008.0,13623676.0,2668.0,13,R,13623530,13623892,364,1463.4,500.9,5137,right
7,1,continuous,14,1,fixationCross,13624809.0,13629326.0,4517.0,14,R,13624086,13624336,252,1570.5,380.9,5176,right
7,1,continuous,14,1,fixationCross,13624809.0,13629326.0,4517.0,14,R,13624382,13624510,130,1362.1,482.5,5438,right
7,1,continuous,14,1,trial,13624809.0,13629326.0,4517.0,14,R,13624556,13625006,452,882.8,536.9,5693,NA
7,1,continuous,14,1,trial,13624809.0,13629326.0,4517.0,14,R,13625060,13625408,350,451.9,571.3,5558,left
7,1,continuous,14,1,trial,13624809.0,13629326.0,4517.0,14,R,13625482,13625730,250,1463.3,685.4,5174,right
7,1,continuous,14,1,trial,13624809.0,13629326.0,4517.0,14,R,13625774,13626104,332,1474.6,469.2,4870,right
7,1,continuous,14,1,trial,13624809.0,13629326.0,4517.0,14,R,13626144,13626264,122,1544.0,780.1,4749,NA
7,1,continuous,14,1,trial,13624809.0,13629326.0,4517.0,14,R,13626348,13626472,126,1499.5,724.1,4763,right
7,1,continuous,14,1,trial,13624809.0,13629326.0,4517.0,14,R,13626622,13626914,294,417.9,556.1,4829,left
7,1,continuous,14,1,trial,13624809.0,13629326.0,4517.0,14,R,13626946,13627068,124,354.8,762.7,5050,NA
7,1,continuous,14,1,trial,13624809.0,13629326.0,4517.0,14,R,13627210,13627438,230,468.6,666.0,5261,left
7,1,continuous,14,1,trial,13624809.0,13629326.0,4517.0,14,R,13627470,13627660,192,622.2,590.1,5390,left
7,1,continuous,14,1,trial,13624809.0,13629326.0,4517.0,14,R,13627730,13628006,278,1483.6,557.8,5593,right
7,1,continuous,14,1,trial,13624809.0,13629326.0,4517.0,14,R,13628040,13628240,202,1604.9,770.6,5726,NA
7,1,continuous,14,1,trial,13624809.0,13629326.0,4517.0,14,R,13628264,13628448,186,1520.2,691.3,5913,right
7,1,continuous,14,1,trial,13624809.0,13629326.0,4517.0,14,R,13628530,13629302,774,532.9,603.9,6405,left
7,1,continuous,14,1,trial,13624809.0,13629326.0,4517.0,14,R,13629362,13629558,198,1241.5,476.1,6409,right
7,1,continuous,15,17,fixationCross,13630426.0,13635476.0,5050.0,15,R,13629734,13629928,196,1133.3,474.0,6250,NA
7,1,continuous,15,17,fixationCross,13630426.0,13635476.0,5050.0,15,R,13629976,13630162,188,829.2,594.6,6383,NA
7,1,continuous,15,17,fixationCross,13630426.0,13635476.0,5050.0,15,R,13630188,13630360,174,967.9,551.8,6506,NA
7,1,continuous,15,17,trial,13630426.0,13635476.0,5050.0,15,R,13630370,13630572,204,945.0,541.8,6509,NA
7,1,continuous,15,17,trial,13630426.0,13635476.0,5050.0,15,R,13630622,13630926,306,512.7,486.6,6166,left
7,1,continuous,15,17,trial,13630426.0,13635476.0,5050.0,15,R,13630986,13631388,404,1384.7,529.8,5655,right
7,1,continuous,15,17,trial,13630426.0,13635476.0,5050.0,15,R,13631416,13631708,294,1258.9,424.5,5661,right
7,1,continuous,15,17,trial,13630426.0,13635476.0,5050.0,15,R,13631730,13631892,164,1258.4,426.9,5629,right
7,1,continuous,15,17,trial,13630426.0,13635476.0,5050.0,15,R,13631936,13632092,158,849.8,554.0,5531,NA
7,1,continuous,15,17,trial,13630426.0,13635476.0,5050.0,15,R,13632134,13632380,248,531.6,511.6,5394,left
7,1,continuous,15,17,trial,13630426.0,13635476.0,5050.0,15,R,13632454,13632574,122,1286.7,982.8,5471,NA
7,1,continuous,15,17,trial,13630426.0,13635476.0,5050.0,15,R,13632596,13632758,164,1193.8,969.2,5468,NA
7,1,continuous,15,17,trial,13630426.0,13635476.0,5050.0,15,R,13632824,13633630,808,507.3,538.1,5513,left
7,1,continuous,15,17,trial,13630426.0,13635476.0,5050.0,15,R,13633680,13634040,362,676.7,921.2,5720,NA
7,1,continuous,15,17,trial,13630426.0,13635476.0,5050.0,15,R,13634100,13634462,364,473.2,491.4,5796,left
7,1,continuous,15,17,trial,13630426.0,13635476.0,5050.0,15,R,13634492,13635222,732,326.4,626.4,5660,left
7,1,continuous,15,17,trial,13630426.0,13635476.0,5050.0,15,R,13635266,13635680,416,495.7,427.3,5513,left
7,1,continuous,16,20,fixationCross,13636376.0,13640526.0,4150.0,16,R,13635884,13636054,172,1152.6,510.5,5483,NA
7,1,continuous,16,20,fixationCross,13636376.0,13640526.0,4150.0,16,R,13636090,13636262,174,976.9,631.3,5575,NA
7,1,continuous,16,20,trial,13636376.0,13640526.0,4150.0,16,R,13636286,13636524,240,933.9,531.5,5751,NA
7,1,continuous,16,20,trial,13636376.0,13640526.0,4150.0,16,R,13636570,13636934,366,472.6,573.7,5648,left
7,1,continuous,16,20,trial,13636376.0,13640526.0,4150.0,16,R,13636962,13637168,208,388.0,723.7,5203,left
7,1,continuous,16,20,trial,13636376.0,13640526.0,4150.0,16,R,13637248,13637602,356,1428.2,592.7,4942,right
7,1,continuous,16,20,trial,13636376.0,13640526.0,4150.0,16,R,13637640,13638048,410,1378.5,436.1,4909,right
7,1,continuous,16,20,trial,13636376.0,13640526.0,4150.0,16,R,13638120,13638588,470,439.4,734.4,4997,NA
7,1,continuous,16,20,trial,13636376.0,13640526.0,4150.0,16,R,13638624,13639260,638,653.0,709.8,4896,left
7,1,continuous,16,20,trial,13636376.0,13640526.0,4150.0,16,R,13639284,13639538,256,576.5,702.1,4954,left
7,1,continuous,16,20,trial,13636376.0,13640526.0,4150.0,16,R,13639582,13639728,148,661.7,1061.5,5049,NA
7,1,continuous,16,20,trial,13636376.0,13640526.0,4150.0,16,R,13639900,13640114,216,525.8,568.1,4975,left
7,1,continuous,16,20,trial,13636376.0,13640526.0,4150.0,16,R,13640146,13640334,190,428.7,574.3,4955,left
7,1,continuous,16,20,trial,13636376.0,13640526.0,4150.0,16,R,13640412,13640794,384,1458.6,546.3,4803,right
7,1,continuous,17,92,fixationCross,13641609.0,13644543.0,2934.0,17,R,13640938,13640960,24,418.4,542.9,4730,left
7,1,continuous,17,92,fixationCross,13641609.0,13644543.0,2934.0,17,R,13640970,13641292,324,505.0,556.5,4898,left
7,1,continuous,17,92,fixationCross,13641609.0,13644543.0,2934.0,17,R,13641332,13641460,130,968.0,555.3,5210,NA
7,1,continuous,17,92,trial,13641609.0,13644543.0,2934.0,17,R,13641478,13641750,274,905.1,565.4,5340,NA
7,1,continuous,17,92,trial,13641609.0,13644543.0,2934.0,17,R,13641794,13642224,432,464.6,514.6,5258,left
7,1,continuous,17,92,trial,13641609.0,13644543.0,2934.0,17,R,13642298,13642520,224,1510.8,627.3,5101,right
7,1,continuous,17,92,trial,13641609.0,13644543.0,2934.0,17,R,13642548,13642788,242,1409.4,527.6,5005,right
7,1,continuous,17,92,trial,13641609.0,13644543.0,2934.0,17,R,13642816,13643128,314,1389.9,647.0,4915,right
7,1,continuous,17,92,trial,13641609.0,13644543.0,2934.0,17,R,13643260,13643614,356,1333.3,707.9,4766,right
7,1,continuous,17,92,trial,13641609.0,13644543.0,2934.0,17,R,13643662,13643702,42,1330.7,703.5,4738,right
7,1,continuous,17,92,trial,13641609.0,13644543.0,2934.0,17,R,13643750,13643928,180,1329.3,702.1,4757,right
7,1,continuous,17,92,trial,13641609.0,13644543.0,2934.0,17,R,13643958,13644210,254,1447.5,561.5,4799,right
7,1,continuous,17,92,trial,13641609.0,13644543.0,2934.0,17,R,13644238,13644760,524,1356.4,414.7,4846,right
7,1,continuous,18,91,fixationCross,13645610.0,13648627.0,3017.0,18,R,13644956,13645284,330,510.6,560.7,4819,left
7,1,continuous,18,91,fixationCross,13645610.0,13648627.0,3017.0,18,R,13645326,13645474,150,916.3,589.7,4929,NA
7,1,continuous,18,91,trial,13645610.0,13648627.0,3017.0,18,R,13645488,13645746,260,916.7,556.5,4917,NA
7,1,continuous,18,91,trial,13645610.0,13648627.0,3017.0,18,R,13645794,13646126,334,432.0,502.6,4888,left
7,1,continuous,18,91,trial,13645610.0,13648627.0,3017.0,18,R,13646198,13646558,362,1378.2,508.3,4646,right
7,1,continuous,18,91,trial,13645610.0,13648627.0,3017.0,18,R,13646590,13646996,408,1283.2,604.5,4555,right
7,1,continuous,18,91,trial,13645610.0,13648627.0,3017.0,18,R,13647026,13647370,346,1478.8,566.2,4688,right
7,1,continuous,18,91,trial,13645610.0,13648627.0,3017.0,18,R,13647414,13647700,288,1373.0,770.1,4966,NA
7,1,continuous,18,91,trial,13645610.0,13648627.0,3017.0,18,R,13647742,13647994,254,1343.1,552.0,5189,right
7,1,continuous,18,91,trial,13645610.0,13648627.0,3017.0,18,R,13648030,13648254,226,1341.0,416.0,5245,right
7,1,continuous,18,91,trial,13645610.0,13648627.0,3017.0,18,R,13648334,13648516,184,440.0,503.9,5051,left
7,1,continuous,18,91,trial,13645610.0,13648627.0,3017.0,18,R,13648532,13648818,288,445.2,462.9,4824,left
7,1,continuous,19,100,fixationCross,13649776.0,13652993.0,3217.0,19,R,13649036,13649322,288,1524.2,475.8,4567,right
7,1,continuous,19,100,fixationCross,13649776.0,13652993.0,3217.0,19,R,13649406,13649514,110,763.1,657.2,4835,NA
7,1,continuous,19,100,fixationCross,13649776.0,13652993.0,3217.0,19,R,13649550,13649720,172,959.2,541.0,5024,NA
7,1,continuous,19,100,trial,13649776.0,13652993.0,3217.0,19,R,13649738,13649952,216,911.7,563.4,5103,NA
7,1,continuous,19,100,trial,13649776.0,13652993.0,3217.0,19,R,13650002,13650248,248,420.2,512.1,5072,left
7,1,continuous,19,100,trial,13649776.0,13652993.0,3217.0,19,R,13650270,13650374,106,345.7,602.0,4859,left
7,1,continuous,19,100,trial,13649776.0,13652993.0,3217.0,19,R,13650450,13650808,360,1375.1,540.3,4736,right
7,1,continuous,19,100,trial,13649776.0,13652993.0,3217.0,19,R,13650830,13651032,204,1344.5,636.1,4537,right
7,1,continuous,19,100,trial,13649776.0,13652993.0,3217.0,19,R,13651154,13652206,1054,1294.3,970.8,4719,NA
7,1,continuous,19,100,trial,13649776.0,13652993.0,3217.0,19,R,13652270,13652616,348,1391.1,542.1,5079,right
7,1,continuous,19,100,trial,13649776.0,13652993.0,3217.0,19,R,13652640,13652864,226,1422.3,635.2,5014,right
7,1,continuous,19,100,trial,13649776.0,13652993.0,3217.0,19,R,13652888,13653184,298,1387.1,573.0,5012,right
7,1,continuous,20,1,fixationCross,13653926.0,13656676.0,2750.0,20,R,13653398,13653600,204,1420.1,516.0,4840,right
7,1,continuous,20,1,fixationCross,13653926.0,13656676.0,2750.0,20,R,13653658,13653842,186,957.8,573.4,5044,NA
7,1,continuous,20,1,trial,13653926.0,13656676.0,2750.0,20,R,13653856,13654150,296,919.6,561.6,5256,NA
7,1,continuous,20,1,trial,13653926.0,13656676.0,2750.0,20,R,13654202,13654502,302,1472.4,498.1,5206,right
7,1,continuous,20,1,trial,13653926.0,13656676.0,2750.0,20,R,13654580,13655400,822,431.3,632.6,4963,left
7,1,continuous,20,1,trial,13653926.0,13656676.0,2750.0,20,R,13655420,13656124,706,364.7,628.1,5023,left
7,1,continuous,20,1,trial,13653926.0,13656676.0,2750.0,20,R,13656218,13656392,176,1500.7,539.7,5445,right
7,1,continuous,20,1,trial,13653926.0,13656676.0,2750.0,20,R,13656414,13656836,424,1442.0,486.2,5452,right
7,1,continuous,21,89,fixationCross,13657759.0,13660659.0,2900.0,21,R,13657086,13657230,146,431.3,445.4,5573,left
7,1,continuous,21,89,fixationCross,13657759.0,13660659.0,2900.0,21,R,13657270,13657446,178,693.1,539.4,5747,left
7,1,continuous,21,89,trial,13657759.0,13660659.0,2900.0,21,R,13657480,13657918,440,955.3,556.0,5958,NA
7,1,continuous,21,89,trial,13657759.0,13660659.0,2900.0,21,R,13657976,13658288,314,529.9,522.3,5835,left
7,1,continuous,21,89,trial,13657759.0,13660659.0,2900.0,21,R,13658326,13658494,170,347.3,430.7,5465,left
7,1,continuous,21,89,trial,13657759.0,13660659.0,2900.0,21,R,13658510,13658810,302,324.9,422.0,5246,left
7,1,continuous,21,89,trial,13657759.0,13660659.0,2900.0,21,R,13658902,13659028,128,1424.4,449.2,5134,right
7,1,continuous,21,89,trial,13657759.0,13660659.0,2900.0,21,R,13659054,13659346,294,1307.7,425.0,5045,right
7,1,continuous,21,89,trial,13657759.0,13660659.0,2900.0,21,R,13659388,13659724,338,1476.8,660.8,5038,right
7,1,continuous,21,89,trial,13657759.0,13660659.0,2900.0,21,R,13659760,13660030,272,1339.2,548.4,5077,right
7,1,continuous,21,89,trial,13657759.0,13660659.0,2900.0,21,R,13660060,13660366,308,1317.9,692.3,5167,right
7,1,continuous,21,89,trial,13657759.0,13660659.0,2900.0,21,R,13660428,13660824,398,525.0,566.4,5265,left
7,1,continuous,21,89,postResponse,13657759.0,13660659.0,2900.0,21,R,13660966,13660994,30,1286.9,410.8,5097,right
7,1,continuous,22,1,fixationCross,13661526.0,13664160.0,2634.0,22,R,13661068,13661192,126,1270.5,452.4,5093,right
7,1,continuous,22,1,fixationCross,13661526.0,13664160.0,2634.0,22,R,13661230,13661416,188,1052.3,568.9,5174,NA
7,1,continuous,22,1,trial,13661526.0,13664160.0,2634.0,22,R,13661444,13661676,234,924.0,556.6,5379,NA
7,1,continuous,22,1,trial,13661526.0,13664160.0,2634.0,22,R,13661720,13661918,200,493.5,493.2,5460,left
7,1,continuous,22,1,trial,13661526.0,13664160.0,2634.0,22,R,13661942,13662306,366,571.3,498.9,5180,left
7,1,continuous,22,1,trial,13661526.0,13664160.0,2634.0,22,R,13662346,13662592,248,290.6,557.4,5001,left
7,1,continuous,22,1,trial,13661526.0,13664160.0,2634.0,22,R,13662612,13662698,88,365.5,532.7,5004,left
7,1,continuous,22,1,trial,13661526.0,13664160.0,2634.0,22,R,13662776,13663204,430,1416.7,567.8,5047,right
7,1,continuous,22,1,trial,13661526.0,13664160.0,2634.0,22,R,13663278,13663524,248,507.3,672.7,4988,left
7,1,continuous,22,1,trial,13661526.0,13664160.0,2634.0,22,R,13663560,13663838,280,494.3,550.5,4879,left
7,1,continuous,22,1,trial,13661526.0,13664160.0,2634.0,22,R,13663874,13664152,280,261.8,583.3,4813,left
7,1,continuous,22,1,trial,13661526.0,13664160.0,2634.0,22,R,13664176,13664336,162,393.3,507.3,4841,left
7,1,continuous,23,89,fixationCross,13665260.0,13667710.0,2450.0,23,R,13664566,13664764,200,1577.7,489.3,4923,right
7,1,continuous,23,89,fixationCross,13665260.0,13667710.0,2450.0,23,R,13664826,13664956,132,1149.8,681.0,5138,NA
7,1,continuous,23,89,trial,13665260.0,13667710.0,2450.0,23,R,13664996,13665448,454,929.5,539.2,5330,NA
7,1,continuous,23,89,trial,13665260.0,13667710.0,2450.0,23,R,13665492,13665852,362,480.8,462.6,5290,left
7,1,continuous,23,89,trial,13665260.0,13667710.0,2450.0,23,R,13665924,13666270,348,1451.6,528.9,5282,right
7,1,continuous,23,89,trial,13665260.0,13667710.0,2450.0,23,R,13666282,13666892,612,1494.5,539.3,5186,right
7,1,continuous,23,89,trial,13665260.0,13667710.0,2450.0,23,R,13666970,13667206,238,477.5,456.0,4950,left
7,1,continuous,23,89,trial,13665260.0,13667710.0,2450.0,23,R,13667290,13667554,266,1302.3,1063.2,4815,NA
7,1,continuous,23,89,trial,13665260.0,13667710.0,2450.0,23,R,13667616,13667912,298,1492.7,548.1,4881,right
7,1,continuous,24,13,fixationCross,13668776.0,13672810.0,4034.0,24,R,13668118,13668318,202,552.6,376.2,5171,left
7,1,continuous,24,13,fixationCross,13668776.0,13672810.0,4034.0,24,R,13668356,13668482,128,784.2,484.8,5376,NA
7,1,continuous,24,13,fixationCross,13668776.0,13672810.0,4034.0,24,R,13668510,13668674,166,963.3,570.4,5538,NA
7,1,continuous,24,13,trial,13668776.0,13672810.0,4034.0,24,R,13668684,13668998,316,944.0,561.1,5675,NA
7,1,continuous,24,13,trial,13668776.0,13672810.0,4034.0,24,R,13669044,13669566,524,561.1,492.4,5364,left
7,1,continuous,24,13,trial,13668776.0,13672810.0,4034.0,24,R,13669626,13670084,460,1360.3,572.0,5080,right
7,1,continuous,24,13,trial,13668776.0,13672810.0,4034.0,24,R,13670254,13670510,258,546.3,470.7,4812,left
7,1,continuous,24,13,trial,13668776.0,13672810.0,4034.0,24,R,13670526,13670830,306,596.2,495.4,4850,left
7,1,continuous,24,13,trial,13668776.0,13672810.0,4034.0,24,R,13670892,13671048,158,1304.6,622.8,4761,right
7,1,continuous,24,13,trial,13668776.0,13672810.0,4034.0,24,R,13671068,13671288,222,1374.2,592.9,4663,right
7,1,continuous,24,13,trial,13668776.0,13672810.0,4034.0,24,R,13671308,13671682,376,1354.9,564.4,4674,right
7,1,continuous,24,13,trial,13668776.0,13672810.0,4034.0,24,R,13671744,13672000,258,772.5,941.8,4929,likertHorizontal
7,1,continuous,24,13,trial,13668776.0,13672810.0,4034.0,24,R,13672048,13672250,204,566.5,718.5,5171,left
7,1,continuous,24,13,trial,13668776.0,13672810.0,4034.0,24,R,13672296,13672576,282,587.0,477.7,5397,left
7,1,continuous,24,13,trial,13668776.0,13672810.0,4034.0,24,R,13672590,13672994,406,574.8,500.5,5610,left
7,1,continuous,25,14,fixationCross,13673926.0,13677193.0,3267.0,25,R,13673236,13673430,196,1499.6,494.4,5807,right
7,1,continuous,25,14,fixationCross,13673926.0,13677193.0,3267.0,25,R,13673474,13673606,134,1271.9,593.3,5908,right
7,1,continuous,25,14,trial,13673926.0,13677193.0,3267.0,25,R,13673646,13674082,438,955.9,564.2,5972,NA
7,1,continuous,25,14,trial,13673926.0,13677193.0,3267.0,25,R,13674128,13674312,186,559.7,470.7,5794,left
7,1,continuous,25,14,trial,13673926.0,13677193.0,3267.0,25,R,13674346,13674600,256,474.3,704.7,5404,left
7,1,continuous,25,14,trial,13673926.0,13677193.0,3267.0,25,R,13674668,13674792,126,1358.1,511.7,5183,right
7,1,continuous,25,14,trial,13673926.0,13677193.0,3267.0,25,R,13674814,13675228,416,1332.6,459.5,4938,right
7,1,continuous,25,14,trial,13673926.0,13677193.0,3267.0,25,R,13675262,13675544,284,1566.5,497.3,4783,right
7,1,continuous,25,14,trial,13673926.0,13677193.0,3267.0,25,R,13675622,13676208,588,518.1,675.6,4622,left
7,1,continuous,25,14,trial,13673926.0,13677193.0,3267.0,25,R,13676248,13676540,294,523.4,1129.0,4445,NA
7,1,continuous,25,14,trial,13673926.0,13677193.0,3267.0,25,R,13676604,13676866,264,567.6,642.0,4337,left
7,1,continuous,25,14,trial,13673926.0,13677193.0,3267.0,25,R,13676932,13677052,122,1389.7,543.8,4318,right
7,1,continuous,25,14,trial,13673926.0,13677193.0,3267.0,25,R,13677080,13677376,298,1284.3,436.4,4301,right
7,1,continuous,26,100,fixationCross,13711810.0,13713810.0,2000.0,26,R,13710911,13711131,222,1078.6,817.5,6169,likertHorizontal
7,1,continuous,26,100,fixationCross,13711810.0,13713810.0,2000.0,26,R,13711515,13711691,178,1021.2,505.5,6667,NA
7,1,continuous,26,100,trial,13711810.0,13713810.0,2000.0,26,R,13711709,13712063,356,963.4,524.8,6749,NA
7,1,continuous,26,100,trial,13711810.0,13713810.0,2000.0,26,R,13712119,13712361,244,495.1,520.9,6401,left
7,1,continuous,26,100,trial,13711810.0,13713810.0,2000.0,26,R,13712373,13712531,160,482.3,481.6,6075,left
7,1,continuous,26,100,trial,13711810.0,13713810.0,2000.0,26,R,13712595,13713199,606,1357.8,499.5,5797,right
7,1,continuous,26,100,trial,13711810.0,13713810.0,2000.0,26,R,13713231,13713727,498,1382.5,633.5,5695,right
7,1,continuous,26,100,trial,13711810.0,13713810.0,2000.0,26,R,13713763,13714027,266,1363.9,464.6,5812,right
7,1,continuous,27,10,fixationCross,13714760.0,13716060.0,1300.0,27,R,13714219,13714433,216,674.8,438.7,6049,left
7,1,continuous,27,10,fixationCross,13714760.0,13716060.0,1300.0,27,R,13714459,13714641,184,864.8,537.7,6278,NA
7,1,continuous,27,10,trial,13714760.0,13716060.0,1300.0,27,R,13714665,13714917,254,989.4,505.9,6453,NA
7,1,continuous,27,10,trial,13714760.0,13716060.0,1300.0,27,R,13714969,13715177,210,529.9,461.0,6404,left
7,1,continuous,27,10,trial,13714760.0,13716060.0,1300.0,27,R,13715205,13715367,164,679.2,550.2,6030,left
7,1,continuous,27,10,trial,13714760.0,13716060.0,1300.0,27,R,13715431,13715915,486,1481.5,478.0,5566,right
7,1,continuous,27,10,trial,13714760.0,13716060.0,1300.0,27,R,13715933,13716071,140,1541.7,452.2,5396,right
7,1,continuous,27,10,trial,13714760.0,13716060.0,1300.0,27,R,13716165,13716321,158,519.6,1009.0,5292,NA
7,1,continuous,28,16,fixationCross,13717110.0,13719027.0,1917.0,28,R,13716487,13716823,338,770.5,560.8,5372,NA
7,1,continuous,28,16,trial,13717110.0,13719027.0,1917.0,28,R,13716855,13717133,280,968.4,547.3,5752,NA
7,1,continuous,28,16,trial,13717110.0,13719027.0,1917.0,28,R,13717157,13717301,146,969.2,491.2,5902,NA
7,1,continuous,28,16,trial,13717110.0,13719027.0,1917.0,28,R,13717357,13717697,342,515.0,439.1,5782,left
7,1,continuous,28,16,trial,13717110.0,13719027.0,1917.0,28,R,13717727,13718025,300,633.9,594.3,5695,left
7,1,continuous,28,16,trial,13717110.0,13719027.0,1917.0,28,R,13718083,13718455,374,1444.2,515.1,5737,right
7,1,continuous,28,16,trial,13717110.0,13719027.0,1917.0,28,R,13718527,13718759,234,737.8,922.3,5664,likertHorizontal
7,1,continuous,28,16,trial,13717110.0,13719027.0,1917.0,28,R,13718801,13718977,178,548.0,784.2,5493,NA
7,1,continuous,28,16,trial,13717110.0,13719027.0,1917.0,28,R,13719035,13719227,194,505.5,462.0,5398,left
7,1,continuous,29,88,fixationCross,13719910.0,13721777.0,1867.0,29,R,13719435,13719629,196,1037.6,438.5,5325,NA
7,1,continuous,29,88,fixationCross,13719910.0,13721777.0,1867.0,29,R,13719661,13719817,158,1003.6,516.5,5418,NA
7,1,continuous,29,88,trial,13719910.0,13721777.0,1867.0,29,R,13719837,13720063,228,941.8,541.9,5553,NA
7,1,continuous,29,88,trial,13719910.0,13721777.0,1867.0,29,R,13720111,13720341,232,513.6,486.6,5596,left
7,1,continuous,29,88,trial,13719910.0,13721777.0,1867.0,29,R,13720367,13720533,168,630.8,480.8,5260,left
7,1,continuous,29,88,trial,13719910.0,13721777.0,1867.0,29,R,13720607,13720873,268,1504.0,573.6,4925,right
7,1,continuous,29,88,trial,13719910.0,13721777.0,1867.0,29,R,13720893,13721663,772,1431.4,639.9,4824,right
7,1,continuous,29,88,trial,13719910.0,13721777.0,1867.0,29,R,13721683,13721955,274,1355.2,675.9,4982,right
7,1,continuous,30,89,fixationCross,13722760.0,13724660.0,1900.0,30,R,13722211,13722441,232,1249.4,599.8,5266,right
7,1,continuous,30,89,fixationCross,13722760.0,13724660.0,1900.0,30,R,13722489,13722627,140,970.4,638.7,5506,NA
7,1,continuous,30,89,trial,13722760.0,13724660.0,1900.0,30,R,13722651,13722899,250,934.2,528.9,5611,NA
7,1,continuous,30,89,trial,13722760.0,13724660.0,1900.0,30,R,13722951,13723171,222,453.6,517.4,5566,left
7,1,continuous,30,89,trial,13722760.0,13724660.0,1900.0,30,R,13723249,13723545,298,1443.1,547.9,5230,right
7,1,continuous,30,89,trial,13722760.0,13724660.0,1900.0,30,R,13723575,13724167,594,1252.8,531.8,4953,right
7,1,continuous,30,89,trial,13722760.0,13724660.0,1900.0,30,R,13724237,13724389,154,396.7,523.0,4762,left
7,1,continuous,30,89,trial,13722760.0,13724660.0,1900.0,30,R,13724405,13724857,454,370.6,482.3,4684,left
7,1,continuous,31,10,fixationCross,13725727.0,13727343.0,1616.0,31,R,13725069,13725207,140,1202.4,590.7,4680,right
7,1,continuous,31,10,fixationCross,13725727.0,13727343.0,1616.0,31,R,13725229,13725427,200,1090.7,592.0,4810,NA
7,1,continuous,31,10,trial,13725727.0,13727343.0,1616.0,31,R,13725457,13725899,444,896.0,545.9,5181,NA
7,1,continuous,31,10,trial,13725727.0,13727343.0,1616.0,31,R,13725947,13726151,206,471.6,523.8,5372,left
7,1,continuous,31,10,trial,13725727.0,13727343.0,1616.0,31,R,13726175,13726517,344,434.0,600.9,5374,left
7,1,continuous,31,10,trial,13725727.0,13727343.0,1616.0,31,R,13726551,13726849,300,690.1,755.2,5434,NA
7,1,continuous,31,10,trial,13725727.0,13727343.0,1616.0,31,R,13726897,13727073,178,426.8,564.2,5489,left
7,1,continuous,31,10,trial,13725727.0,13727343.0,1616.0,31,R,13727149,13727551,404,1448.2,623.3,5729,right
7,1,continuous,32,10,fixationCross,13728611.0,13731027.0,2416.0,32,R,13727821,13728117,298,656.8,487.5,5715,left
7,1,continuous,32,10,fixationCross,13728611.0,13731027.0,2416.0,32,R,13728139,13728301,164,761.1,553.3,5916,NA
7,1,continuous,32,10,fixationCross,13728611.0,13731027.0,2416.0,32,R,13728331,13728587,258,971.0,541.5,6022,NA
7,1,continuous,32,10,trial,13728611.0,13731027.0,2416.0,32,R,13728607,13728757,152,892.0,539.9,6061,NA
7,1,continuous,32,10,trial,13728611.0,13731027.0,2416.0,32,R,13728811,13729071,262,553.1,524.3,5975,left
7,1,continuous,32,10,trial,13728611.0,13731027.0,2416.0,32,R,13729137,13729579,444,1408.2,544.0,5483,right
7,1,continuous,32,10,trial,13728611.0,13731027.0,2416.0,32,R,13729605,13729651,48,1454.5,449.6,5285,right
7,1,continuous,32,10,trial,13728611.0,13731027.0,2416.0,32,R,13729699,13729719,22,1453.3,448.2,5282,right
7,1,continuous,32,10,trial,13728611.0,13731027.0,2416.0,32,R,13730279,13730901,624,591.8,597.7,5451,left
7,1,continuous,32,10,trial,13728611.0,13731027.0,2416.0,32,R,13730941,13731217,278,442.8,496.4,5452,left
7,1,continuous,33,79,fixationCross,13732160.0,13733694.0,1534.0,33,R,13731437,13731675,240,1381.5,370.8,5552,right
7,1,continuous,33,79,fixationCross,13732160.0,13733694.0,1534.0,33,R,13731715,13731845,132,1216.9,548.3,5752,right
7,1,continuous,33,79,trial,13732160.0,13733694.0,1534.0,33,R,13731887,13732305,420,929.0,527.7,5929,NA
7,1,continuous,33,79,trial,13732160.0,13733694.0,1534.0,33,R,13732347,13732789,444,482.8,526.3,5786,left
7,1,continuous,33,79,trial,13732160.0,13733694.0,1534.0,33,R,13732853,13733167,316,1347.1,548.4,5235,right
7,1,continuous,33,79,trial,13732160.0,13733694.0,1534.0,33,R,13733185,13733891,708,1339.9,613.0,4823,right
7,1,continuous,34,15,fixationCross,13734810.0,13736943.0,2133.0,34,R,13734129,13734495,368,663.5,496.8,4797,left
7,1,continuous,34,15,fixationCross,13734810.0,13736943.0,2133.0,34,R,13734529,13734795,268,934.6,555.6,5192,NA
7,1,continuous,34,15,trial,13734810.0,13736943.0,2133.0,34,R,13734817,13734965,150,902.8,517.7,5300,NA
7,1,continuous,34,15,trial,13734810.0,13736943.0,2133.0,34,R,13735009,13735373,366,595.8,519.9,5315,left
7,1,continuous,34,15,trial,13734810.0,13736943.0,2133.0,34,R,13735437,13735901,466,1405.0,579.2,5185,right
7,1,continuous,34,15,trial,13734810.0,13736943.0,2133.0,34,R,13735911,13736187,278,1408.6,611.0,5070,right
7,1,continuous,34,15,trial,13734810.0,13736943.0,2133.0,34,R,13736255,13736681,428,601.9,605.2,4988,left
7,1,continuous,34,15,trial,13734810.0,13736943.0,2133.0,34,R,13736705,13737133,430,641.2,519.6,5162,left
7,1,continuous,35,98,fixationCross,13738044.0,13741311.0,3267.0,35,R,13737379,13737557,180,1415.8,490.1,5545,right
7,1,continuous,35,98,fixationCross,13738044.0,13741311.0,3267.0,35,R,13737601,13737743,144,1189.3,577.6,5757,right
7,1,continuous,35,98,trial,13738044.0,13741311.0,3267.0,35,R,13737781,13738251,472,932.7,532.5,5950,NA
7,1,continuous,35,98,trial,13738044.0,13741311.0,3267.0,35,R,13738295,13738565,272,584.7,515.2,5674,left
7,1,continuous,35,98,trial,13738044.0,13741311.0,3267.0,35,R,13738633,13738941,310,1407.7,557.2,5145,right
7,1,continuous,35,98,trial,13738044.0,13741311.0,3267.0,35,R,13739011,13739645,636,469.0,535.9,4627,left
7,1,continuous,35,98,trial,13738044.0,13741311.0,3267.0,35,R,13739669,13740185,518,368.2,622.0,4403,left
7,1,continuous,35,98,trial,13738044.0,13741311.0,3267.0,35,R,13740211,13740409,200,260.7,521.3,4373,left
7,1,continuous,35,98,trial,13738044.0,13741311.0,3267.0,35,R,13740495,13740741,248,1461.8,608.8,4546,right
7,1,continuous,35,98,trial,13738044.0,13741311.0,3267.0,35,R,13740763,13741005,244,1384.8,541.3,4668,right
7,1,continuous,35,98,trial,13738044.0,13741311.0,3267.0,35,R,13741081,13741343,264,391.0,530.8,4634,left
7,1,continuous,35,98,trial,13738044.0,13741311.0,3267.0,35,R,13741375,13741527,154,595.0,498.4,4639,left
7,1,continuous,36,99,fixationCross,13742377.0,13744510.0,2133.0,36,R,13741721,13741881,162,1400.1,497.6,4777,right
7,1,continuous,36,99,fixationCross,13742377.0,13744510.0,2133.0,36,R,13741923,13742073,152,1148.1,543.4,5007,NA
7,1,continuous,36,99,fixationCross,13742377.0,13744510.0,2133.0,36,R,13742109,13742351,244,906.6,542.8,5280,NA
7,1,continuous,36,99,trial,13742377.0,13744510.0,2133.0,36,R,13742363,13742583,222,926.5,505.0,5453,NA
7,1,continuous,36,99,trial,13742377.0,13744510.0,2133.0,36,R,13742627,13743159,534,491.7,518.5,5211,left
7,1,continuous,36,99,trial,13742377.0,13744510.0,2133.0,36,R,13743227,13743399,174,1448.1,573.0,4877,right
7,1,continuous,36,99,trial,13742377.0,13744510.0,2133.0,36,R,13743427,13743745,320,1316.2,506.8,4740,right
7,1,continuous,36,99,trial,13742377.0,13744510.0,2133.0,36,R,13743791,13744199,410,1246.6,918.5,4947,NA
7,1,continuous,36,99,trial,13742377.0,13744510.0,2133.0,36,R,13744233,13744419,188,1468.1,1036.4,5173,NA
7,1,continuous,36,99,trial,13742377.0,13744510.0,2133.0,36,R,13744479,13744707,230,1338.2,472.3,5413,right
7,1,continuous,37,11,fixationCross,13745594.0,13746844.0,1250.0,37,R,13744927,13745295,370,821.9,531.4,5552,NA
7,1,continuous,37,11,fixationCross,13745594.0,13746844.0,1250.0,37,R,13745321,13745469,150,956.1,576.2,5703,NA
7,1,continuous,37,11,trial,13745594.0,13746844.0,1250.0,37,R,13745481,13745733,254,933.0,546.8,5693,NA
7,1,continuous,37,11,trial,13745594.0,13746844.0,1250.0,37,R,13745781,13745957,178,553.3,496.8,5577,left
7,1,continuous,37,11,trial,13745594.0,13746844.0,1250.0,37,R,13745989,13746337,350,475.0,679.7,5160,left
7,1,continuous,37,11,trial,13745594.0,13746844.0,1250.0,37,R,13746399,13746827,430,1311.7,614.0,4830,right
7,1,continuous,37,11,trial,13745594.0,13746844.0,1250.0,37,R,13746895,13747073,180,462.9,622.9,4764,left
7,1,continuous,38,3,fixationCross,13747944.0,13749327.0,1383.0,38,R,13747287,13747655,370,861.8,451.0,5025,NA
7,1,continuous,38,3,fixationCross,13747944.0,13749327.0,1383.0,38,R,13747685,13747891,208,938.5,558.2,5358,NA
7,1,continuous,38,3,trial,13747944.0,13749327.0,1383.0,38,R,13747907,13748095,190,918.9,521.7,5389,NA
7,1,continuous,38,3,trial,13747944.0,13749327.0,1383.0,38,R,13748139,13748715,578,520.1,536.1,5102,left
7,1,continuous,38,3,trial,13747944.0,13749327.0,1383.0,38,R,13748799,13748989,192,1483.2,602.5,4827,right
7,1,continuous,38,3,trial,13747944.0,13749327.0,1383.0,38,R,13749015,13749167,154,1486.2,610.6,4763,right
7,1,continuous,38,3,trial,13747944.0,13749327.0,1383.0,38,R,13749251,13749539,290,420.5,627.2,4693,left
7,1,continuous,39,3,fixationCross,13750461.0,13752061.0,1600.0,39,R,13749761,13749975,216,692.0,542.9,4763,left
7,1,continuous,39,3,fixationCross,13750461.0,13752061.0,1600.0,39,R,13749987,13750161,176,647.0,547.2,4917,left
7,1,continuous,39,3,fixationCross,13750461.0,13752061.0,1600.0,39,R,13750203,13750317,116,966.9,561.5,5091,NA
7,1,continuous,39,3,trial,13750461.0,13752061.0,1600.0,39,R,13750333,13750599,268,919.2,542.6,5136,NA
7,1,continuous,39,3,trial,13750461.0,13752061.0,1600.0,39,R,13750643,13750835,194,528.1,524.9,5092,left
7,1,continuous,39,3,trial,13750461.0,13752061.0,1600.0,39,R,13750857,13751181,326,462.9,477.1,4747,left
7,1,continuous,39,3,trial,13750461.0,13752061.0,1600.0,39,R,13751195,13751355,162,502.3,474.8,4492,left
7,1,continuous,39,3,trial,13750461.0,13752061.0,1600.0,39,R,13751425,13751705,282,1443.4,587.1,4396,right
7,1,continuous,39,3,trial,13750461.0,13752061.0,1600.0,39,R,13751791,13751935,146,499.5,1032.9,4449,NA
7,1,continuous,39,3,trial,13750461.0,13752061.0,1600.0,39,R,13752001,13752251,252,457.3,490.8,4628,left
7,1,continuous,40,100,fixationCross,13753244.0,13754994.0,1750.0,40,R,13752497,13752787,292,626.1,471.8,4977,left
7,1,continuous,40,100,fixationCross,13753244.0,13754994.0,1750.0,40,R,13752819,13752949,132,798.9,526.1,5264,NA
7,1,continuous,40,100,fixationCross,13753244.0,13754994.0,1750.0,40,R,13752975,13753157,184,954.9,546.9,5426,NA
7,1,continuous,40,100,trial,13753244.0,13754994.0,1750.0,40,R,13753171,13753387,218,926.9,527.8,5502,NA
7,1,continuous,40,100,trial,13753244.0,13754994.0,1750.0,40,R,13753431,13753645,216,562.4,439.6,5464,left
7,1,continuous,40,100,trial,13753244.0,13754994.0,1750.0,40,R,13753707,13754015,310,1473.5,519.1,5106,right
7,1,continuous,40,100,trial,13753244.0,13754994.0,1750.0,40,R,13754041,13754481,442,1400.1,609.7,4959,right
7,1,continuous,40,100,trial,13753244.0,13754994.0,1750.0,40,R,13754525,13754955,432,1329.1,426.4,5005,right
7,1,continuous,40,100,trial,13753244.0,13754994.0,1750.0,40,R,13754993,13755197,206,1388.9,711.1,4994,right
7,1,continuous,41,100,fixationCross,13755877.0,13757811.0,1934.0,41,R,13755405,13755757,354,975.7,454.0,5105,NA
7,1,continuous,41,100,trial,13755877.0,13757811.0,1934.0,41,R,13755787,13755969,184,905.0,546.1,5432,NA
7,1,continuous,41,100,trial,13755877.0,13757811.0,1934.0,41,R,13755979,13756131,154,942.8,530.9,5541,NA
7,1,continuous,41,100,trial,13755877.0,13757811.0,1934.0,41,R,13756183,13756351,170,1354.0,528.8,5308,right
7,1,continuous,41,100,trial,13755877.0,13757811.0,1934.0,41,R,13756379,13756569,192,1261.0,426.3,4975,right
7,1,continuous,41,100,trial,13755877.0,13757811.0,1934.0,41,R,13756585,13757083,500,1273.4,397.6,4603,right
7,1,continuous,41,100,trial,13755877.0,13757811.0,1934.0,41,R,13757125,13757559,436,1489.8,677.8,4418,right
7,1,continuous,41,100,trial,13755877.0,13757811.0,1934.0,41,R,13757599,13758007,410,1221.2,617.1,4352,right
7,1,continuous,42,4,fixationCross,13758961.0,13760778.0,1817.0,42,R,13758219,13758397,180,888.0,435.9,4354,NA
7,1,continuous,42,4,fixationCross,13758961.0,13760778.0,1817.0,42,R,13758435,13758657,224,763.1,513.5,4554,NA
7,1,continuous,42,4,fixationCross,13758961.0,13760778.0,1817.0,42,R,13758687,13758815,130,958.0,545.0,4801,NA
7,1,continuous,42,4,trial,13758961.0,13760778.0,1817.0,42,R,13758829,13759105,278,920.4,524.7,4918,NA
7,1,continuous,42,4,trial,13758961.0,13760778.0,1817.0,42,R,13759149,13759479,332,475.2,480.4,4810,left
7,1,continuous,42,4,trial,13758961.0,13760778.0,1817.0,42,R,13759551,13760059,510,1489.6,593.6,4608,right
7,1,continuous,42,4,trial,13758961.0,13760778.0,1817.0,42,R,13760101,13760269,170,1445.9,450.3,4904,right
7,1,continuous,42,4,trial,13758961.0,13760778.0,1817.0,42,R,13760357,13760967,612,418.2,452.4,5265,left
7,1,continuous,43,1,fixationCross,13761811.0,13763944.0,2133.0,43,R,13761185,13761371,188,948.5,468.4,5332,NA
7,1,continuous,43,1,fixationCross,13761811.0,13763944.0,2133.0,43,R,13761395,13761569,176,1061.8,553.2,5516,NA
7,1,continuous,43,1,trial,13761811.0,13763944.0,2133.0,43,R,13761597,13761857,262,934.8,559.8,5709,NA
7,1,continuous,43,1,trial,13761811.0,13763944.0,2133.0,43,R,13761879,13762019,142,922.0,522.5,5796,NA
7,1,continuous,43,1,trial,13761811.0,13763944.0,2133.0,43,R,13762067,13762449,384,441.7,512.8,5464,left
7,1,continuous,43,1,trial,13761811.0,13763944.0,2133.0,43,R,13762515,13763245,732,1358.7,613.6,4917,right
7,1,continuous,43,1,trial,13761811.0,13763944.0,2133.0,43,R,13763277,13763383,108,1554.3,611.7,4709,right
7,1,continuous,43,1,trial,13761811.0,13763944.0,2133.0,43,R,13763473,13763871,400,428.1,622.0,4752,left
7,1,continuous,43,1,trial,13761811.0,13763944.0,2133.0,43,R,13763893,13764101,210,449.5,539.7,4818,left
7,1,continuous,44,100,fixationCross,13765028.0,13766861.0,1833.0,44,R,13764377,13764597,222,881.3,502.7,4856,NA
7,1,continuous,44,100,fixationCross,13765028.0,13766861.0,1833.0,44,R,13764617,13764791,176,819.3,538.3,5073,NA
7,1,continuous,44,100,trial,13765028.0,13766861.0,1833.0,44,R,13764813,13765219,408,957.2,541.3,5248,NA
7,1,continuous,44,100,trial,13765028.0,13766861.0,1833.0,44,R,13765267,13765677,412,498.1,505.1,5019,left
7,1,continuous,44,100,trial,13765028.0,13766861.0,1833.0,44,R,13765755,13766237,484,1411.8,604.7,4717,right
7,1,continuous,44,100,trial,13765028.0,13766861.0,1833.0,44,R,13766315,13766457,144,604.5,999.7,4525,NA
7,1,continuous,44,100,trial,13765028.0,13766861.0,1833.0,44,R,13766509,13766735,228,1333.8,1020.2,4470,NA
7,1,continuous,44,100,trial,13765028.0,13766861.0,1833.0,44,R,13766759,13766827,70,1482.4,1036.3,4482,NA
7,1,continuous,44,100,postResponse,13765028.0,13766861.0,1833.0,44,R,13767007,13767195,190,1441.2,464.3,4725,right
7,1,continuous,45,1,fixationCross,13767778.0,13769628.0,1850.0,45,R,13767407,13767443,38,1422.5,532.9,4980,right
7,1,continuous,45,1,fixationCross,13767778.0,13769628.0,1850.0,45,R,13767559,13767645,88,1030.8,558.0,5148,NA
7,1,continuous,45,1,trial,13767778.0,13769628.0,1850.0,45,R,13767739,13768017,280,926.3,549.6,5246,NA
7,1,continuous,45,1,trial,13767778.0,13769628.0,1850.0,45,R,13768065,13768209,146,1385.9,427.7,5117,right
7,1,continuous,45,1,trial,13767778.0,13769628.0,1850.0,45,R,13768231,13768415,186,1337.4,389.0,4896,right
7,1,continuous,45,1,trial,13767778.0,13769628.0,1850.0,45,R,13768449,13768843,396,1530.2,538.9,4833,right
7,1,continuous,45,1,trial,13767778.0,13769628.0,1850.0,45,R,13768927,13769253,328,510.6,489.6,4992,left
7,1,continuous,45,1,trial,13767778.0,13769628.0,1850.0,45,R,13769273,13769835,564,592.6,473.8,4777,left
7,1,continuous,46,2,fixationCross,13770728.0,13772145.0,1417.0,46,R,13770061,13770217,158,1022.1,458.8,4706,NA
7,1,continuous,46,2,fixationCross,13770728.0,13772145.0,1417.0,46,R,13770243,13770433,192,1237.5,529.5,4950,right
7,1,continuous,46,2,trial,13770728.0,13772145.0,1417.0,46,R,13770467,13770937,472,907.0,524.3,5366,NA
7,1,continuous,46,2,trial,13770728.0,13772145.0,1417.0,46,R,13770983,13771237,256,1363.3,478.2,5469,right
7,1,continuous,46,2,trial,13770728.0,13772145.0,1417.0,46,R,13771263,13771387,126,1531.5,456.3,5215,right
7,1,continuous,46,2,trial,13770728.0,13772145.0,1417.0,46,R,13771469,13772297,830,437.6,615.3,5145,left
7,1,continuous,47,1,fixationCross,13773261.0,13775128.0,1867.0,47,R,13772581,13772799,220,1398.3,460.5,4975,right
7,1,continuous,47,1,fixationCross,13773261.0,13775128.0,1867.0,47,R,13772825,13772949,126,1248.6,470.6,5098,right
7,1,continuous,47,1,trial,13773261.0,13775128.0,1867.0,47,R,13772979,13773413,436,918.7,524.0,5210,NA
7,1,continuous,47,1,trial,13773261.0,13775128.0,1867.0,47,R,13773453,13773637,186,502.5,518.8,5173,left
7,1,continuous,47,1,trial,13773261.0,13775128.0,1867.0,47,R,13773667,13773827,162,391.6,620.6,4845,left
7,1,continuous,47,1,trial,13773261.0,13775128.0,1867.0,47,R,13773911,13774397,488,1496.1,605.6,4601,right
7,1,continuous,47,1,trial,13773261.0,13775128.0,1867.0,47,R,13774475,13774727,254,412.4,653.0,4606,left
7,1,continuous,47,1,trial,13773261.0,13775128.0,1867.0,47,R,13774741,13775303,564,387.6,605.7,4511,left
7,1,continuous,48,95,fixationCross,13776161.0,13778761.0,2600.0,48,R,13775535,13775687,154,1480.5,470.1,4493,right
7,1,continuous,48,95,fixationCross,13776161.0,13778761.0,2600.0,48,R,13775701,13775841,142,1413.3,465.9,4577,right
7,1,continuous,48,95,fixationCross,13776161.0,13778761.0,2600.0,48,R,13775895,13776081,188,874.1,542.0,4796,NA
7,1,continuous,48,95,trial,13776161.0,13778761.0,2600.0,48,R,13776097,13776301,206,938.3,528.1,4931,NA
7,1,continuous,48,95,trial,13776161.0,13778761.0,2600.0,48,R,13776345,13776691,348,521.7,459.2,4850,left
7,1,continuous,48,95,trial,13776161.0,13778761.0,2600.0,48,R,13776765,13776967,204,1511.9,490.0,4548,right
7,1,continuous,48,95,trial,13776161.0,13778761.0,2600.0,48,R,13776989,13777163,176,1476.7,436.6,4422,right
7,1,continuous,48,95,trial,13776161.0,13778761.0,2600.0,48,R,13777287,13777581,296,1506.3,458.3,4649,right
7,1,continuous,48,95,trial,13776161.0,13778761.0,2600.0,48,R,13777593,13778289,698,1470.8,479.9,4738,right
7,1,continuous,48,95,trial,13776161.0,13778761.0,2600.0,48,R,13778367,13778603,238,430.9,554.9,4293,left
7,1,continuous,48,95,trial,13776161.0,13778761.0,2600.0,48,R,13778633,13778931,300,513.9,419.8,4134,left
7,1,continuous,49,11,fixationCross,13779661.0,13781027.0,1366.0,49,R,13779197,13779327,132,1167.8,481.7,4138,NA
7,1,continuous,49,11,fixationCross,13779661.0,13781027.0,1366.0,49,R,13779367,13779563,198,974.0,501.5,4359,NA
7,1,continuous,49,11,trial,13779661.0,13781027.0,1366.0,49,R,13779583,13779805,224,915.5,529.2,4503,NA
7,1,continuous,49,11,trial,13779661.0,13781027.0,1366.0,49,R,13779855,13780079,226,409.2,463.5,4580,left
7,1,continuous,49,11,trial,13779661.0,13781027.0,1366.0,49,R,13780161,13780495,336,1454.4,484.4,4486,right
7,1,continuous,49,11,trial,13779661.0,13781027.0,1366.0,49,R,13780521,13780743,224,1357.5,508.4,4555,right
7,1,continuous,49,11,trial,13779661.0,13781027.0,1366.0,49,R,13780815,13781257,444,399.3,488.9,4718,left
7,1,continuous,49,11,postResponse,13779661.0,13781027.0,1366.0,49,R,13781291,13781363,74,621.6,476.5,4749,left
7,1,continuous,50,100,fixationCross,13782095.0,13783611.0,1516.0,50,R,13781437,13781569,134,638.2,476.7,4840,left
7,1,continuous,50,100,fixationCross,13782095.0,13783611.0,1516.0,50,R,13781593,13781803,212,784.5,498.5,5037,NA
7,1,continuous,50,100,fixationCross,13782095.0,13783611.0,1516.0,50,R,13781829,13781999,172,951.1,547.1,5178,NA
7,1,continuous,50,100,trial,13782095.0,13783611.0,1516.0,50,R,13782011,13782249,240,924.8,522.5,5162,NA
7,1,continuous,50,100,trial,13782095.0,13783611.0,1516.0,50,R,13782299,13782607,310,445.3,485.6,5030,left
7,1,continuous,50,100,trial,13782095.0,13783611.0,1516.0,50,R,13782683,13782851,170,1417.3,528.0,4759,right
7,1,continuous,50,100,trial,13782095.0,13783611.0,1516.0,50,R,13782869,13783815,948,1368.5,503.4,4805,right
7,2,binary,1,2,fixationCross,13854279.0,13856645.0,2366.0,51,R,13853584,13853956,374,1390.1,593.4,6929,right
7,2,binary,1,2,trial,13854279.0,13856645.0,2366.0,51,R,13854000,13854562,564,988.7,492.4,6834,NA
7,2,binary,1,2,trial,13854279.0,13856645.0,2366.0,51,R,13854618,13854758,142,1450.5,501.3,6771,right
7,2,binary,1,2,trial,13854279.0,13856645.0,2366.0,51,R,13854816,13854934,120,1033.1,975.9,6652,likertHorizontal
7,2,binary,1,2,trial,13854279.0,13856645.0,2366.0,51,R,13854980,13855062,84,958.1,985.1,6613,likertHorizontal
7,2,binary,1,2,trial,13854279.0,13856645.0,2366.0,51,R,13855106,13855382,278,1401.5,1059.9,6507,NA
7,2,binary,1,2,trial,13854279.0,13856645.0,2366.0,51,R,13855438,13856354,918,1422.4,493.7,6539,right
7,2,binary,1,2,trial,13854279.0,13856645.0,2366.0,51,R,13856428,13856884,458,453.3,630.8,6302,left
7,2,binary,1,2,postResponse,13854279.0,13856645.0,2366.0,51,R,13856952,13856980,30,1201.4,544.6,6055,right
7,2,binary,2,2,fixationCross,13857729.0,13859629.0,1900.0,52,R,13857054,13857186,134,1199.7,557.5,5943,right
7,2,binary,2,2,fixationCross,13857729.0,13859629.0,1900.0,52,R,13857218,13857410,194,1101.5,657.1,5991,NA
7,2,binary,2,2,trial,13857729.0,13859629.0,1900.0,52,R,13857450,13857968,520,963.7,492.4,6386,NA
7,2,binary,2,2,trial,13857729.0,13859629.0,1900.0,52,R,13858028,13858406,380,1484.4,419.2,6317,right
7,2,binary,2,2,trial,13857729.0,13859629.0,1900.0,52,R,13858480,13858902,424,514.2,500.6,5882,left
7,2,binary,2,2,trial,13857729.0,13859629.0,1900.0,52,R,13858930,13859344,416,387.3,514.6,5656,left
7,2,binary,2,2,trial,13857729.0,13859629.0,1900.0,52,R,13859424,13859840,418,1487.6,576.2,5697,right
7,2,binary,3,1,fixationCross,13860729.0,13861946.0,1217.0,53,R,13860036,13860248,214,1188.8,476.9,5995,right
7,2,binary,3,1,fixationCross,13860729.0,13861946.0,1217.0,53,R,13860274,13860428,156,1071.6,551.9,6221,NA
7,2,binary,3,1,trial,13860729.0,13861946.0,1217.0,53,R,13860454,13860890,438,963.1,483.4,6377,NA
7,2,binary,3,1,trial,13860729.0,13861946.0,1217.0,53,R,13860944,13861152,210,1384.3,482.9,6259,right
7,2,binary,3,1,trial,13860729.0,13861946.0,1217.0,53,R,13861222,13862174,954,493.7,504.4,5209,left
7,2,binary,3,1,postResponse,13860729.0,13861946.0,1217.0,53,R,13862228,13862278,52,862.4,478.4,5009,NA
7,2,binary,4,1,fixationCross,13862995.0,13864379.0,1384.0,54,R,13862518,13862722,206,1120.4,483.0,5348,NA
7,2,binary,4,1,trial,13862995.0,13864379.0,1384.0,54,R,13862756,13863148,394,942.4,506.2,5750,NA
7,2,binary,4,1,trial,13862995.0,13864379.0,1384.0,54,R,13863198,13863418,222,471.2,454.2,5787,left
7,2,binary,4,1,trial,13862995.0,13864379.0,1384.0,54,R,13863438,13863538,102,437.8,404.1,5483,left
7,2,binary,4,1,trial,13862995.0,13864379.0,1384.0,54,R,13863606,13863952,348,1467.8,447.2,5144,right
7,2,binary,4,1,trial,13862995.0,13864379.0,1384.0,54,R,13863976,13864326,352,1346.8,396.0,5137,right
7,2,binary,4,1,trial,13862995.0,13864379.0,1384.0,54,R,13864410,13864620,212,472.3,436.3,5360,left
7,2,binary,5,1,fixationCross,13865512.0,13866712.0,1200.0,55,R,13864810,13865204,396,743.3,492.2,5340,NA
7,2,binary,5,1,fixationCross,13865512.0,13866712.0,1200.0,55,R,13865240,13865484,246,970.7,523.2,5575,NA
7,2,binary,5,1,trial,13865512.0,13866712.0,1200.0,55,R,13865504,13865710,208,952.1,477.9,5670,NA
7,2,binary,5,1,trial,13865512.0,13866712.0,1200.0,55,R,13865764,13866004,242,543.3,489.9,5642,left
7,2,binary,5,1,trial,13865512.0,13866712.0,1200.0,55,R,13866082,13866388,308,1492.4,516.4,5318,right
7,2,binary,5,1,trial,13865512.0,13866712.0,1200.0,55,R,13866422,13866748,328,1555.7,758.0,5065,NA
7,2,binary,5,1,trial,13865512.0,13866712.0,1200.0,55,R,13866760,13866972,214,1524.3,727.8,5030,right
7,2,binary,6,1,fixationCross,13867846.0,13868963.0,1117.0,56,R,13867120,13867322,204,773.7,411.2,5262,NA
7,2,binary,6,1,fixationCross,13867846.0,13868963.0,1117.0,56,R,13867346,13867568,224,808.6,495.5,5570,NA
7,2,binary,6,1,trial,13867846.0,13868963.0,1117.0,56,R,13867594,13868052,460,967.4,517.1,5959,NA
7,2,binary,6,1,trial,13867846.0,13868963.0,1117.0,56,R,13868098,13868356,260,1415.5,472.6,5973,right
7,2,binary,6,1,trial,13867846.0,13868963.0,1117.0,56,R,13868420,13868638,220,566.1,571.7,5623,left
7,2,binary,6,1,trial,13867846.0,13868963.0,1117.0,56,R,13868654,13869174,522,513.6,578.7,5229,left
7,2,binary,7,1,fixationCross,13870062.0,13871412.0,1350.0,57,R,13869370,13869762,394,906.3,439.4,5199,NA
7,2,binary,7,1,fixationCross,13870062.0,13871412.0,1350.0,57,R,13869792,13869972,182,991.6,565.5,5564,NA
7,2,binary,7,1,trial,13870062.0,13871412.0,1350.0,57,R,13869986,13870234,250,976.4,528.7,5646,NA
7,2,binary,7,1,trial,13870062.0,13871412.0,1350.0,57,R,13870282,13870658,378,1365.3,471.9,5643,right
7,2,binary,7,1,postResponse,13870062.0,13871412.0,1350.0,57,R,13870730,13871746,1018,453.2,569.4,5561,left
7,2,binary,8,1,fixationCross,13872445.0,13874112.0,1667.0,58,R,13871820,13872026,208,794.5,465.3,5848,NA
7,2,binary,8,1,fixationCross,13872445.0,13874112.0,1667.0,58,R,13872160,13872408,250,975.1,491.0,6121,NA
7,2,binary,8,1,trial,13872445.0,13874112.0,1667.0,58,R,13872420,13872602,184,976.3,514.6,6258,NA
7,2,binary,8,1,trial,13872445.0,13874112.0,1667.0,58,R,13872658,13872942,286,1413.5,462.1,6099,right
7,2,binary,8,1,trial,13872445.0,13874112.0,1667.0,58,R,13873006,13873510,506,515.4,546.5,5314,left
7,2,binary,8,1,trial,13872445.0,13874112.0,1667.0,58,R,13873556,13873986,432,406.0,1006.1,5237,NA
7,2,binary,8,1,trial,13872445.0,13874112.0,1667.0,58,R,13874052,13874340,290,582.3,463.1,5297,left
7,2,binary,9,2,fixationCross,13875212.0,13876329.0,1117.0,59,R,13874524,13874652,130,861.2,471.5,5347,NA
7,2,binary,9,2,fixationCross,13875212.0,13876329.0,1117.0,59,R,13874718,13874890,174,1383.6,475.7,5529,right
7,2,binary,9,2,fixationCross,13875212.0,13876329.0,1117.0,59,R,13874936,13875098,164,975.8,523.6,5711,NA
7,2,binary,9,2,trial,13875212.0,13876329.0,1117.0,59,R,13875110,13875376,268,956.9,505.0,5792,NA
7,2,binary,9,2,trial,13875212.0,13876329.0,1117.0,59,R,13875418,13875758,342,1387.7,463.6,5701,right
7,2,binary,9,2,trial,13875212.0,13876329.0,1117.0,59,R,13875774,13875946,174,1424.6,501.2,5445,right
7,2,binary,9,2,trial,13875212.0,13876329.0,1117.0,59,R,13875970,13876316,348,1545.0,538.7,5308,right
7,2,binary,9,2,trial,13875212.0,13876329.0,1117.0,59,R,13876364,13876588,226,1419.8,1066.6,5423,NA
7,2,binary,10,2,fixationCross,13877479.0,13878612.0,1133.0,60,R,13876752,13877000,250,1342.8,466.7,5532,right
7,2,binary,10,2,fixationCross,13877479.0,13878612.0,1133.0,60,R,13877046,13877176,132,1105.4,578.2,5798,NA
7,2,binary,10,2,trial,13877479.0,13878612.0,1133.0,60,R,13877210,13877642,434,959.8,513.2,6005,NA
7,2,binary,10,2,trial,13877479.0,13878612.0,1133.0,60,R,13877692,13877988,298,487.2,460.4,5889,left
7,2,binary,10,2,trial,13877479.0,13878612.0,1133.0,60,R,13878062,13878584,524,1546.7,595.3,5535,right
7,2,binary,10,2,trial,13877479.0,13878612.0,1133.0,60,R,13878628,13878850,224,1403.2,1041.2,5665,NA
7,2,binary,11,2,fixationCross,13879562.0,13880646.0,1084.0,61,R,13879062,13879250,190,1287.2,386.0,5948,right
7,2,binary,11,2,fixationCross,13879562.0,13880646.0,1084.0,61,R,13879296,13879456,162,1029.8,487.0,6210,NA
7,2,binary,11,2,trial,13879562.0,13880646.0,1084.0,61,R,13879482,13879786,306,955.6,535.0,6250,NA
7,2,binary,11,2,trial,13879562.0,13880646.0,1084.0,61,R,13879834,13880072,240,543.7,552.3,5828,left
7,2,binary,11,2,trial,13879562.0,13880646.0,1084.0,61,R,13880148,13880474,328,1417.9,564.8,5344,right
7,2,binary,11,2,trial,13879562.0,13880646.0,1084.0,61,R,13880492,13880852,362,1492.3,559.2,5129,right
7,2,binary,12,1,fixationCross,13881729.0,13882979.0,1250.0,62,R,13881054,13881228,176,1481.1,505.7,5047,right
7,2,binary,12,1,fixationCross,13881729.0,13882979.0,1250.0,62,R,13881284,13881438,156,1070.0,551.5,5230,NA
7,2,binary,12,1,fixationCross,13881729.0,13882979.0,1250.0,62,R,13881464,13881680,218,873.6,538.1,5439,NA
7,2,binary,12,1,trial,13881729.0,13882979.0,1250.0,62,R,13881712,13881926,216,704.6,513.6,5555,left
7,2,binary,12,1,trial,13881729.0,13882979.0,1250.0,62,R,13881954,13882156,204,535.9,502.8,5532,left
7,2,binary,12,1,trial,13881729.0,13882979.0,1250.0,62,R,13882222,13882618,398,1432.5,488.4,5231,right
7,2,binary,12,1,trial,13881729.0,13882979.0,1250.0,62,R,13882652,13883214,564,1264.3,620.3,5416,right
7,2,binary,13,1,fixationCross,13884129.0,13885462.0,1333.0,63,R,13883418,13883664,248,594.1,461.5,5504,left
7,2,binary,13,1,fixationCross,13884129.0,13885462.0,1333.0,63,R,13883688,13883826,140,757.5,493.1,5550,NA
7,2,binary,13,1,fixationCross,13884129.0,13885462.0,1333.0,63,R,13883852,13883996,146,982.9,538.1,5546,NA
7,2,binary,13,1,trial,13884129.0,13885462.0,1333.0,63,R,13884010,13884288,280,949.2,525.7,5520,NA
7,2,binary,13,1,trial,13884129.0,13885462.0,1333.0,63,R,13884334,13884552,220,1431.9,482.7,5486,right
7,2,binary,13,1,trial,13884129.0,13885462.0,1333.0,63,R,13884636,13885092,458,394.3,548.3,5296,left
7,2,binary,13,1,trial,13884129.0,13885462.0,1333.0,63,R,13885138,13885356,220,497.4,996.7,5281,NA
7,2,binary,13,1,trial,13884129.0,13885462.0,1333.0,63,R,13885434,13885654,222,1493.5,524.4,5232,right
7,2,binary,14,2,fixationCross,13886546.0,13888096.0,1550.0,64,R,13885876,13886238,364,1205.3,469.9,5502,right
7,2,binary,14,2,trial,13886546.0,13888096.0,1550.0,64,R,13886276,13886708,434,964.0,515.9,5527,NA
7,2,binary,14,2,trial,13886546.0,13888096.0,1550.0,64,R,13886756,13887064,310,1456.5,467.9,5336,right
7,2,binary,14,2,trial,13886546.0,13888096.0,1550.0,64,R,13887088,13887354,268,1470.2,388.0,5084,right
7,2,binary,14,2,trial,13886546.0,13888096.0,1550.0,64,R,13887432,13887688,258,447.5,602.2,5032,left
7,2,binary,14,2,trial,13886546.0,13888096.0,1550.0,64,R,13887758,13888044,288,1329.1,1026.1,5172,NA
7,2,binary,14,2,trial,13886546.0,13888096.0,1550.0,64,R,13888124,13888328,206,1492.3,445.0,5318,right
7,2,binary,15,1,fixationCross,13889246.0,13890363.0,1117.0,65,R,13888506,13888778,274,1515.2,404.5,5689,right
7,2,binary,15,1,fixationCross,13889246.0,13890363.0,1117.0,65,R,13888822,13888942,122,1301.4,500.0,5985,right
7,2,binary,15,1,trial,13889246.0,13890363.0,1117.0,65,R,13888986,13889248,264,952.5,539.2,6120,NA
7,2,binary,15,1,trial,13889246.0,13890363.0,1117.0,65,R,13889270,13889448,180,928.9,505.1,6000,NA
7,2,binary,15,1,trial,13889246.0,13890363.0,1117.0,65,R,13889494,13889748,256,1453.8,473.3,5856,right
7,2,binary,15,1,trial,13889246.0,13890363.0,1117.0,65,R,13889828,13890320,494,428.3,565.2,5568,left
7,2,binary,15,1,postResponse,13889246.0,13890363.0,1117.0,65,R,13890340,13890698,360,475.2,506.5,5447,left
7,2,binary,16,2,fixationCross,13892313.0,13893613.0,1300.0,66,R,13890862,13891088,228,550.1,386.2,5474,left
7,2,binary,16,2,fixationCross,13892313.0,13893613.0,1300.0,66,R,13891142,13891814,674,1288.3,449.8,5800,right
7,2,binary,16,2,fixationCross,13892313.0,13893613.0,1300.0,66,R,13891852,13892000,150,1086.5,486.6,5917,NA
7,2,binary,16,2,trial,13892313.0,13893613.0,1300.0,66,R,13892022,13892492,472,966.2,496.6,5994,NA
7,2,binary,16,2,trial,13892313.0,13893613.0,1300.0,66,R,13892546,13892892,348,1388.8,465.8,5905,right
7,2,binary,16,2,trial,13892313.0,13893613.0,1300.0,66,R,13892962,13893310,350,467.7,682.9,5178,left
7,2,binary,16,2,trial,13892313.0,13893613.0,1300.0,66,R,13893388,13893818,432,1546.7,485.5,4846,right
7,2,binary,17,2,fixationCross,13894696.0,13895996.0,1300.0,67,R,13894024,13894378,356,679.5,470.7,4917,left
7,2,binary,17,2,fixationCross,13894696.0,13895996.0,1300.0,67,R,13894416,13894552,138,993.1,535.6,5283,NA
7,2,binary,17,2,trial,13894696.0,13895996.0,1300.0,67,R,13894564,13894854,292,955.0,522.4,5333,NA
7,2,binary,17,2,trial,13894696.0,13895996.0,1300.0,67,R,13894912,13895224,314,401.7,587.0,5138,left
7,2,binary,17,2,trial,13894696.0,13895996.0,1300.0,67,R,13895246,13895336,92,434.5,681.3,4896,left
7,2,binary,17,2,trial,13894696.0,13895996.0,1300.0,67,R,13895410,13896198,790,1452.6,564.5,4744,right
7,2,binary,18,2,fixationCross,13897096.0,13898513.0,1417.0,68,R,13896404,13896442,40,817.5,416.7,4819,NA
7,2,binary,18,2,fixationCross,13897096.0,13898513.0,1417.0,68,R,13896584,13896776,194,658.1,415.0,5003,left
7,2,binary,18,2,trial,13897096.0,13898513.0,1417.0,68,R,13896812,13897144,334,952.2,499.9,5348,NA
7,2,binary,18,2,trial,13897096.0,13898513.0,1417.0,68,R,13897162,13897308,148,1013.4,501.0,5383,NA
7,2,binary,18,2,trial,13897096.0,13898513.0,1417.0,68,R,13897352,13897622,272,1433.3,567.6,5235,right
7,2,binary,18,2,trial,13897096.0,13898513.0,1417.0,68,R,13897696,13898336,642,418.9,573.7,4858,left
7,2,binary,18,2,postResponse,13897096.0,13898513.0,1417.0,68,R,13898420,13898846,428,1559.0,467.4,4877,right
7,2,binary,19,1,fixationCross,13899762.0,13901279.0,1517.0,69,R,13898920,13899076,158,1561.0,468.7,5076,right
7,2,binary,19,1,fixationCross,13899762.0,13901279.0,1517.0,69,R,13899236,13899460,226,734.0,453.5,5408,left
7,2,binary,19,1,fixationCross,13899762.0,13901279.0,1517.0,69,R,13899494,13899694,202,989.0,519.1,5596,NA
7,2,binary,19,1,trial,13899762.0,13901279.0,1517.0,69,R,13899708,13899910,204,947.0,505.5,5600,NA
7,2,binary,19,1,trial,13899762.0,13901279.0,1517.0,69,R,13899952,13900226,276,572.0,527.8,5372,left
7,2,binary,19,1,trial,13899762.0,13901279.0,1517.0,69,R,13900296,13900696,402,1472.0,504.9,4690,right
7,2,binary,19,1,trial,13899762.0,13901279.0,1517.0,69,R,13900784,13901112,330,339.1,598.8,4530,left
7,2,binary,19,1,trial,13899762.0,13901279.0,1517.0,69,R,13901136,13901480,346,426.9,520.3,4596,left
7,2,binary,20,1,fixationCross,13902496.0,13904030.0,1534.0,70,R,13901712,13901938,228,655.3,463.1,4769,left
7,2,binary,20,1,fixationCross,13902496.0,13904030.0,1534.0,70,R,13901958,13902166,210,538.0,489.0,5032,left
7,2,binary,20,1,fixationCross,13902496.0,13904030.0,1534.0,70,R,13902210,13902364,156,991.8,507.0,5246,NA
7,2,binary,20,1,trial,13902496.0,13904030.0,1534.0,70,R,13902376,13902656,282,959.8,515.4,5351,NA
7,2,binary,20,1,trial,13902496.0,13904030.0,1534.0,70,R,13902702,13903386,686,1356.7,541.6,5373,right
7,2,binary,20,1,trial,13902496.0,13904030.0,1534.0,70,R,13903468,13904022,556,522.9,560.0,4967,left
7,2,binary,20,1,trial,13902496.0,13904030.0,1534.0,70,R,13904046,13904254,210,416.3,531.8,4711,left
7,2,binary,21,2,fixationCross,13905146.0,13906596.0,1450.0,71,R,13904462,13904844,384,675.8,501.4,4737,left
7,2,binary,21,2,trial,13905146.0,13906596.0,1450.0,71,R,13904882,13905290,410,964.4,527.0,4919,NA
7,2,binary,21,2,trial,13905146.0,13906596.0,1450.0,71,R,13905330,13905550,222,1279.2,458.7,4780,right
7,2,binary,21,2,trial,13905146.0,13906596.0,1450.0,71,R,13905620,13905792,174,374.1,552.5,4542,left
7,2,binary,21,2,trial,13905146.0,13906596.0,1450.0,71,R,13905816,13906074,260,250.6,537.4,4419,left
7,2,binary,21,2,trial,13905146.0,13906596.0,1450.0,71,R,13906114,13906284,172,618.0,447.5,4399,left
7,2,binary,21,2,trial,13905146.0,13906596.0,1450.0,71,R,13906352,13906594,244,1411.4,536.1,4420,right
7,2,binary,21,2,trial,13905146.0,13906596.0,1450.0,71,R,13906620,13906814,196,1276.6,421.9,4430,right
7,2,binary,22,2,fixationCross,13907646.0,13909147.0,1501.0,72,R,13907010,13907310,302,1725.3,432.5,4583,NA
7,2,binary,22,2,fixationCross,13907646.0,13909147.0,1501.0,72,R,13907372,13907520,150,900.1,495.0,4867,NA
7,2,binary,22,2,trial,13907646.0,13909147.0,1501.0,72,R,13907538,13907680,144,967.0,517.9,4955,NA
7,2,binary,22,2,trial,13907646.0,13909147.0,1501.0,72,R,13907694,13907960,268,920.3,509.9,4951,NA
7,2,binary,22,2,trial,13907646.0,13909147.0,1501.0,72,R,13907994,13908256,264,561.5,574.3,4681,left
7,2,binary,22,2,trial,13907646.0,13909147.0,1501.0,72,R,13908322,13909068,748,1339.6,515.4,4209,right
7,2,binary,22,2,trial,13907646.0,13909147.0,1501.0,72,R,13909102,13909320,220,1594.6,596.7,4016,right
7,2,binary,23,1,fixationCross,13910246.0,13911663.0,1417.0,73,R,13909592,13909738,148,932.2,423.3,4185,NA
7,2,binary,23,1,fixationCross,13910246.0,13911663.0,1417.0,73,R,13909778,13909924,148,650.5,506.1,4382,left
7,2,binary,23,1,fixationCross,13910246.0,13911663.0,1417.0,73,R,13909964,13910096,134,951.0,555.0,4598,NA
7,2,binary,23,1,trial,13910246.0,13911663.0,1417.0,73,R,13910110,13910396,288,929.3,516.3,4766,NA
7,2,binary,23,1,trial,13910246.0,13911663.0,1417.0,73,R,13910444,13910728,286,527.7,502.1,4791,left
7,2,binary,23,1,trial,13910246.0,13911663.0,1417.0,73,R,13910752,13910904,154,400.1,490.3,4529,left
7,2,binary,23,1,trial,13910246.0,13911663.0,1417.0,73,R,13910988,13911380,394,1507.7,478.0,4371,right
7,2,binary,23,1,trial,13910246.0,13911663.0,1417.0,73,R,13911468,13911906,440,419.2,544.8,4331,left
7,2,binary,24,1,fixationCross,13912896.0,13914713.0,1817.0,74,R,13912080,13912088,10,1705.0,439.7,4263,NA
7,2,binary,24,1,fixationCross,13912896.0,13914713.0,1817.0,74,R,13912094,13912300,208,1639.9,444.6,4327,right
7,2,binary,24,1,fixationCross,13912896.0,13914713.0,1817.0,74,R,13912452,13912480,30,526.9,489.5,4527,left
7,2,binary,24,1,fixationCross,13912896.0,13914713.0,1817.0,74,R,13912494,13912522,30,623.1,546.5,4593,left
7,2,binary,24,1,fixationCross,13912896.0,13914713.0,1817.0,74,R,13912534,13912590,58,743.4,526.1,4664,NA
7,2,binary,24,1,fixationCross,13912896.0,13914713.0,1817.0,74,R,13912616,13912880,266,901.4,502.1,4873,NA
7,2,binary,24,1,trial,13912896.0,13914713.0,1817.0,74,R,13912916,13913138,224,611.9,503.6,5010,left
7,2,binary,24,1,trial,13912896.0,13914713.0,1817.0,74,R,13913162,13913538,378,438.3,559.8,4722,left
7,2,binary,24,1,trial,13912896.0,13914713.0,1817.0,74,R,13913612,13913902,292,1416.9,510.3,4332,right
7,2,binary,24,1,trial,13912896.0,13914713.0,1817.0,74,R,13913926,13914280,356,1442.3,444.4,4290,right
7,2,binary,24,1,trial,13912896.0,13914713.0,1817.0,74,R,13914356,13914642,288,442.9,587.6,4412,left
7,2,binary,24,1,trial,13912896.0,13914713.0,1817.0,74,R,13914664,13914942,280,363.2,545.0,4489,left
7,2,binary,25,1,fixationCross,13915846.0,13917480.0,1634.0,75,R,13915478,13915594,118,997.9,426.6,4934,NA
7,2,binary,25,1,fixationCross,13915846.0,13917480.0,1634.0,75,R,13915618,13915792,176,899.6,538.7,5123,NA
7,2,binary,25,1,trial,13915846.0,13917480.0,1634.0,75,R,13915808,13915988,182,971.0,534.5,5190,NA
7,2,binary,25,1,trial,13915846.0,13917480.0,1634.0,75,R,13916038,13916386,350,444.9,505.1,4973,left
7,2,binary,25,1,trial,13915846.0,13917480.0,1634.0,75,R,13916460,13916768,310,1430.1,539.2,4477,right
7,2,binary,25,1,trial,13915846.0,13917480.0,1634.0,75,R,13916788,13916986,200,1449.9,610.4,4379,right
7,2,binary,25,1,trial,13915846.0,13917480.0,1634.0,75,R,13917064,13917426,364,448.0,435.4,4517,left
7,2,binary,25,1,trial,13915846.0,13917480.0,1634.0,75,R,13917474,13917770,298,372.5,1055.4,4617,NA
7,2,binary,26,2,fixationCross,13957680.0,13959197.0,1517.0,76,R,13957332,13957364,34,1234.7,738.4,5601,NA
7,2,binary,26,2,fixationCross,13957680.0,13959197.0,1517.0,76,R,13957422,13957558,138,1008.9,507.4,5719,NA
7,2,binary,26,2,trial,13957680.0,13959197.0,1517.0,76,R,13957574,13957732,160,977.2,489.3,5850,NA
7,2,binary,26,2,trial,13957680.0,13959197.0,1517.0,76,R,13957886,13958038,154,1023.6,423.3,5942,NA
7,2,binary,26,2,trial,13957680.0,13959197.0,1517.0,76,R,13958086,13958566,482,550.0,591.8,5815,left
7,2,binary,26,2,trial,13957680.0,13959197.0,1517.0,76,R,13958648,13958888,242,1477.3,472.2,5671,right
7,2,binary,26,2,trial,13957680.0,13959197.0,1517.0,76,R,13958928,13959378,452,1393.6,670.2,5668,right
7,2,binary,27,1,fixationCross,13960280.0,13961297.0,1017.0,77,R,13959608,13959700,94,1446.5,330.8,5582,NA
7,2,binary,27,1,fixationCross,13960280.0,13961297.0,1017.0,77,R,13959860,13960006,148,1097.2,401.8,5843,NA
7,2,binary,27,1,trial,13960280.0,13961297.0,1017.0,77,R,13960036,13960428,394,976.3,528.0,6145,NA
7,2,binary,27,1,trial,13960280.0,13961297.0,1017.0,77,R,13960478,13961076,600,531.1,505.7,5799,left
7,2,binary,27,1,trial,13960280.0,13961297.0,1017.0,77,R,13961150,13961478,330,1519.8,523.3,5346,right
7,2,binary,28,2,fixationCross,13962497.0,13963364.0,867.0,78,R,13961706,13962022,318,817.5,471.0,5604,NA
7,2,binary,28,2,fixationCross,13962497.0,13963364.0,867.0,78,R,13962040,13962190,152,777.3,482.9,5934,NA
7,2,binary,28,2,trial,13962497.0,13963364.0,867.0,78,R,13962224,13962646,424,976.7,535.9,6117,NA
7,2,binary,28,2,trial,13962497.0,13963364.0,867.0,78,R,13962696,13962850,156,527.1,500.0,6084,left
7,2,binary,28,2,trial,13962497.0,13963364.0,867.0,78,R,13962926,13963350,426,1460.9,505.1,5881,right
7,2,binary,28,2,trial,13962497.0,13963364.0,867.0,78,R,13963380,13963530,152,1603.3,505.7,5708,right
7,2,binary,29,2,fixationCross,13964464.0,13965597.0,1133.0,79,R,13963788,13963946,160,1548.1,492.9,5658,right
7,2,binary,29,2,fixationCross,13964464.0,13965597.0,1133.0,79,R,13963974,13964144,172,1387.4,520.6,5842,right
7,2,binary,29,2,fixationCross,13964464.0,13965597.0,1133.0,79,R,13964192,13964330,140,921.4,539.0,6011,NA
7,2,binary,29,2,trial,13964464.0,13965597.0,1133.0,79,R,13964346,13964698,354,990.5,531.0,6004,NA
7,2,binary,29,2,trial,13964464.0,13965597.0,1133.0,79,R,13964750,13964978,230,1462.7,450.6,5775,right
7,2,binary,29,2,trial,13964464.0,13965597.0,1133.0,79,R,13965016,13965038,24,1458.2,456.9,5532,right
7,2,binary,29,2,trial,13964464.0,13965597.0,1133.0,79,R,13965104,13965472,370,1411.9,463.8,5217,right
7,2,binary,29,2,trial,13964464.0,13965597.0,1133.0,79,R,13965546,13965810,266,451.8,518.8,4872,left
7,2,binary,30,1,fixationCross,13966647.0,13967664.0,1017.0,80,R,13966014,13966144,132,1205.9,538.0,4791,right
7,2,binary,30,1,fixationCross,13966647.0,13967664.0,1017.0,80,R,13966168,13966348,182,1318.6,541.8,4868,right
7,2,binary,30,1,fixationCross,13966647.0,13967664.0,1017.0,80,R,13966394,13966536,144,904.3,522.9,5020,NA
7,2,binary,30,1,trial,13966647.0,13967664.0,1017.0,80,R,13966552,13966808,258,980.3,515.4,5140,NA
7,2,binary,30,1,trial,13966647.0,13967664.0,1017.0,80,R,13966854,13967122,270,502.6,510.0,5106,left
7,2,binary,30,1,trial,13966647.0,13967664.0,1017.0,80,R,13967196,13967428,234,1555.7,490.9,4823,right
7,2,binary,30,1,trial,13966647.0,13967664.0,1017.0,80,R,13967450,13967870,422,1497.7,418.7,4568,right
7,2,binary,31,1,fixationCross,13968747.0,13969731.0,984.0,81,R,13968102,13968448,348,687.6,492.4,4479,left
7,2,binary,31,1,fixationCross,13968747.0,13969731.0,984.0,81,R,13968472,13968606,136,965.6,539.3,4653,NA
7,2,binary,31,1,trial,13968747.0,13969731.0,984.0,81,R,13968620,13968886,268,927.6,532.5,4746,NA
7,2,binary,31,1,trial,13968747.0,13969731.0,984.0,81,R,13968932,13969232,302,489.8,532.2,4736,left
7,2,binary,31,1,trial,13968747.0,13969731.0,984.0,81,R,13969306,13969536,232,1513.3,485.8,4481,right
7,2,binary,31,1,trial,13968747.0,13969731.0,984.0,81,R,13969560,13969776,218,1632.1,440.2,4256,right
7,2,binary,31,1,trial,13968747.0,13969731.0,984.0,81,R,13969818,13969946,130,1227.1,506.4,4202,right
7,2,binary,32,1,fixationCross,13970880.0,13971897.0,1017.0,82,R,13970144,13970358,216,790.4,480.8,4208,NA
7,2,binary,32,1,fixationCross,13970880.0,13971897.0,1017.0,82,R,13970558,13970746,190,1074.9,499.5,4595,NA
7,2,binary,32,1,trial,13970880.0,13971897.0,1017.0,82,R,13970758,13970948,192,985.6,496.7,4783,NA
7,2,binary,32,1,trial,13970880.0,13971897.0,1017.0,82,R,13970962,13971112,152,947.7,491.6,4896,NA
7,2,binary,32,1,trial,13970880.0,13971897.0,1017.0,82,R,13971158,13971364,208,1494.2,498.1,4825,right
7,2,binary,32,1,trial,13970880.0,13971897.0,1017.0,82,R,13971440,13972036,598,422.9,553.3,4436,left
7,2,binary,33,1,fixationCross,13973030.0,13974698.0,1668.0,83,R,13972348,13972398,52,1717.3,391.3,4212,NA
7,2,binary,33,1,fixationCross,13973030.0,13974698.0,1668.0,83,R,13972408,13972628,222,1672.8,390.5,4309,right
7,2,binary,33,1,fixationCross,13973030.0,13974698.0,1668.0,83,R,13972716,13972886,172,1011.7,471.5,4616,NA
7,2,binary,33,1,trial,13973030.0,13974698.0,1668.0,83,R,13972906,13973114,210,926.8,507.0,4762,NA
7,2,binary,33,1,trial,13973030.0,13974698.0,1668.0,83,R,13973128,13973236,110,948.2,480.1,4859,NA
7,2,binary,33,1,trial,13973030.0,13974698.0,1668.0,83,R,13973282,13973704,424,472.3,614.2,4702,left
7,2,binary,33,1,trial,13973030.0,13974698.0,1668.0,83,R,13973782,13974170,390,1457.3,561.8,4350,right
7,2,binary,33,1,trial,13973030.0,13974698.0,1668.0,83,R,13974242,13974254,14,1065.0,592.7,4171,NA
7,2,binary,33,1,trial,13973030.0,13974698.0,1668.0,83,R,13974444,13974632,190,370.9,756.5,4208,NA
7,2,binary,33,1,trial,13973030.0,13974698.0,1668.0,83,R,13974650,13974762,114,415.4,628.2,4242,left
7,2,binary,33,1,trial,13973030.0,13974698.0,1668.0,83,R,13974778,13974854,78,483.4,557.8,4284,left
7,2,binary,34,2,fixationCross,13975864.0,13977364.0,1500.0,84,R,13975220,13975244,26,1743.9,441.1,4258,NA
7,2,binary,34,2,fixationCross,13975864.0,13977364.0,1500.0,84,R,13975368,13975544,178,854.5,453.1,4664,NA
7,2,binary,34,2,fixationCross,13975864.0,13977364.0,1500.0,84,R,13975566,13975636,72,877.1,506.9,4770,NA
7,2,binary,34,2,fixationCross,13975864.0,13977364.0,1500.0,84,R,13975694,13975746,54,931.3,509.4,4821,NA
7,2,binary,34,2,trial,13975864.0,13977364.0,1500.0,84,R,13975768,13975936,170,897.8,515.9,4851,NA
7,2,binary,34,2,trial,13975864.0,13977364.0,1500.0,84,R,13975952,13976116,166,950.9,501.8,4849,NA
7,2,binary,34,2,trial,13975864.0,13977364.0,1500.0,84,R,13976164,13976416,254,1481.2,528.0,4723,right
7,2,binary,34,2,trial,13975864.0,13977364.0,1500.0,84,R,13976498,13976900,404,407.8,571.7,4522,left
7,2,binary,34,2,trial,13975864.0,13977364.0,1500.0,84,R,13976984,13977560,578,1545.2,470.3,4535,right
7,2,binary,35,1,fixationCross,13978414.0,13979714.0,1300.0,85,R,13977780,13978100,322,1387.1,387.5,4908,right
7,2,binary,35,1,fixationCross,13978414.0,13979714.0,1300.0,85,R,13978150,13978266,118,927.8,592.9,5248,NA
7,2,binary,35,1,trial,13978414.0,13979714.0,1300.0,85,R,13978286,13978446,162,979.5,526.4,5445,NA
7,2,binary,35,1,trial,13978414.0,13979714.0,1300.0,85,R,13978458,13978604,148,957.8,512.0,5613,NA
7,2,binary,35,1,trial,13978414.0,13979714.0,1300.0,85,R,13978668,13978874,208,369.8,461.9,5578,left
7,2,binary,35,1,trial,13978414.0,13979714.0,1300.0,85,R,13978894,13979152,260,358.8,419.4,5297,left
7,2,binary,35,1,trial,13978414.0,13979714.0,1300.0,85,R,13979236,13979996,762,1428.8,497.5,5141,right
7,2,binary,36,2,fixationCross,13980647.0,13982081.0,1434.0,86,R,13980156,13980342,188,1146.6,447.8,5683,NA
7,2,binary,36,2,fixationCross,13980647.0,13982081.0,1434.0,86,R,13980366,13980548,184,971.5,477.3,5899,NA
7,2,binary,36,2,trial,13980647.0,13982081.0,1434.0,86,R,13980566,13980682,118,1000.5,530.1,6031,NA
7,2,binary,36,2,trial,13980647.0,13982081.0,1434.0,86,R,13980696,13980820,126,973.2,507.4,6089,NA
7,2,binary,36,2,trial,13980647.0,13982081.0,1434.0,86,R,13980870,13981156,288,479.2,527.4,5862,left
7,2,binary,36,2,trial,13980647.0,13982081.0,1434.0,86,R,13981226,13982242,1018,1442.5,438.6,5257,right
7,2,binary,37,2,fixationCross,13983147.0,13984414.0,1267.0,87,R,13982688,13982842,156,1241.5,462.1,5838,right
7,2,binary,37,2,trial,13983147.0,13984414.0,1267.0,87,R,13982884,13983326,444,959.5,524.5,6060,NA
7,2,binary,37,2,trial,13983147.0,13984414.0,1267.0,87,R,13983374,13983632,260,1425.0,471.3,5712,right
7,2,binary,37,2,trial,13983147.0,13984414.0,1267.0,87,R,13983720,13983952,234,397.4,506.7,5179,left
7,2,binary,37,2,trial,13983147.0,13984414.0,1267.0,87,R,13983984,13984332,350,377.6,444.5,4962,left
7,2,binary,37,2,trial,13983147.0,13984414.0,1267.0,87,R,13984414,13984618,206,1480.5,506.0,4892,right
7,2,binary,38,2,fixationCross,13985481.0,13986514.0,1033.0,88,R,13984820,13985136,318,1477.9,432.9,5037,right
7,2,binary,38,2,fixationCross,13985481.0,13986514.0,1033.0,88,R,13985186,13985330,146,909.1,549.5,5411,NA
7,2,binary,38,2,trial,13985481.0,13986514.0,1033.0,88,R,13985352,13985662,312,971.0,503.7,5589,NA
7,2,binary,38,2,trial,13985481.0,13986514.0,1033.0,88,R,13985716,13986006,292,457.7,605.1,5411,left
7,2,binary,38,2,trial,13985481.0,13986514.0,1033.0,88,R,13986080,13986430,352,1407.0,619.6,4814,right
7,2,binary,38,2,trial,13985481.0,13986514.0,1033.0,88,R,13986460,13986724,266,1315.1,480.0,4458,right
7,2,binary,39,2,fixationCross,13987597.0,13988614.0,1017.0,89,R,13986928,13987284,358,1399.2,458.3,4284,right
7,2,binary,39,2,fixationCross,13987597.0,13988614.0,1017.0,89,R,13987332,13987530,200,899.2,554.3,4402,NA
7,2,binary,39,2,trial,13987597.0,13988614.0,1017.0,89,R,13987546,13987758,214,934.7,513.4,4508,NA
7,2,binary,39,2,trial,13987597.0,13988614.0,1017.0,89,R,13987812,13988072,262,431.6,532.9,4584,left
7,2,binary,39,2,trial,13987597.0,13988614.0,1017.0,89,R,13988138,13988418,282,1380.3,506.3,4562,right
7,2,binary,39,2,trial,13987597.0,13988614.0,1017.0,89,R,13988446,13988796,352,1247.1,391.4,4503,right
7,2,binary,40,2,fixationCross,13989714.0,13991047.0,1333.0,90,R,13989122,13989260,140,1252.9,453.4,4615,right
7,2,binary,40,2,fixationCross,13989714.0,13991047.0,1333.0,90,R,13989276,13989384,110,1332.8,460.1,4759,right
7,2,binary,40,2,fixationCross,13989714.0,13991047.0,1333.0,90,R,13989434,13989494,62,880.6,513.7,4871,NA
7,2,binary,40,2,fixationCross,13989714.0,13991047.0,1333.0,90,R,13989516,13989560,46,984.1,489.8,4925,NA
7,2,binary,40,2,fixationCross,13989714.0,13991047.0,1333.0,90,R,13989572,13989672,102,1066.1,503.9,4974,NA
7,2,binary,40,2,trial,13989714.0,13991047.0,1333.0,90,R,13989688,13989880,194,1005.1,486.6,4950,NA
7,2,binary,40,2,trial,13989714.0,13991047.0,1333.0,90,R,13989924,13990058,136,1190.4,468.5,4917,right
7,2,binary,40,2,trial,13989714.0,13991047.0,1333.0,90,R,13990102,13990316,216,1499.9,525.4,4703,right
7,2,binary,40,2,trial,13989714.0,13991047.0,1333.0,90,R,13990406,13990670,266,442.5,556.3,4392,left
7,2,binary,40,2,trial,13989714.0,13991047.0,1333.0,90,R,13990698,13991294,598,414.9,454.1,4130,left
7,2,binary,41,1,fixationCross,13992247.0,13993414.0,1167.0,91,R,13991542,13991642,102,1541.0,459.1,4134,right
7,2,binary,41,1,trial,13992247.0,13993414.0,1167.0,91,R,13991944,13992400,458,939.5,504.5,4851,NA
7,2,binary,41,1,trial,13992247.0,13993414.0,1167.0,91,R,13992452,13992752,302,476.0,496.6,4846,left
7,2,binary,41,1,trial,13992247.0,13993414.0,1167.0,91,R,13992834,13993164,332,1490.2,464.5,4287,right
7,2,binary,41,1,trial,13992247.0,13993414.0,1167.0,91,R,13993192,13993656,466,1330.2,545.3,4204,right
7,2,binary,42,2,fixationCross,13994613.0,13995564.0,951.0,92,R,13993866,13994146,282,698.3,437.7,4507,left
7,2,binary,42,2,fixationCross,13994613.0,13995564.0,951.0,92,R,13994164,13994310,148,737.2,439.3,4782,NA
7,2,binary,42,2,fixationCross,13994613.0,13995564.0,951.0,92,R,13994344,13994582,240,965.3,529.4,5059,NA
7,2,binary,42,2,trial,13994613.0,13995564.0,951.0,92,R,13994598,13994762,166,881.9,487.2,5120,NA
7,2,binary,42,2,trial,13994613.0,13995564.0,951.0,92,R,13994804,13995106,304,431.9,483.0,4909,left
7,2,binary,42,2,trial,13994613.0,13995564.0,951.0,92,R,13995188,13995370,184,1500.0,441.7,4579,right
7,2,binary,42,2,trial,13994613.0,13995564.0,951.0,92,R,13995386,13995542,158,1458.2,417.8,4457,right
7,2,binary,42,2,trial,13994613.0,13995564.0,951.0,92,R,13995554,13995748,196,1493.9,401.8,4394,right
7,2,binary,43,1,fixationCross,13997014.0,13998130.0,1116.0,93,R,13996490,13996530,42,670.5,503.8,4700,left
7,2,binary,43,1,fixationCross,13997014.0,13998130.0,1116.0,93,R,13996560,13996676,118,770.7,452.7,4905,NA
7,2,binary,43,1,fixationCross,13997014.0,13998130.0,1116.0,93,R,13996714,13996968,256,916.7,484.8,5003,NA
7,2,binary,43,1,trial,13997014.0,13998130.0,1116.0,93,R,13997148,13997258,112,919.7,468.8,5032,NA
7,2,binary,43,1,trial,13997014.0,13998130.0,1116.0,93,R,13997316,13997722,408,434.4,539.9,4966,left
7,2,binary,43,1,trial,13997014.0,13998130.0,1116.0,93,R,13997748,13997996,250,461.1,452.8,4707,left
7,2,binary,43,1,trial,13997014.0,13998130.0,1116.0,93,R,13998112,13998174,64,1534.7,481.3,4732,right
7,2,binary,43,1,trial,13997014.0,13998130.0,1116.0,93,R,13998250,13998324,76,1539.9,480.9,4756,right
7,2,binary,44,1,fixationCross,13999264.0,14000748.0,1484.0,94,R,13998888,13998920,34,1382.0,374.2,5203,right
7,2,binary,44,1,fixationCross,13999264.0,14000748.0,1484.0,94,R,13999016,13999148,134,912.7,500.9,5352,NA
7,2,binary,44,1,fixationCross,13999264.0,14000748.0,1484.0,94,R,13999160,13999224,66,972.9,496.7,5406,NA
7,2,binary,44,1,trial,13999264.0,14000748.0,1484.0,94,R,13999320,13999430,112,937.8,508.4,5433,NA
7,2,binary,44,1,trial,13999264.0,14000748.0,1484.0,94,R,13999474,13999864,392,532.4,576.7,5194,left
7,2,binary,44,1,trial,13999264.0,14000748.0,1484.0,94,R,13999942,14000108,168,1455.3,457.6,4826,right
7,2,binary,44,1,trial,13999264.0,14000748.0,1484.0,94,R,14000272,14000390,120,1458.0,459.2,4876,right
7,2,binary,44,1,trial,13999264.0,14000748.0,1484.0,94,R,14000474,14000942,470,601.6,588.4,5315,left
7,2,binary,45,2,fixationCross,14001947.0,14002980.0,1033.0,95,R,14001290,14001328,40,1733.5,342.0,5781,NA
7,2,binary,45,2,fixationCross,14001947.0,14002980.0,1033.0,95,R,14001424,14001536,114,1837.1,382.3,5808,NA
7,2,binary,45,2,fixationCross,14001947.0,14002980.0,1033.0,95,R,14001738,14001744,8,958.7,508.3,5986,NA
7,2,binary,45,2,fixationCross,14001947.0,14002980.0,1033.0,95,R,14001828,14001924,98,1005.2,500.6,5944,NA
7,2,binary,45,2,trial,14001947.0,14002980.0,1033.0,95,R,14002002,14002114,114,976.0,488.6,5807,NA
7,2,binary,45,2,trial,14001947.0,14002980.0,1033.0,95,R,14002158,14002502,346,569.3,422.4,5463,left
7,2,binary,45,2,trial,14001947.0,14002980.0,1033.0,95,R,14002572,14002984,414,1462.7,511.6,4927,right
7,2,binary,45,2,trial,14001947.0,14002980.0,1033.0,95,R,14003086,14003182,98,1501.3,498.8,4721,right
7,2,binary,46,1,fixationCross,14004114.0,14005314.0,1200.0,96,R,14003670,14003702,34,1208.9,480.2,4736,right
7,2,binary,46,1,fixationCross,14004114.0,14005314.0,1200.0,96,R,14003724,14003776,54,1235.8,451.2,4840,right
7,2,binary,46,1,fixationCross,14004114.0,14005314.0,1200.0,96,R,14003816,14004104,290,912.5,500.3,5079,NA
7,2,binary,46,1,trial,14004114.0,14005314.0,1200.0,96,R,14004118,14004274,158,898.3,487.8,5235,NA
7,2,binary,46,1,trial,14004114.0,14005314.0,1200.0,96,R,14004286,14004348,64,896.0,469.1,5285,NA
7,2,binary,46,1,trial,14004114.0,14005314.0,1200.0,96,R,14004398,14004818,422,475.0,532.9,4960,left
7,2,binary,46,1,trial,14004114.0,14005314.0,1200.0,96,R,14004892,14005032,142,1442.9,463.7,4551,right
7,2,binary,46,1,trial,14004114.0,14005314.0,1200.0,96,R,14005140,14005194,56,1460.4,461.4,4353,right
7,2,binary,46,1,trial,14004114.0,14005314.0,1200.0,96,R,14005288,14005328,42,1472.0,461.8,4262,right
7,2,binary,46,1,trial,14004114.0,14005314.0,1200.0,96,R,14005384,14005426,44,1483.2,463.1,4214,right
7,2,binary,47,1,fixationCross,14006680.0,14007781.0,1101.0,97,R,14005728,14006374,648,837.7,362.8,4392,NA
7,2,binary,47,1,fixationCross,14006680.0,14007781.0,1101.0,97,R,14006406,14006534,130,953.1,531.5,4750,NA
7,2,binary,47,1,fixationCross,14006680.0,14007781.0,1101.0,97,R,14006558,14006644,88,950.3,520.8,4839,NA
7,2,binary,47,1,trial,14006680.0,14007781.0,1101.0,97,R,14006670,14006844,176,899.3,460.3,4885,NA
7,2,binary,47,1,trial,14006680.0,14007781.0,1101.0,97,R,14006890,14007278,390,443.6,528.0,4799,left
7,2,binary,47,1,trial,14006680.0,14007781.0,1101.0,97,R,14007356,14007962,608,1437.3,484.2,4897,right
7,2,binary,48,1,fixationCross,14009031.0,14010131.0,1100.0,98,R,14008218,14008516,300,492.5,403.5,5006,left
7,2,binary,48,1,fixationCross,14009031.0,14010131.0,1100.0,98,R,14008546,14008716,172,593.3,506.5,5203,left
7,2,binary,48,1,fixationCross,14009031.0,14010131.0,1100.0,98,R,14008758,14008928,172,991.1,529.5,5317,NA
7,2,binary,48,1,trial,14009031.0,14010131.0,1100.0,98,R,14008944,14009176,234,951.3,522.2,5340,NA
7,2,binary,48,1,trial,14009031.0,14010131.0,1100.0,98,R,14009222,14009628,408,525.2,430.2,5336,left
7,2,binary,48,1,trial,14009031.0,14010131.0,1100.0,98,R,14009706,14010212,508,1482.6,510.8,5330,right
7,2,binary,48,1,postResponse,14009031.0,14010131.0,1100.0,98,R,14010424,14010464,42,944.7,387.9,4989,NA
7,2,binary,49,1,fixationCross,14011081.0,14012214.0,1133.0,99,R,14010544,14010782,240,1062.1,416.7,5108,NA
7,2,binary,49,1,fixationCross,14011081.0,14012214.0,1133.0,99,R,14010802,14010988,188,981.0,454.4,5173,NA
7,2,binary,49,1,trial,14011081.0,14012214.0,1133.0,99,R,14011018,14011224,208,943.4,532.8,5277,NA
7,2,binary,49,1,trial,14011081.0,14012214.0,1133.0,99,R,14011272,14011480,210,428.7,530.0,5112,left
7,2,binary,49,1,trial,14011081.0,14012214.0,1133.0,99,R,14011498,14011664,168,446.5,511.6,4752,left
7,2,binary,49,1,trial,14011081.0,14012214.0,1133.0,99,R,14011910,14012452,544,1392.3,429.0,4229,right
7,2,binary,50,2,trial,14013531.0,14014597.0,1066.0,100,R,14012752,14013664,914,801.5,453.9,4436,NA
7,2,binary,50,2,trial,14013531.0,14014597.0,1066.0,100,R,14013712,14013898,188,505.6,484.3,4709,left
7,2,binary,50,2,trial,14013531.0,14014597.0,1066.0,100,R,14013916,14014120,206,550.5,468.1,4622,left
7,2,binary,50,2,trial,14013531.0,14014597.0,1066.0,100,R,14014212,14014334,124,1515.9,468.4,4405,right
7,2,binary,50,2,trial,14013531.0,14014597.0,1066.0,100,R,14014352,14014878,528,1447.3,412.3,4333,right
7,3,valuation,1,5,fixationCross,14106449.0,14109433.0,2984.0,101,R,14105843,14105889,48,1161.0,828.1,7536,likertHorizontal
7,3,valuation,1,5,fixationCross,14106449.0,14109433.0,2984.0,101,R,14105957,14106077,122,992.6,402.1,7385,NA
7,3,valuation,1,5,fixationCross,14106449.0,14109433.0,2984.0,101,R,14106235,14106337,104,980.0,442.2,7344,NA
7,3,valuation,1,5,trial,14106449.0,14109433.0,2984.0,101,R,14106363,14106465,104,1015.5,544.2,7327,NA
7,3,valuation,1,5,trial,14106449.0,14109433.0,2984.0,101,R,14106483,14106699,218,994.8,511.3,7330,NA
7,3,valuation,1,5,trial,14106449.0,14109433.0,2984.0,101,R,14106747,14107001,256,1457.7,525.1,7177,right
7,3,valuation,1,5,trial,14106449.0,14109433.0,2984.0,101,R,14107069,14107345,278,509.9,386.6,6608,likertVertical
7,3,valuation,1,5,trial,14106449.0,14109433.0,2984.0,101,R,14107375,14107557,184,512.4,515.9,6332,likertVertical
7,3,valuation,1,5,trial,14106449.0,14109433.0,2984.0,101,R,14107599,14107917,320,610.1,272.2,6222,likertVertical
7,3,valuation,1,5,trial,14106449.0,14109433.0,2984.0,101,R,14107991,14108577,588,1542.2,590.4,6161,right
7,3,valuation,1,5,trial,14106449.0,14109433.0,2984.0,101,R,14108657,14109007,352,534.6,419.3,5822,likertVertical
7,3,valuation,1,5,trial,14106449.0,14109433.0,2984.0,101,R,14109085,14109285,202,1590.3,607.1,6046,right
7,3,valuation,1,5,trial,14106449.0,14109433.0,2984.0,101,R,14109303,14109647,346,1537.6,568.4,6261,right
7,3,valuation,2,4,fixationCross,14110482.0,14112683.0,2201.0,102,R,14109843,14110033,192,796.4,420.8,6228,NA
7,3,valuation,2,4,fixationCross,14110482.0,14112683.0,2201.0,102,R,14110083,14110253,172,1110.7,489.9,6416,NA
7,3,valuation,2,4,trial,14110482.0,14112683.0,2201.0,102,R,14110281,14110627,348,974.5,529.6,6664,NA
7,3,valuation,2,4,trial,14110482.0,14112683.0,2201.0,102,R,14110671,14111199,530,1464.0,528.4,6488,right
7,3,valuation,2,4,trial,14110482.0,14112683.0,2201.0,102,R,14111219,14111403,186,1547.3,513.2,5896,right
7,3,valuation,2,4,trial,14110482.0,14112683.0,2201.0,102,R,14111485,14111753,270,469.2,463.9,5575,likertVertical
7,3,valuation,2,4,trial,14110482.0,14112683.0,2201.0,102,R,14111771,14111967,198,521.2,514.7,5440,likertVertical
7,3,valuation,2,4,trial,14110482.0,14112683.0,2201.0,102,R,14112045,14112139,96,1560.6,546.5,5547,right
7,3,valuation,2,4,trial,14110482.0,14112683.0,2201.0,102,R,14112161,14112669,510,1560.4,539.0,5681,right
