participantNo,block,task,blockTrial,response,trialStage,trialStartTime,trialFinishTime,rt,trial,eye,fixStart,fixEnd,fixLength,fixPosX,fixPosY,dilation,aoi
61,1,continuous,1,9,fixationCross,27258761.0,27261244.0,2483.0,1,L,27258258,27258742,486,997.9,524.0,6267,NA
61,1,continuous,1,9,trial,27258761.0,27261244.0,2483.0,1,L,27258760,27258958,200,955.1,572.1,6461,NA
61,1,continuous,1,9,trial,27258761.0,27261244.0,2483.0,1,L,27259004,27259226,224,619.6,598.2,6394,left
61,1,continuous,1,9,trial,27258761.0,27261244.0,2483.0,1,L,27259244,27259362,120,623.3,567.6,5817,left
61,1,continuous,1,9,trial,27258761.0,27261244.0,2483.0,1,L,27259422,27259604,184,1441.8,551.1,5321,right
61,1,continuous,1,9,trial,27258761.0,27261244.0,2483.0,1,L,27259618,27259782,166,1487.0,536.1,5037,right
61,1,continuous,1,9,trial,27258761.0,27261244.0,2483.0,1,L,27259834,27259988,156,980.7,989.7,4914,likertHorizontal
61,1,continuous,1,9,trial,27258761.0,27261244.0,2483.0,1,L,27260038,27260438,402,505.8,1027.6,4887,NA
61,1,continuous,1,9,trial,27258761.0,27261244.0,2483.0,1,L,27260486,27260684,200,505.5,586.2,5158,left
61,1,continuous,1,9,trial,27258761.0,27261244.0,2483.0,1,L,27260710,27260874,166,487.2,477.0,5242,left
61,1,continuous,1,9,trial,27258761.0,27261244.0,2483.0,1,L,27260886,27261402,518,480.1,452.3,5209,left
61,1,continuous,1,9,postResponse,27258761.0,27261244.0,2483.0,1,L,27261454,27261628,176,991.3,577.5,5399,NA
61,1,continuous,2,76,fixationCross,27262227.0,27265177.0,2950.0,2,L,27261728,27262158,432,990.8,586.5,5676,NA
61,1,continuous,2,76,trial,27262227.0,27265177.0,2950.0,2,L,27262168,27262378,212,967.9,568.2,6060,NA
61,1,continuous,2,76,trial,27262227.0,27265177.0,2950.0,2,L,27262426,27262570,146,660.7,499.1,6211,left
61,1,continuous,2,76,trial,27262227.0,27265177.0,2950.0,2,L,27262588,27262792,206,578.3,495.5,5767,left
61,1,continuous,2,76,trial,27262227.0,27265177.0,2950.0,2,L,27262818,27263034,218,432.1,536.7,5335,left
61,1,continuous,2,76,trial,27262227.0,27265177.0,2950.0,2,L,27263102,27263354,254,1433.4,551.0,5047,right
61,1,continuous,2,76,trial,27262227.0,27265177.0,2950.0,2,L,27263374,27263864,492,1507.5,538.6,4878,right
61,1,continuous,2,76,trial,27262227.0,27265177.0,2950.0,2,L,27263878,27264568,692,1544.1,536.5,4934,right
61,1,continuous,2,76,trial,27262227.0,27265177.0,2950.0,2,L,27264634,27264788,156,669.6,593.6,5361,left
61,1,continuous,2,76,trial,27262227.0,27265177.0,2950.0,2,L,27264850,27265068,220,1510.9,523.8,5364,right
61,1,continuous,2,76,postResponse,27262227.0,27265177.0,2950.0,2,L,27265086,27265510,426,1598.4,510.1,5178,right
61,1,continuous,3,28,fixationCross,27266394.0,27268511.0,2117.0,3,L,27265624,27266100,478,1061.6,503.6,5634,NA
61,1,continuous,3,28,trial,27266394.0,27268511.0,2117.0,3,L,27266124,27266450,328,938.1,527.6,6089,NA
61,1,continuous,3,28,trial,27266394.0,27268511.0,2117.0,3,L,27266468,27266604,138,1007.7,516.4,6259,NA
61,1,continuous,3,28,trial,27266394.0,27268511.0,2117.0,3,L,27266648,27266850,204,1387.8,508.1,5935,right
61,1,continuous,3,28,trial,27266394.0,27268511.0,2117.0,3,L,27266868,27267080,214,1461.6,520.2,5198,right
61,1,continuous,3,28,trial,27266394.0,27268511.0,2117.0,3,L,27267106,27267198,94,1462.8,663.3,4931,right
61,1,continuous,3,28,trial,27266394.0,27268511.0,2117.0,3,L,27267264,27267644,382,528.5,591.7,4885,left
61,1,continuous,3,28,trial,27266394.0,27268511.0,2117.0,3,L,27267658,27268354,698,553.6,634.9,4827,left
61,1,continuous,3,28,trial,27266394.0,27268511.0,2117.0,3,L,27268380,27268478,100,531.7,753.5,5132,NA
61,1,continuous,3,28,trial,27266394.0,27268511.0,2117.0,3,L,27268520,27268786,268,605.4,544.8,5271,left
61,1,continuous,4,79,trial,27269411.0,27272428.0,3017.0,4,L,27268924,27269560,638,953.6,502.0,5669,NA
61,1,continuous,4,79,trial,27269411.0,27272428.0,3017.0,4,L,27269604,27269924,322,622.7,517.6,5897,left
61,1,continuous,4,79,trial,27269411.0,27272428.0,3017.0,4,L,27269942,27270194,254,646.3,578.0,5435,left
61,1,continuous,4,79,trial,27269411.0,27272428.0,3017.0,4,L,27270218,27270412,196,502.0,589.6,5394,left
61,1,continuous,4,79,trial,27269411.0,27272428.0,3017.0,4,L,27270448,27270516,70,452.4,479.7,5375,left
61,1,continuous,4,79,trial,27269411.0,27272428.0,3017.0,4,L,27270584,27270764,182,1454.2,588.8,5366,right
61,1,continuous,4,79,trial,27269411.0,27272428.0,3017.0,4,L,27270784,27271146,364,1537.5,583.1,5129,right
61,1,continuous,4,79,trial,27269411.0,27272428.0,3017.0,4,L,27271172,27271290,120,1378.4,559.5,4950,right
61,1,continuous,4,79,trial,27269411.0,27272428.0,3017.0,4,L,27271352,27271652,302,520.7,548.7,5040,left
61,1,continuous,4,79,trial,27269411.0,27272428.0,3017.0,4,L,27271662,27271742,82,496.9,540.5,5170,left
61,1,continuous,4,79,trial,27269411.0,27272428.0,3017.0,4,L,27271806,27272094,290,1404.2,573.2,5366,right
61,1,continuous,4,79,trial,27269411.0,27272428.0,3017.0,4,L,27272114,27272326,214,1479.8,584.8,5307,right
61,1,continuous,4,79,postResponse,27269411.0,27272428.0,3017.0,4,L,27272338,27272784,448,1512.4,580.5,5348,right
61,1,continuous,5,95,fixationCross,27273594.0,27275944.0,2350.0,5,L,27273070,27273288,220,1093.3,558.5,5749,NA
61,1,continuous,5,95,trial,27273594.0,27275944.0,2350.0,5,L,27273310,27273744,436,970.6,546.1,6056,NA
61,1,continuous,5,95,trial,27273594.0,27275944.0,2350.0,5,L,27273796,27273954,160,562.8,498.0,6092,left
61,1,continuous,5,95,trial,27273594.0,27275944.0,2350.0,5,L,27273970,27274146,178,518.0,482.5,5520,left
61,1,continuous,5,95,trial,27273594.0,27275944.0,2350.0,5,L,27274160,27274610,452,486.5,455.9,5214,left
61,1,continuous,5,95,trial,27273594.0,27275944.0,2350.0,5,L,27274676,27274872,198,1455.2,510.1,5262,right
61,1,continuous,5,95,trial,27273594.0,27275944.0,2350.0,5,L,27274892,27275070,180,1411.6,464.5,5188,right
61,1,continuous,5,95,trial,27273594.0,27275944.0,2350.0,5,L,27275104,27275312,210,1300.1,682.5,4982,right
61,1,continuous,5,95,trial,27273594.0,27275944.0,2350.0,5,L,27275350,27275720,372,1566.6,765.2,5030,NA
61,1,continuous,5,95,trial,27273594.0,27275944.0,2350.0,5,L,27275758,27275934,178,1369.8,970.2,5436,NA
61,1,continuous,5,95,postResponse,27273594.0,27275944.0,2350.0,5,L,27275984,27276282,300,1314.5,535.0,5504,right
61,1,continuous,6,15,trial,27276861.0,27279744.0,2883.0,6,L,27276432,27277008,578,952.6,536.3,5836,NA
61,1,continuous,6,15,trial,27276861.0,27279744.0,2883.0,6,L,27277056,27277258,204,548.8,494.9,6140,left
61,1,continuous,6,15,trial,27276861.0,27279744.0,2883.0,6,L,27277284,27277578,296,472.2,436.0,5516,left
61,1,continuous,6,15,trial,27276861.0,27279744.0,2883.0,6,L,27277648,27277948,302,1391.3,547.8,5092,right
61,1,continuous,6,15,trial,27276861.0,27279744.0,2883.0,6,L,27277958,27278070,114,1416.6,526.6,5067,right
61,1,continuous,6,15,trial,27276861.0,27279744.0,2883.0,6,L,27278088,27278322,236,1466.5,474.1,5084,right
61,1,continuous,6,15,trial,27276861.0,27279744.0,2883.0,6,L,27278352,27278760,410,1360.8,586.7,5074,right
61,1,continuous,6,15,trial,27276861.0,27279744.0,2883.0,6,L,27278804,27278894,92,1179.2,735.6,5286,likertHorizontal
61,1,continuous,6,15,trial,27276861.0,27279744.0,2883.0,6,L,27278950,27279108,160,557.7,762.4,5474,NA
61,1,continuous,6,15,trial,27276861.0,27279744.0,2883.0,6,L,27279142,27279348,208,476.2,607.8,5377,left
61,1,continuous,6,15,trial,27276861.0,27279744.0,2883.0,6,L,27279374,27279580,208,323.0,609.5,5232,left
61,1,continuous,6,15,postResponse,27276861.0,27279744.0,2883.0,6,L,27279612,27280078,468,490.6,462.4,5268,left
61,1,continuous,7,26,fixationCross,27280744.0,27285160.0,4416.0,7,L,27280362,27280426,66,778.7,511.8,5634,NA
61,1,continuous,7,26,trial,27280744.0,27285160.0,4416.0,7,L,27280448,27280756,310,942.7,523.6,5776,NA
61,1,continuous,7,26,trial,27280744.0,27285160.0,4416.0,7,L,27280772,27280886,116,993.7,557.3,5937,NA
61,1,continuous,7,26,trial,27280744.0,27285160.0,4416.0,7,L,27280932,27281114,184,585.1,551.5,5939,left
61,1,continuous,7,26,trial,27280744.0,27285160.0,4416.0,7,L,27281138,27281282,146,478.7,577.4,5292,left
61,1,continuous,7,26,trial,27280744.0,27285160.0,4416.0,7,L,27281306,27281686,382,471.0,497.1,4779,left
61,1,continuous,7,26,trial,27280744.0,27285160.0,4416.0,7,L,27281704,27281916,214,389.6,535.0,4684,left
61,1,continuous,7,26,trial,27280744.0,27285160.0,4416.0,7,L,27281936,27282148,214,469.3,504.2,4785,left
61,1,continuous,7,26,trial,27280744.0,27285160.0,4416.0,7,L,27282164,27282262,100,486.3,487.7,4771,left
61,1,continuous,7,26,trial,27280744.0,27285160.0,4416.0,7,L,27282326,27282516,192,1396.2,563.4,4772,right
61,1,continuous,7,26,trial,27280744.0,27285160.0,4416.0,7,L,27282536,27283810,1276,1493.4,543.7,4644,right
61,1,continuous,7,26,trial,27280744.0,27285160.0,4416.0,7,L,27283826,27284010,186,1524.8,568.2,4459,right
61,1,continuous,7,26,trial,27280744.0,27285160.0,4416.0,7,L,27284032,27284214,184,1579.3,650.3,4436,right
61,1,continuous,7,26,trial,27280744.0,27285160.0,4416.0,7,L,27284226,27284386,162,1582.7,620.2,4507,right
61,1,continuous,7,26,trial,27280744.0,27285160.0,4416.0,7,L,27284458,27285184,728,524.9,589.4,4674,left
61,1,continuous,7,26,postResponse,27280744.0,27285160.0,4416.0,7,L,27285216,27285504,290,506.4,466.4,5117,left
61,1,continuous,8,69,fixationCross,27286227.0,27289028.0,2801.0,8,L,27285734,27285842,110,696.9,487.1,5447,left
61,1,continuous,8,69,fixationCross,27286227.0,27289028.0,2801.0,8,L,27285866,27286086,222,874.3,488.0,5571,NA
61,1,continuous,8,69,trial,27286227.0,27289028.0,2801.0,8,L,27286108,27286378,272,966.8,503.9,5797,NA
61,1,continuous,8,69,trial,27286227.0,27289028.0,2801.0,8,L,27286424,27286598,176,590.1,516.2,5892,left
61,1,continuous,8,69,trial,27286227.0,27289028.0,2801.0,8,L,27286626,27286846,222,465.9,571.7,5140,left
61,1,continuous,8,69,trial,27286227.0,27289028.0,2801.0,8,L,27286866,27287034,170,434.0,511.4,4691,left
61,1,continuous,8,69,trial,27286227.0,27289028.0,2801.0,8,L,27287100,27287334,236,1423.9,548.6,4396,right
61,1,continuous,8,69,trial,27286227.0,27289028.0,2801.0,8,L,27287356,27287506,152,1500.9,510.4,4222,right
61,1,continuous,8,69,trial,27286227.0,27289028.0,2801.0,8,L,27287532,27287854,324,1330.5,600.8,4193,right
61,1,continuous,8,69,trial,27286227.0,27289028.0,2801.0,8,L,27287918,27288110,194,503.3,522.8,4337,left
61,1,continuous,8,69,trial,27286227.0,27289028.0,2801.0,8,L,27288138,27288388,252,369.1,639.6,4560,left
61,1,continuous,8,69,trial,27286227.0,27289028.0,2801.0,8,L,27288406,27288614,210,310.7,673.3,4676,left
61,1,continuous,8,69,trial,27286227.0,27289028.0,2801.0,8,L,27288646,27288870,226,583.3,570.4,4679,left
61,1,continuous,8,69,trial,27286227.0,27289028.0,2801.0,8,L,27288924,27289126,204,1213.6,912.0,4793,NA
61,1,continuous,8,69,trial,27286227.0,27289028.0,2801.0,8,L,27289164,27289290,128,1259.8,625.0,4906,right
61,1,continuous,8,69,postResponse,27286227.0,27289028.0,2801.0,8,L,27289334,27289362,30,948.1,474.4,4916,NA
61,1,continuous,9,81,trial,27289928.0,27293961.0,4033.0,9,L,27289436,27290072,638,954.2,482.6,5307,NA
61,1,continuous,9,81,trial,27289928.0,27293961.0,4033.0,9,L,27290116,27290254,140,619.6,500.1,5716,left
61,1,continuous,9,81,trial,27289928.0,27293961.0,4033.0,9,L,27290282,27290522,242,469.1,557.1,5434,left
61,1,continuous,9,81,trial,27289928.0,27293961.0,4033.0,9,L,27290548,27290758,212,632.1,495.5,5224,left
61,1,continuous,9,81,trial,27289928.0,27293961.0,4033.0,9,L,27290796,27290924,130,436.5,474.1,5065,left
61,1,continuous,9,81,trial,27289928.0,27293961.0,4033.0,9,L,27290940,27291302,364,374.2,482.2,5093,left
61,1,continuous,9,81,trial,27289928.0,27293961.0,4033.0,9,L,27291372,27291554,184,1430.5,491.1,5080,right
61,1,continuous,9,81,trial,27289928.0,27293961.0,4033.0,9,L,27291572,27292618,1048,1445.2,446.2,5529,right
61,1,continuous,9,81,trial,27289928.0,27293961.0,4033.0,9,L,27292646,27292854,210,1475.1,580.5,5845,right
61,1,continuous,9,81,trial,27289928.0,27293961.0,4033.0,9,L,27292878,27293906,1030,1527.8,672.0,5690,right
61,1,continuous,9,81,trial,27289928.0,27293961.0,4033.0,9,L,27293934,27294274,342,1452.3,496.2,5883,right
61,1,continuous,10,1,trial,27294877.0,27297594.0,2717.0,10,L,27294574,27294910,338,982.9,517.3,6043,NA
61,1,continuous,10,1,trial,27294877.0,27297594.0,2717.0,10,L,27294932,27295038,108,859.5,508.3,6219,NA
61,1,continuous,10,1,trial,27294877.0,27297594.0,2717.0,10,L,27295074,27295288,216,574.0,539.8,6132,left
61,1,continuous,10,1,trial,27294877.0,27297594.0,2717.0,10,L,27295310,27295482,174,504.4,515.6,5408,left
61,1,continuous,10,1,trial,27294877.0,27297594.0,2717.0,10,L,27295496,27295612,118,536.3,482.2,5074,left
61,1,continuous,10,1,trial,27294877.0,27297594.0,2717.0,10,L,27295684,27295952,270,1424.4,555.6,4747,right
61,1,continuous,10,1,trial,27294877.0,27297594.0,2717.0,10,L,27295970,27296144,176,1493.9,521.7,4603,right
61,1,continuous,10,1,trial,27294877.0,27297594.0,2717.0,10,L,27296168,27296438,272,1538.5,635.5,4639,right
61,1,continuous,10,1,trial,27294877.0,27297594.0,2717.0,10,L,27296474,27296782,310,1523.0,456.3,4898,right
61,1,continuous,10,1,trial,27294877.0,27297594.0,2717.0,10,L,27296852,27297032,182,542.8,577.2,5090,left
61,1,continuous,10,1,postResponse,27294877.0,27297594.0,2717.0,10,L,27297058,27297928,872,519.3,478.6,5329,left
61,1,continuous,11,85,fixationCross,27298594.0,27301911.0,3317.0,11,L,27298002,27298042,42,517.5,480.3,5593,left
61,1,continuous,11,85,fixationCross,27298594.0,27301911.0,3317.0,11,L,27298072,27298280,210,780.8,480.1,5725,NA
61,1,continuous,11,85,trial,27298594.0,27301911.0,3317.0,11,L,27298302,27298722,422,953.9,497.2,5923,NA
61,1,continuous,11,85,trial,27298594.0,27301911.0,3317.0,11,L,27298768,27298996,230,581.5,482.7,6040,left
61,1,continuous,11,85,trial,27298594.0,27301911.0,3317.0,11,L,27299014,27299694,682,575.9,557.2,4963,left
61,1,continuous,11,85,trial,27298594.0,27301911.0,3317.0,11,L,27299756,27300030,276,1400.3,596.0,4524,right
61,1,continuous,11,85,trial,27298594.0,27301911.0,3317.0,11,L,27300048,27300270,224,1435.2,540.5,4580,right
61,1,continuous,11,85,trial,27298594.0,27301911.0,3317.0,11,L,27300284,27300606,324,1482.9,522.4,4910,right
61,1,continuous,11,85,trial,27298594.0,27301911.0,3317.0,11,L,27300630,27300906,278,1408.1,626.2,5117,right
61,1,continuous,11,85,trial,27298594.0,27301911.0,3317.0,11,L,27300924,27301730,808,1328.6,642.6,5279,right
61,1,continuous,11,85,postResponse,27298594.0,27301911.0,3317.0,11,L,27301754,27302244,492,1421.0,576.3,5463,right
61,1,continuous,12,20,fixationCross,27303094.0,27307161.0,4067.0,12,L,27302488,27302488,2,1052.7,392.3,5878,NA
61,1,continuous,12,20,fixationCross,27303094.0,27307161.0,4067.0,12,L,27302518,27302794,278,1086.2,514.5,5650,NA
61,1,continuous,12,20,trial,27303094.0,27307161.0,4067.0,12,L,27302820,27303218,400,918.1,507.5,5883,NA
61,1,continuous,12,20,trial,27303094.0,27307161.0,4067.0,12,L,27303260,27303518,260,554.9,529.7,5834,left
61,1,continuous,12,20,trial,27303094.0,27307161.0,4067.0,12,L,27303540,27303716,178,484.6,518.6,5180,left
61,1,continuous,12,20,trial,27303094.0,27307161.0,4067.0,12,L,27303784,27304064,282,1462.3,570.5,4808,right
61,1,continuous,12,20,trial,27303094.0,27307161.0,4067.0,12,L,27304084,27304282,200,1511.7,612.8,4799,right
61,1,continuous,12,20,trial,27303094.0,27307161.0,4067.0,12,L,27304294,27304620,328,1506.6,585.8,4877,right
61,1,continuous,12,20,trial,27303094.0,27307161.0,4067.0,12,L,27304646,27304790,146,1396.4,506.6,4777,right
61,1,continuous,12,20,trial,27303094.0,27307161.0,4067.0,12,L,27304808,27305048,242,1374.8,450.3,4764,right
61,1,continuous,12,20,trial,27303094.0,27307161.0,4067.0,12,L,27305064,27305364,302,1381.9,415.5,4959,right
61,1,continuous,12,20,trial,27303094.0,27307161.0,4067.0,12,L,27305432,27305966,536,475.1,531.5,5392,left
61,1,continuous,12,20,trial,27303094.0,27307161.0,4067.0,12,L,27305982,27306210,230,418.3,526.7,5292,left
61,1,continuous,12,20,trial,27303094.0,27307161.0,4067.0,12,L,27306226,27306830,606,502.2,526.8,5389,left
61,1,continuous,12,20,trial,27303094.0,27307161.0,4067.0,12,L,27306852,27307066,216,432.6,575.9,5434,left
61,1,continuous,12,20,postResponse,27303094.0,27307161.0,4067.0,12,L,27307138,27307494,358,1477.5,594.8,5462,right
61,1,continuous,13,25,fixationCross,27308128.0,27311027.0,2899.0,13,L,27307598,27307610,14,756.0,428.4,5422,NA
61,1,continuous,13,25,trial,27308128.0,27311027.0,2899.0,13,L,27307894,27308260,368,946.1,524.5,5771,NA
61,1,continuous,13,25,trial,27308128.0,27311027.0,2899.0,13,L,27308304,27308960,658,656.9,506.4,5333,left
61,1,continuous,13,25,trial,27308128.0,27311027.0,2899.0,13,L,27309016,27309176,162,1375.5,584.6,4539,right
61,1,continuous,13,25,trial,27308128.0,27311027.0,2899.0,13,L,27309200,27309444,246,1488.2,628.8,4534,right
61,1,continuous,13,25,trial,27308128.0,27311027.0,2899.0,13,L,27309466,27309684,220,1601.7,608.5,4538,right
61,1,continuous,13,25,trial,27308128.0,27311027.0,2899.0,13,L,27309700,27309906,208,1666.8,615.4,4671,right
61,1,continuous,13,25,trial,27308128.0,27311027.0,2899.0,13,L,27309944,27310148,206,1382.3,589.7,4755,right
61,1,continuous,13,25,trial,27308128.0,27311027.0,2899.0,13,L,27310208,27310492,286,660.4,519.0,4738,left
61,1,continuous,13,25,trial,27308128.0,27311027.0,2899.0,13,L,27310518,27310942,426,466.2,619.9,4657,left
61,1,continuous,13,25,postResponse,27308128.0,27311027.0,2899.0,13,L,27310970,27311362,394,638.8,521.0,4730,left
61,1,continuous,14,20,fixationCross,27312211.0,27315644.0,3433.0,14,L,27311436,27311466,32,634.7,523.0,5030,left
61,1,continuous,14,20,fixationCross,27312211.0,27315644.0,3433.0,14,L,27311484,27311902,420,742.2,504.7,5362,NA
61,1,continuous,14,20,trial,27312211.0,27315644.0,3433.0,14,L,27311930,27312338,410,978.7,537.3,5780,NA
61,1,continuous,14,20,trial,27312211.0,27315644.0,3433.0,14,L,27312384,27312984,602,622.2,556.8,5414,left
61,1,continuous,14,20,trial,27312211.0,27315644.0,3433.0,14,L,27313048,27313238,192,1518.1,554.6,4781,right
61,1,continuous,14,20,trial,27312211.0,27315644.0,3433.0,14,L,27313252,27313798,548,1506.9,521.2,4865,right
61,1,continuous,14,20,trial,27312211.0,27315644.0,3433.0,14,L,27313820,27314022,204,1415.4,620.6,5144,right
61,1,continuous,14,20,trial,27312211.0,27315644.0,3433.0,14,L,27314054,27314198,146,1661.5,686.8,5260,right
61,1,continuous,14,20,trial,27312211.0,27315644.0,3433.0,14,L,27314274,27314478,206,627.1,601.5,5213,left
61,1,continuous,14,20,trial,27312211.0,27315644.0,3433.0,14,L,27314498,27315098,602,626.1,550.5,4840,left
61,1,continuous,14,20,trial,27312211.0,27315644.0,3433.0,14,L,27315128,27315328,202,431.9,589.8,5036,left
61,1,continuous,14,20,trial,27312211.0,27315644.0,3433.0,14,L,27315348,27315470,124,383.7,625.9,5219,left
61,1,continuous,14,20,trial,27312211.0,27315644.0,3433.0,14,L,27315498,27315706,210,307.0,490.2,5243,left
61,1,continuous,14,20,postResponse,27312211.0,27315644.0,3433.0,14,L,27315728,27315978,252,368.3,574.3,5113,left
61,1,continuous,15,71,fixationCross,27316728.0,27319778.0,3050.0,15,L,27316078,27316168,92,375.3,583.6,5170,left
61,1,continuous,15,71,fixationCross,27316728.0,27319778.0,3050.0,15,L,27316188,27316370,184,497.9,548.4,5351,left
61,1,continuous,15,71,trial,27316728.0,27319778.0,3050.0,15,L,27316410,27316862,454,861.4,533.7,5663,NA
61,1,continuous,15,71,trial,27316728.0,27319778.0,3050.0,15,L,27316906,27317076,172,515.7,519.0,5846,left
61,1,continuous,15,71,trial,27316728.0,27319778.0,3050.0,15,L,27317096,27317356,262,567.8,468.5,5128,left
61,1,continuous,15,71,trial,27316728.0,27319778.0,3050.0,15,L,27317416,27317638,224,1426.2,507.7,4600,right
61,1,continuous,15,71,trial,27316728.0,27319778.0,3050.0,15,L,27317654,27317846,194,1459.5,537.8,4544,right
61,1,continuous,15,71,trial,27316728.0,27319778.0,3050.0,15,L,27317858,27318252,396,1485.6,526.4,4642,right
61,1,continuous,15,71,trial,27316728.0,27319778.0,3050.0,15,L,27318272,27318526,256,1404.6,557.5,4761,right
61,1,continuous,15,71,trial,27316728.0,27319778.0,3050.0,15,L,27318596,27318792,198,452.3,532.7,4789,left
61,1,continuous,15,71,trial,27316728.0,27319778.0,3050.0,15,L,27318816,27319292,478,567.1,451.4,4584,left
61,1,continuous,15,71,postResponse,27316728.0,27319778.0,3050.0,15,L,27319512,27320112,602,1464.9,558.8,4850,right
61,1,continuous,16,24,fixationCross,27320844.0,27323244.0,2400.0,16,L,27320186,27320242,58,1467.9,566.1,4785,right
61,1,continuous,16,24,fixationCross,27320844.0,27323244.0,2400.0,16,L,27320282,27320542,262,1127.1,499.5,5047,NA
61,1,continuous,16,24,trial,27320844.0,27323244.0,2400.0,16,L,27320572,27320978,408,941.6,535.6,5457,NA
61,1,continuous,16,24,trial,27320844.0,27323244.0,2400.0,16,L,27321024,27321174,152,562.4,506.7,5693,left
61,1,continuous,16,24,trial,27320844.0,27323244.0,2400.0,16,L,27321198,27321490,294,559.6,453.1,5149,left
61,1,continuous,16,24,trial,27320844.0,27323244.0,2400.0,16,L,27321560,27321814,256,1550.9,540.5,4860,right
61,1,continuous,16,24,trial,27320844.0,27323244.0,2400.0,16,L,27321836,27322072,238,1425.4,563.7,4807,right
61,1,continuous,16,24,trial,27320844.0,27323244.0,2400.0,16,L,27322092,27322278,188,1504.0,546.9,4832,right
61,1,continuous,16,24,trial,27320844.0,27323244.0,2400.0,16,L,27322366,27323500,1136,560.4,463.0,4910,left
61,1,continuous,17,16,fixationCross,27324294.0,27328045.0,3751.0,17,L,27323692,27323974,284,692.1,468.9,5294,left
61,1,continuous,17,16,trial,27324294.0,27328045.0,3751.0,17,L,27324010,27324424,416,966.4,531.1,5649,NA
61,1,continuous,17,16,trial,27324294.0,27328045.0,3751.0,17,L,27324466,27324608,144,646.7,519.3,5743,left
61,1,continuous,17,16,trial,27324294.0,27328045.0,3751.0,17,L,27324630,27324824,196,533.2,570.3,5293,left
61,1,continuous,17,16,trial,27324294.0,27328045.0,3751.0,17,L,27324848,27325102,256,645.8,504.8,4824,left
61,1,continuous,17,16,trial,27324294.0,27328045.0,3751.0,17,L,27325166,27325408,244,1533.6,540.2,4526,right
61,1,continuous,17,16,trial,27324294.0,27328045.0,3751.0,17,L,27325422,27325562,142,1535.5,509.2,4445,right
61,1,continuous,17,16,trial,27324294.0,27328045.0,3751.0,17,L,27325588,27325768,182,1390.7,618.4,4520,right
61,1,continuous,17,16,trial,27324294.0,27328045.0,3751.0,17,L,27325792,27326498,708,1529.5,676.2,4693,right
61,1,continuous,17,16,trial,27324294.0,27328045.0,3751.0,17,L,27326520,27326784,266,1604.4,645.7,4687,right
61,1,continuous,17,16,trial,27324294.0,27328045.0,3751.0,17,L,27326816,27326922,108,1538.8,481.2,4730,right
61,1,continuous,17,16,trial,27324294.0,27328045.0,3751.0,17,L,27326992,27327216,226,553.1,575.6,4875,left
61,1,continuous,17,16,trial,27324294.0,27328045.0,3751.0,17,L,27327228,27327328,102,549.3,553.5,4781,left
61,1,continuous,17,16,trial,27324294.0,27328045.0,3751.0,17,L,27327354,27327974,622,349.0,565.4,4796,left
61,1,continuous,17,16,postResponse,27324294.0,27328045.0,3751.0,17,L,27328000,27328378,380,569.1,518.2,5027,left
61,1,continuous,18,80,fixationCross,27329295.0,27334461.0,5166.0,18,L,27328624,27328986,364,841.8,486.2,5336,NA
61,1,continuous,18,80,trial,27329295.0,27334461.0,5166.0,18,L,27329006,27329424,420,925.4,500.3,5661,NA
61,1,continuous,18,80,trial,27329295.0,27334461.0,5166.0,18,L,27329466,27329598,134,557.6,520.0,5724,left
61,1,continuous,18,80,trial,27329295.0,27334461.0,5166.0,18,L,27329622,27329898,278,475.6,619.8,4994,left
61,1,continuous,18,80,trial,27329295.0,27334461.0,5166.0,18,L,27329922,27330086,166,506.7,712.5,4498,left
61,1,continuous,18,80,trial,27329295.0,27334461.0,5166.0,18,L,27330150,27330302,154,1459.0,530.2,4334,right
61,1,continuous,18,80,trial,27329295.0,27334461.0,5166.0,18,L,27330322,27330588,268,1446.5,476.0,4406,right
61,1,continuous,18,80,trial,27329295.0,27334461.0,5166.0,18,L,27330618,27330870,254,1499.4,616.9,4653,right
61,1,continuous,18,80,trial,27329295.0,27334461.0,5166.0,18,L,27330884,27331046,164,1482.4,579.5,4810,right
61,1,continuous,18,80,trial,27329295.0,27334461.0,5166.0,18,L,27331072,27331762,692,1434.7,481.0,4826,right
61,1,continuous,18,80,trial,27329295.0,27334461.0,5166.0,18,L,27331834,27331998,166,506.3,604.9,4991,left
61,1,continuous,18,80,trial,27329295.0,27334461.0,5166.0,18,L,27332062,27332286,226,1426.6,515.2,4767,right
61,1,continuous,18,80,trial,27329295.0,27334461.0,5166.0,18,L,27332310,27332642,334,1491.9,605.6,4677,right
61,1,continuous,18,80,trial,27329295.0,27334461.0,5166.0,18,L,27332662,27332950,290,1408.1,561.7,4987,right
61,1,continuous,18,80,trial,27329295.0,27334461.0,5166.0,18,L,27332972,27333174,204,1400.2,637.4,4969,right
61,1,continuous,18,80,trial,27329295.0,27334461.0,5166.0,18,L,27333188,27333336,150,1424.2,671.2,5061,right
61,1,continuous,18,80,trial,27329295.0,27334461.0,5166.0,18,L,27333354,27333558,206,1504.9,666.3,5144,right
61,1,continuous,18,80,trial,27329295.0,27334461.0,5166.0,18,L,27333626,27333920,296,500.3,628.7,5160,left
61,1,continuous,18,80,trial,27329295.0,27334461.0,5166.0,18,L,27333932,27334136,206,477.3,658.9,4740,left
61,1,continuous,18,80,trial,27329295.0,27334461.0,5166.0,18,L,27334206,27334388,184,1247.0,961.9,4565,NA
61,1,continuous,18,80,trial,27329295.0,27334461.0,5166.0,18,L,27334414,27334548,136,1421.5,1020.4,4516,NA
61,1,continuous,18,80,trial,27329295.0,27334461.0,5166.0,18,L,27334592,27334730,140,1437.7,658.2,4607,right
61,1,continuous,19,88,fixationCross,27335628.0,27338695.0,3067.0,19,L,27335020,27335328,310,1066.8,499.4,5161,NA
61,1,continuous,19,88,trial,27335628.0,27338695.0,3067.0,19,L,27335352,27335758,408,924.5,495.2,5530,NA
61,1,continuous,19,88,trial,27335628.0,27338695.0,3067.0,19,L,27335806,27335950,146,514.5,521.1,5621,left
61,1,continuous,19,88,trial,27335628.0,27338695.0,3067.0,19,L,27335976,27336290,316,414.9,575.9,5083,left
61,1,continuous,19,88,trial,27335628.0,27338695.0,3067.0,19,L,27336358,27336516,160,1452.3,526.8,4688,right
61,1,continuous,19,88,trial,27335628.0,27338695.0,3067.0,19,L,27336532,27336708,178,1397.4,528.5,4638,right
61,1,continuous,19,88,trial,27335628.0,27338695.0,3067.0,19,L,27336718,27337214,498,1369.9,521.6,4753,right
61,1,continuous,19,88,trial,27335628.0,27338695.0,3067.0,19,L,27337378,27337568,192,402.1,579.9,4884,left
61,1,continuous,19,88,trial,27335628.0,27338695.0,3067.0,19,L,27337580,27337796,218,433.3,580.9,4843,left
61,1,continuous,19,88,trial,27335628.0,27338695.0,3067.0,19,L,27337866,27338076,212,1417.6,517.1,4753,right
61,1,continuous,19,88,postResponse,27335628.0,27338695.0,3067.0,19,L,27338090,27339028,940,1368.0,522.2,4937,right
61,1,continuous,20,9,fixationCross,27339745.0,27342861.0,3116.0,20,L,27339102,27339204,104,1368.5,530.6,5295,right
61,1,continuous,20,9,fixationCross,27339745.0,27342861.0,3116.0,20,L,27339228,27339424,198,1189.0,491.0,5437,right
61,1,continuous,20,9,fixationCross,27339745.0,27342861.0,3116.0,20,L,27339452,27339728,278,1006.6,519.1,5660,NA
61,1,continuous,20,9,trial,27339745.0,27342861.0,3116.0,20,L,27339760,27339902,144,757.6,501.4,5792,NA
61,1,continuous,20,9,trial,27339745.0,27342861.0,3116.0,20,L,27339944,27340168,226,485.7,544.8,5756,left
61,1,continuous,20,9,trial,27339745.0,27342861.0,3116.0,20,L,27340188,27340598,412,375.4,568.3,5188,left
61,1,continuous,20,9,trial,27339745.0,27342861.0,3116.0,20,L,27340688,27340866,180,1420.0,526.6,5100,right
61,1,continuous,20,9,trial,27339745.0,27342861.0,3116.0,20,L,27340888,27341438,552,1518.4,537.6,5065,right
61,1,continuous,20,9,trial,27339745.0,27342861.0,3116.0,20,L,27341466,27341832,368,1665.1,676.6,5255,right
61,1,continuous,20,9,trial,27339745.0,27342861.0,3116.0,20,L,27341910,27342106,198,525.8,554.7,5480,left
61,1,continuous,20,9,trial,27339745.0,27342861.0,3116.0,20,L,27342132,27342720,590,356.5,581.7,5215,left
61,1,continuous,20,9,postResponse,27339745.0,27342861.0,3116.0,20,L,27342734,27343194,462,344.1,617.4,5297,left
61,1,continuous,21,12,fixationCross,27344145.0,27346928.0,2783.0,21,L,27343296,27343564,270,583.7,516.3,5549,left
61,1,continuous,21,12,fixationCross,27344145.0,27346928.0,2783.0,21,L,27343586,27343818,234,745.9,528.0,5739,NA
61,1,continuous,21,12,trial,27344145.0,27346928.0,2783.0,21,L,27343842,27344272,432,895.7,511.1,5926,NA
61,1,continuous,21,12,trial,27344145.0,27346928.0,2783.0,21,L,27344320,27344520,202,473.1,537.5,5821,left
61,1,continuous,21,12,trial,27344145.0,27346928.0,2783.0,21,L,27344536,27344714,180,465.7,584.1,5004,left
61,1,continuous,21,12,trial,27344145.0,27346928.0,2783.0,21,L,27344730,27344946,218,520.5,562.7,4568,left
61,1,continuous,21,12,trial,27344145.0,27346928.0,2783.0,21,L,27345010,27345256,248,1412.5,536.4,4260,right
61,1,continuous,21,12,trial,27344145.0,27346928.0,2783.0,21,L,27345284,27345500,218,1432.4,660.9,4206,right
61,1,continuous,21,12,trial,27344145.0,27346928.0,2783.0,21,L,27345514,27345608,96,1444.2,704.1,4304,right
61,1,continuous,21,12,trial,27344145.0,27346928.0,2783.0,21,L,27345680,27345856,178,472.1,453.2,4473,left
61,1,continuous,21,12,trial,27344145.0,27346928.0,2783.0,21,L,27345878,27346434,558,399.8,449.8,4516,left
61,1,continuous,21,12,postResponse,27344145.0,27346928.0,2783.0,21,L,27346454,27347262,810,498.0,439.8,4804,left
61,1,continuous,22,43,fixationCross,27349595.0,27353578.0,3983.0,22,L,27347546,27347548,4,703.0,395.1,5359,left
61,1,continuous,22,43,fixationCross,27349595.0,27353578.0,3983.0,22,L,27347592,27348876,1286,733.2,456.3,5664,left
61,1,continuous,22,43,fixationCross,27349595.0,27353578.0,3983.0,22,L,27348896,27349294,400,838.8,444.1,6077,NA
61,1,continuous,22,43,fixationCross,27349595.0,27353578.0,3983.0,22,L,27349314,27349518,206,914.0,464.3,6224,NA
61,1,continuous,22,43,trial,27349595.0,27353578.0,3983.0,22,L,27349542,27349730,190,973.8,537.0,6288,NA
61,1,continuous,22,43,trial,27349595.0,27353578.0,3983.0,22,L,27349780,27349960,182,549.0,505.3,6250,left
61,1,continuous,22,43,trial,27349595.0,27353578.0,3983.0,22,L,27349974,27350408,436,540.1,501.1,5332,left
61,1,continuous,22,43,trial,27349595.0,27353578.0,3983.0,22,L,27350478,27350650,174,1530.0,502.4,4960,right
61,1,continuous,22,43,trial,27349595.0,27353578.0,3983.0,22,L,27350664,27351582,920,1499.3,536.1,4997,right
61,1,continuous,22,43,trial,27349595.0,27353578.0,3983.0,22,L,27351650,27351842,194,550.5,515.2,5125,left
61,1,continuous,22,43,trial,27349595.0,27353578.0,3983.0,22,L,27351858,27352020,164,512.0,484.5,5042,left
61,1,continuous,22,43,trial,27349595.0,27353578.0,3983.0,22,L,27352034,27352360,328,464.3,483.8,4950,left
61,1,continuous,22,43,trial,27349595.0,27353578.0,3983.0,22,L,27352416,27352638,224,975.3,910.1,4955,likertHorizontal
61,1,continuous,22,43,trial,27349595.0,27353578.0,3983.0,22,L,27352698,27352954,258,1473.1,542.5,4965,right
61,1,continuous,22,43,trial,27349595.0,27353578.0,3983.0,22,L,27352990,27353136,148,1497.1,907.8,5132,NA
61,1,continuous,22,43,trial,27349595.0,27353578.0,3983.0,22,L,27353162,27353308,148,1421.4,1022.2,5197,NA
61,1,continuous,22,43,trial,27349595.0,27353578.0,3983.0,22,L,27353358,27353492,136,942.9,989.1,5359,likertHorizontal
61,1,continuous,22,43,postResponse,27349595.0,27353578.0,3983.0,22,L,27353546,27353912,368,887.0,546.8,5181,NA
61,1,continuous,23,86,fixationCross,27354895.0,27357045.0,2150.0,23,L,27354012,27354178,168,886.2,548.5,5376,NA
61,1,continuous,23,86,fixationCross,27354895.0,27357045.0,2150.0,23,L,27354192,27354554,364,860.4,509.7,5670,NA
61,1,continuous,23,86,trial,27354895.0,27357045.0,2150.0,23,L,27354566,27354950,386,875.7,496.1,5898,NA
61,1,continuous,23,86,trial,27354895.0,27357045.0,2150.0,23,L,27354976,27355114,140,736.7,496.8,6058,left
61,1,continuous,23,86,trial,27354895.0,27357045.0,2150.0,23,L,27355150,27355332,184,511.6,492.8,5850,left
61,1,continuous,23,86,trial,27354895.0,27357045.0,2150.0,23,L,27355350,27355520,172,570.8,473.9,5222,left
61,1,continuous,23,86,trial,27354895.0,27357045.0,2150.0,23,L,27355544,27355776,234,454.6,449.8,4823,left
61,1,continuous,23,86,trial,27354895.0,27357045.0,2150.0,23,L,27355844,27356058,216,1456.6,559.2,4648,right
61,1,continuous,23,86,trial,27354895.0,27357045.0,2150.0,23,L,27356082,27357070,990,1558.9,579.3,4770,right
61,1,continuous,23,86,postResponse,27354895.0,27357045.0,2150.0,23,L,27357084,27357388,306,1519.7,562.1,5177,right
61,1,continuous,24,84,fixationCross,27358045.0,27361562.0,3517.0,24,L,27357676,27358000,326,875.0,487.4,5360,NA
61,1,continuous,24,84,trial,27358045.0,27361562.0,3517.0,24,L,27358026,27358192,168,715.8,511.7,5633,left
61,1,continuous,24,84,trial,27358045.0,27361562.0,3517.0,24,L,27358220,27358396,178,540.3,528.7,5692,left
61,1,continuous,24,84,trial,27358045.0,27361562.0,3517.0,24,L,27358418,27358616,200,468.2,603.4,5109,left
61,1,continuous,24,84,trial,27358045.0,27361562.0,3517.0,24,L,27358630,27358864,236,431.5,622.3,4748,left
61,1,continuous,24,84,trial,27358045.0,27361562.0,3517.0,24,L,27358934,27359178,246,1476.8,612.1,4605,right
61,1,continuous,24,84,trial,27358045.0,27361562.0,3517.0,24,L,27359192,27359702,512,1500.2,645.7,4777,right
61,1,continuous,24,84,trial,27358045.0,27361562.0,3517.0,24,L,27359722,27359808,88,1545.8,684.4,5069,right
61,1,continuous,24,84,trial,27358045.0,27361562.0,3517.0,24,L,27359848,27360098,252,1268.0,534.7,5062,right
61,1,continuous,24,84,trial,27358045.0,27361562.0,3517.0,24,L,27360160,27360376,218,474.3,548.7,5026,left
61,1,continuous,24,84,trial,27358045.0,27361562.0,3517.0,24,L,27360392,27360586,196,448.4,602.7,4922,left
61,1,continuous,24,84,trial,27358045.0,27361562.0,3517.0,24,L,27360654,27361094,442,1450.5,562.6,4622,right
61,1,continuous,24,84,postResponse,27358045.0,27361562.0,3517.0,24,L,27361114,27361894,782,1502.4,610.6,4927,right
61,1,continuous,25,13,fixationCross,27364045.0,27367012.0,2967.0,25,L,27361968,27362014,48,1495.9,607.6,5235,right
61,1,continuous,25,13,fixationCross,27364045.0,27367012.0,2967.0,25,L,27362070,27362480,412,1113.0,498.5,5527,NA
61,1,continuous,25,13,fixationCross,27364045.0,27367012.0,2967.0,25,L,27362514,27363544,1032,808.6,509.9,5887,NA
61,1,continuous,25,13,fixationCross,27364045.0,27367012.0,2967.0,25,L,27363562,27363786,226,715.0,499.8,6031,left
61,1,continuous,25,13,fixationCross,27364045.0,27367012.0,2967.0,25,L,27363812,27363938,128,893.0,524.1,6096,NA
61,1,continuous,25,13,trial,27364045.0,27367012.0,2967.0,25,L,27363960,27364188,230,972.0,550.2,6146,NA
61,1,continuous,25,13,trial,27364045.0,27367012.0,2967.0,25,L,27364238,27364992,756,492.3,537.5,5129,left
61,1,continuous,25,13,trial,27364045.0,27367012.0,2967.0,25,L,27365060,27365290,232,1448.5,605.3,4253,right
61,1,continuous,25,13,trial,27364045.0,27367012.0,2967.0,25,L,27365310,27365540,232,1563.3,633.8,4120,right
61,1,continuous,25,13,trial,27364045.0,27367012.0,2967.0,25,L,27365562,27365792,232,1576.5,552.9,4015,right
61,1,continuous,25,13,trial,27364045.0,27367012.0,2967.0,25,L,27365870,27366128,260,529.6,553.7,4054,left
61,1,continuous,25,13,trial,27364045.0,27367012.0,2967.0,25,L,27366140,27366372,234,487.9,553.0,4118,left
61,1,continuous,25,13,trial,27364045.0,27367012.0,2967.0,25,L,27366398,27367298,902,504.3,675.4,4430,left
61,1,continuous,26,72,fixationCross,27386878.0,27389912.0,3034.0,26,L,27386073,27386155,84,609.0,116.5,6746,NA
61,1,continuous,26,72,fixationCross,27386878.0,27389912.0,3034.0,26,L,27386201,27386317,118,317.9,76.5,6642,NA
61,1,continuous,26,72,fixationCross,27386878.0,27389912.0,3034.0,26,L,27386377,27386553,178,931.9,399.4,6583,NA
61,1,continuous,26,72,trial,27386878.0,27389912.0,3034.0,26,L,27386585,27387119,536,971.1,541.7,6741,NA
61,1,continuous,26,72,trial,27386878.0,27389912.0,3034.0,26,L,27387167,27387309,144,586.4,637.1,6487,left
61,1,continuous,26,72,trial,27386878.0,27389912.0,3034.0,26,L,27387333,27387579,248,471.9,604.0,5617,left
61,1,continuous,26,72,trial,27386878.0,27389912.0,3034.0,26,L,27387643,27387831,190,1415.9,584.8,4838,right
61,1,continuous,26,72,trial,27386878.0,27389912.0,3034.0,26,L,27387849,27388107,260,1439.8,628.5,4583,right
61,1,continuous,26,72,trial,27386878.0,27389912.0,3034.0,26,L,27388123,27388251,130,1516.3,600.1,4548,right
61,1,continuous,26,72,trial,27386878.0,27389912.0,3034.0,26,L,27388319,27388455,138,524.3,612.1,4642,left
61,1,continuous,26,72,trial,27386878.0,27389912.0,3034.0,26,L,27388471,27389069,600,447.7,585.9,4535,left
61,1,continuous,26,72,trial,27386878.0,27389912.0,3034.0,26,L,27389135,27389347,214,1421.2,567.6,4406,right
61,1,continuous,26,72,trial,27386878.0,27389912.0,3034.0,26,L,27389369,27390089,722,1533.1,596.9,4682,right
61,1,continuous,27,75,fixationCross,27391095.0,27395212.0,4117.0,27,L,27390321,27390459,140,1258.4,476.0,5221,right
61,1,continuous,27,75,fixationCross,27391095.0,27395212.0,4117.0,27,L,27390485,27390789,306,1058.5,483.2,5472,NA
61,1,continuous,27,75,trial,27391095.0,27395212.0,4117.0,27,L,27390815,27391235,422,897.9,511.6,5811,NA
61,1,continuous,27,75,trial,27391095.0,27395212.0,4117.0,27,L,27391277,27391443,168,595.8,515.1,5895,left
61,1,continuous,27,75,trial,27391095.0,27395212.0,4117.0,27,L,27391465,27391581,118,457.4,471.9,5475,left
61,1,continuous,27,75,trial,27391095.0,27395212.0,4117.0,27,L,27391645,27391869,226,1476.9,541.7,4951,right
61,1,continuous,27,75,trial,27391095.0,27395212.0,4117.0,27,L,27391885,27392067,184,1486.2,506.5,4631,right
61,1,continuous,27,75,trial,27391095.0,27395212.0,4117.0,27,L,27392135,27392371,238,525.5,549.8,4494,left
61,1,continuous,27,75,trial,27391095.0,27395212.0,4117.0,27,L,27392397,27392577,182,391.6,451.0,4532,left
61,1,continuous,27,75,trial,27391095.0,27395212.0,4117.0,27,L,27392593,27392787,196,331.5,436.5,4679,left
61,1,continuous,27,75,trial,27391095.0,27395212.0,4117.0,27,L,27392807,27393269,464,442.9,440.1,4823,left
61,1,continuous,27,75,trial,27391095.0,27395212.0,4117.0,27,L,27393295,27393605,312,620.3,431.8,5010,left
61,1,continuous,27,75,trial,27391095.0,27395212.0,4117.0,27,L,27393629,27393777,150,670.0,515.1,4992,left
61,1,continuous,27,75,trial,27391095.0,27395212.0,4117.0,27,L,27393793,27394401,610,676.9,560.5,5056,left
61,1,continuous,27,75,trial,27391095.0,27395212.0,4117.0,27,L,27394425,27394497,74,749.2,698.3,5133,NA
61,1,continuous,27,75,trial,27391095.0,27395212.0,4117.0,27,L,27394553,27394835,284,1414.0,670.7,5107,right
61,1,continuous,27,75,trial,27391095.0,27395212.0,4117.0,27,L,27394865,27395399,536,1514.6,521.7,4660,right
61,1,continuous,28,22,fixationCross,27396095.0,27399045.0,2950.0,28,L,27395621,27395763,144,1198.3,495.4,4966,right
61,1,continuous,28,22,fixationCross,27396095.0,27399045.0,2950.0,28,L,27395791,27396053,264,949.9,507.9,5249,NA
61,1,continuous,28,22,trial,27396095.0,27399045.0,2950.0,28,L,27396079,27396237,160,827.7,502.7,5480,NA
61,1,continuous,28,22,trial,27396095.0,27399045.0,2950.0,28,L,27396271,27396495,226,572.0,520.9,5483,left
61,1,continuous,28,22,trial,27396095.0,27399045.0,2950.0,28,L,27396515,27396735,222,542.3,604.7,4825,left
61,1,continuous,28,22,trial,27396095.0,27399045.0,2950.0,28,L,27396803,27396961,160,1513.5,534.7,4477,right
61,1,continuous,28,22,trial,27396095.0,27399045.0,2950.0,28,L,27396979,27397341,364,1491.2,487.1,4404,right
61,1,continuous,28,22,trial,27396095.0,27399045.0,2950.0,28,L,27397351,27397615,266,1476.1,472.0,4488,right
61,1,continuous,28,22,trial,27396095.0,27399045.0,2950.0,28,L,27397647,27397853,208,1642.2,674.3,4496,right
61,1,continuous,28,22,trial,27396095.0,27399045.0,2950.0,28,L,27397865,27398047,184,1604.7,684.1,4549,right
61,1,continuous,28,22,trial,27396095.0,27399045.0,2950.0,28,L,27398117,27398365,250,559.5,596.2,4729,left
61,1,continuous,28,22,trial,27396095.0,27399045.0,2950.0,28,L,27398389,27398671,284,440.1,620.6,4605,left
61,1,continuous,28,22,trial,27396095.0,27399045.0,2950.0,28,L,27398697,27399013,318,393.9,494.3,4507,left
61,1,continuous,28,22,trial,27396095.0,27399045.0,2950.0,28,L,27399041,27399315,276,494.6,642.3,4598,left
61,1,continuous,29,23,trial,27400278.0,27403778.0,3500.0,29,L,27399525,27400415,892,866.8,502.5,5224,NA
61,1,continuous,29,23,trial,27400278.0,27403778.0,3500.0,29,L,27400455,27400599,146,555.2,515.3,5601,left
61,1,continuous,29,23,trial,27400278.0,27403778.0,3500.0,29,L,27400625,27400851,228,451.1,459.0,5148,left
61,1,continuous,29,23,trial,27400278.0,27403778.0,3500.0,29,L,27400869,27401013,146,453.6,414.0,4883,left
61,1,continuous,29,23,trial,27400278.0,27403778.0,3500.0,29,L,27401083,27401339,258,1507.7,520.3,4628,right
61,1,continuous,29,23,trial,27400278.0,27403778.0,3500.0,29,L,27401361,27401639,280,1406.7,570.1,4570,right
61,1,continuous,29,23,trial,27400278.0,27403778.0,3500.0,29,L,27401663,27401933,272,1488.1,482.7,4611,right
61,1,continuous,29,23,trial,27400278.0,27403778.0,3500.0,29,L,27401951,27402225,276,1405.8,466.6,4621,right
61,1,continuous,29,23,trial,27400278.0,27403778.0,3500.0,29,L,27402247,27402407,162,1516.6,502.2,4567,right
61,1,continuous,29,23,trial,27400278.0,27403778.0,3500.0,29,L,27402479,27402663,186,497.1,496.2,4793,left
61,1,continuous,29,23,trial,27400278.0,27403778.0,3500.0,29,L,27402685,27402845,162,415.4,517.6,4864,left
61,1,continuous,29,23,trial,27400278.0,27403778.0,3500.0,29,L,27402871,27403069,200,542.6,577.8,4976,left
61,1,continuous,29,23,trial,27400278.0,27403778.0,3500.0,29,L,27403085,27403509,426,564.5,536.5,5183,left
61,1,continuous,29,23,trial,27400278.0,27403778.0,3500.0,29,L,27403535,27403679,146,424.9,474.2,5406,left
61,1,continuous,29,23,postResponse,27400278.0,27403778.0,3500.0,29,L,27403701,27404111,412,420.9,401.0,5375,left
61,1,continuous,30,3,fixationCross,27405862.0,27408178.0,2316.0,30,L,27404191,27404421,232,592.1,467.9,5269,left
61,1,continuous,30,3,fixationCross,27405862.0,27408178.0,2316.0,30,L,27404443,27405263,822,702.7,498.0,5760,left
61,1,continuous,30,3,fixationCross,27405862.0,27408178.0,2316.0,30,L,27405281,27405543,264,795.2,474.3,6104,NA
61,1,continuous,30,3,fixationCross,27405862.0,27408178.0,2316.0,30,L,27405561,27405711,152,895.9,495.4,6180,NA
61,1,continuous,30,3,trial,27405862.0,27408178.0,2316.0,30,L,27405733,27405997,266,979.7,561.1,6231,NA
61,1,continuous,30,3,trial,27405862.0,27408178.0,2316.0,30,L,27406045,27406255,212,588.2,584.2,6085,left
61,1,continuous,30,3,trial,27405862.0,27408178.0,2316.0,30,L,27406277,27406495,220,497.2,673.3,5097,left
61,1,continuous,30,3,trial,27405862.0,27408178.0,2316.0,30,L,27406515,27406621,108,601.7,704.3,4592,left
61,1,continuous,30,3,trial,27405862.0,27408178.0,2316.0,30,L,27406685,27406959,276,1472.5,595.5,4237,right
61,1,continuous,30,3,trial,27405862.0,27408178.0,2316.0,30,L,27406975,27407137,164,1518.4,569.4,4161,right
61,1,continuous,30,3,trial,27405862.0,27408178.0,2316.0,30,L,27407203,27407389,188,567.3,546.3,4472,left
61,1,continuous,30,3,trial,27405862.0,27408178.0,2316.0,30,L,27407417,27408229,814,633.6,676.0,4757,left
61,1,continuous,30,3,trial,27405862.0,27408178.0,2316.0,30,L,27408289,27408457,170,1436.5,587.4,5130,right
61,1,continuous,31,67,fixationCross,27409412.0,27412945.0,3533.0,31,L,27408697,27409109,414,807.2,480.1,5531,NA
61,1,continuous,31,67,trial,27409412.0,27412945.0,3533.0,31,L,27409131,27409549,420,911.4,496.8,5793,NA
61,1,continuous,31,67,trial,27409412.0,27412945.0,3533.0,31,L,27409589,27409787,200,607.0,539.4,5717,left
61,1,continuous,31,67,trial,27409412.0,27412945.0,3533.0,31,L,27409807,27410015,210,568.8,575.2,5143,left
61,1,continuous,31,67,trial,27409412.0,27412945.0,3533.0,31,L,27410083,27410343,262,1450.5,560.3,4927,right
61,1,continuous,31,67,trial,27409412.0,27412945.0,3533.0,31,L,27410361,27410829,470,1505.9,567.5,4826,right
61,1,continuous,31,67,trial,27409412.0,27412945.0,3533.0,31,L,27410851,27411069,220,1410.2,552.4,5040,right
61,1,continuous,31,67,trial,27409412.0,27412945.0,3533.0,31,L,27411083,27411507,426,1451.7,545.7,5234,right
61,1,continuous,31,67,trial,27409412.0,27412945.0,3533.0,31,L,27411575,27411787,214,570.6,561.1,5102,left
61,1,continuous,31,67,trial,27409412.0,27412945.0,3533.0,31,L,27411809,27412005,198,460.1,536.5,4973,left
61,1,continuous,31,67,trial,27409412.0,27412945.0,3533.0,31,L,27412023,27412193,172,466.3,477.2,5005,left
61,1,continuous,31,67,trial,27409412.0,27412945.0,3533.0,31,L,27412213,27412423,212,551.8,429.9,5001,left
61,1,continuous,31,67,trial,27409412.0,27412945.0,3533.0,31,L,27412475,27412559,86,1044.0,735.4,4930,likertHorizontal
61,1,continuous,31,67,postResponse,27409412.0,27412945.0,3533.0,31,L,27412607,27413279,674,1419.3,543.3,4844,right
61,1,continuous,32,78,fixationCross,27413862.0,27416745.0,2883.0,32,L,27413379,27413639,262,1006.9,526.5,5198,NA
61,1,continuous,32,78,trial,27413862.0,27416745.0,2883.0,32,L,27413663,27414001,340,874.9,530.8,5523,NA
61,1,continuous,32,78,trial,27413862.0,27416745.0,2883.0,32,L,27414045,27414165,122,530.4,503.3,5745,left
61,1,continuous,32,78,trial,27413862.0,27416745.0,2883.0,32,L,27414191,27414395,206,517.6,416.0,5525,left
61,1,continuous,32,78,trial,27413862.0,27416745.0,2883.0,32,L,27414459,27414611,154,1481.4,545.3,5191,right
61,1,continuous,32,78,trial,27413862.0,27416745.0,2883.0,32,L,27414637,27414803,168,1471.6,642.4,5252,right
61,1,continuous,32,78,trial,27413862.0,27416745.0,2883.0,32,L,27414817,27414937,122,1495.4,668.4,5329,right
61,1,continuous,32,78,trial,27413862.0,27416745.0,2883.0,32,L,27414971,27415149,180,1460.1,456.4,5354,right
61,1,continuous,32,78,trial,27413862.0,27416745.0,2883.0,32,L,27415183,27415303,122,1476.7,718.7,5244,right
61,1,continuous,32,78,trial,27413862.0,27416745.0,2883.0,32,L,27415321,27415509,190,1479.4,684.2,5024,right
61,1,continuous,32,78,trial,27413862.0,27416745.0,2883.0,32,L,27415543,27415843,302,1477.1,491.8,4977,right
61,1,continuous,32,78,trial,27413862.0,27416745.0,2883.0,32,L,27415913,27416161,250,484.0,530.6,5133,left
61,1,continuous,32,78,trial,27413862.0,27416745.0,2883.0,32,L,27416181,27416509,330,506.5,487.0,5104,left
61,1,continuous,32,78,postResponse,27413862.0,27416745.0,2883.0,32,L,27416535,27417079,546,372.5,559.9,5028,left
61,1,continuous,33,8,fixationCross,27417879.0,27420745.0,2866.0,33,L,27417181,27417557,378,614.6,468.7,5080,left
61,1,continuous,33,8,trial,27417879.0,27420745.0,2866.0,33,L,27417603,27417931,330,985.8,522.5,5591,NA
61,1,continuous,33,8,trial,27417879.0,27420745.0,2866.0,33,L,27417975,27418103,130,721.9,447.9,5812,left
61,1,continuous,33,8,trial,27417879.0,27420745.0,2866.0,33,L,27418127,27418553,428,585.4,453.5,5354,left
61,1,continuous,33,8,trial,27417879.0,27420745.0,2866.0,33,L,27418615,27418801,188,1418.1,533.2,5037,right
61,1,continuous,33,8,trial,27417879.0,27420745.0,2866.0,33,L,27418817,27419061,246,1462.8,516.4,5009,right
61,1,continuous,33,8,trial,27417879.0,27420745.0,2866.0,33,L,27419089,27419325,238,1635.4,635.8,4949,right
61,1,continuous,33,8,trial,27417879.0,27420745.0,2866.0,33,L,27419371,27419679,310,1337.0,570.6,4858,right
61,1,continuous,33,8,trial,27417879.0,27420745.0,2866.0,33,L,27419753,27419947,196,522.8,476.0,4837,left
61,1,continuous,33,8,trial,27417879.0,27420745.0,2866.0,33,L,27419965,27420151,188,578.6,463.2,4932,left
61,1,continuous,33,8,trial,27417879.0,27420745.0,2866.0,33,L,27420185,27420935,752,406.3,606.8,5115,left
61,1,continuous,33,8,postResponse,27417879.0,27420745.0,2866.0,33,L,27421051,27421089,40,430.2,602.9,5165,left
61,1,continuous,34,40,fixationCross,27422996.0,27425779.0,2783.0,34,L,27421189,27421867,680,825.1,490.0,5509,NA
61,1,continuous,34,40,fixationCross,27422996.0,27425779.0,2783.0,34,L,27421895,27422291,398,614.1,518.3,5830,left
61,1,continuous,34,40,fixationCross,27422996.0,27425779.0,2783.0,34,L,27422323,27422493,172,845.6,497.2,5882,NA
61,1,continuous,34,40,fixationCross,27422996.0,27425779.0,2783.0,34,L,27422519,27422823,306,1050.9,496.2,5989,NA
61,1,continuous,34,40,trial,27422996.0,27425779.0,2783.0,34,L,27422847,27423159,314,972.3,554.4,6109,NA
61,1,continuous,34,40,trial,27422996.0,27425779.0,2783.0,34,L,27423213,27423415,204,525.5,499.4,5908,left
61,1,continuous,34,40,trial,27422996.0,27425779.0,2783.0,34,L,27423433,27423835,404,483.2,505.1,4780,left
61,1,continuous,34,40,trial,27422996.0,27425779.0,2783.0,34,L,27423903,27424095,194,1472.5,525.7,4200,right
61,1,continuous,34,40,trial,27422996.0,27425779.0,2783.0,34,L,27424123,27424617,496,1706.0,603.6,4246,NA
61,1,continuous,34,40,trial,27422996.0,27425779.0,2783.0,34,L,27424661,27424869,210,1424.5,494.4,4583,right
61,1,continuous,34,40,trial,27422996.0,27425779.0,2783.0,34,L,27424879,27425053,176,1448.7,498.0,4685,right
61,1,continuous,34,40,trial,27422996.0,27425779.0,2783.0,34,L,27425115,27425251,138,585.0,492.8,4776,left
61,1,continuous,34,40,trial,27422996.0,27425779.0,2783.0,34,L,27425273,27426017,746,460.5,498.2,4679,left
61,1,continuous,34,40,trial,27422996.0,27425779.0,2783.0,34,L,27426037,27426057,22,511.1,426.2,4792,left
61,1,continuous,35,30,fixationCross,27427812.0,27430813.0,3001.0,35,L,27426205,27426331,128,592.6,503.8,4641,left
61,1,continuous,35,30,fixationCross,27427812.0,27430813.0,3001.0,35,L,27426523,27426543,22,623.3,420.4,5218,left
61,1,continuous,35,30,fixationCross,27427812.0,27430813.0,3001.0,35,L,27426575,27426629,56,640.5,492.6,5089,left
61,1,continuous,35,30,fixationCross,27427812.0,27430813.0,3001.0,35,L,27426663,27427523,862,816.5,499.9,5410,NA
61,1,continuous,35,30,trial,27427812.0,27430813.0,3001.0,35,L,27427543,27427961,420,921.8,513.2,5673,NA
61,1,continuous,35,30,trial,27427812.0,27430813.0,3001.0,35,L,27427997,27428193,198,612.8,516.8,5884,left
61,1,continuous,35,30,trial,27427812.0,27430813.0,3001.0,35,L,27428223,27428523,302,474.2,588.4,5217,left
61,1,continuous,35,30,trial,27427812.0,27430813.0,3001.0,35,L,27428577,27428647,72,870.6,555.2,4894,NA
61,1,continuous,35,30,trial,27427812.0,27430813.0,3001.0,35,L,27428699,27428877,180,1446.9,585.8,4837,right
61,1,continuous,35,30,trial,27427812.0,27430813.0,3001.0,35,L,27428903,27429171,270,1653.8,565.7,4859,right
61,1,continuous,35,30,trial,27427812.0,27430813.0,3001.0,35,L,27429207,27429553,348,1390.9,595.0,4919,right
61,1,continuous,35,30,trial,27427812.0,27430813.0,3001.0,35,L,27429621,27430471,852,543.1,574.1,5124,left
61,1,continuous,35,30,postResponse,27427812.0,27430813.0,3001.0,35,L,27430491,27431147,658,546.5,517.0,5460,left
61,1,continuous,36,32,fixationCross,27431962.0,27438713.0,6751.0,36,L,27431221,27431359,140,553.4,529.2,5544,left
61,1,continuous,36,32,fixationCross,27431962.0,27438713.0,6751.0,36,L,27431383,27431659,278,710.3,489.8,5690,left
61,1,continuous,36,32,fixationCross,27431962.0,27438713.0,6751.0,36,L,27431685,27431873,190,906.8,516.5,5863,NA
61,1,continuous,36,32,trial,27431962.0,27438713.0,6751.0,36,L,27431893,27432087,196,976.7,540.1,5994,NA
61,1,continuous,36,32,trial,27431962.0,27438713.0,6751.0,36,L,27432135,27432285,152,593.0,529.2,6097,left
61,1,continuous,36,32,trial,27431962.0,27438713.0,6751.0,36,L,27432349,27432653,306,1454.2,572.5,5539,right
61,1,continuous,36,32,trial,27431962.0,27438713.0,6751.0,36,L,27432673,27432805,134,1518.6,589.2,5209,right
61,1,continuous,36,32,trial,27431962.0,27438713.0,6751.0,36,L,27432829,27433613,786,1425.6,590.9,5474,right
61,1,continuous,36,32,trial,27431962.0,27438713.0,6751.0,36,L,27433679,27434241,564,550.0,573.0,6002,left
61,1,continuous,36,32,trial,27431962.0,27438713.0,6751.0,36,L,27434267,27434761,496,425.9,592.8,6156,left
61,1,continuous,36,32,trial,27431962.0,27438713.0,6751.0,36,L,27434787,27435105,320,581.3,620.3,6303,left
61,1,continuous,36,32,trial,27431962.0,27438713.0,6751.0,36,L,27435131,27435415,286,498.8,574.5,6253,left
61,1,continuous,36,32,trial,27431962.0,27438713.0,6751.0,36,L,27435441,27436161,722,431.2,652.9,6250,left
61,1,continuous,36,32,trial,27431962.0,27438713.0,6751.0,36,L,27436179,27436705,528,487.5,596.6,6415,left
61,1,continuous,36,32,trial,27431962.0,27438713.0,6751.0,36,L,27436781,27437065,286,1393.7,525.1,6333,right
61,1,continuous,36,32,trial,27431962.0,27438713.0,6751.0,36,L,27437089,27437307,220,1514.4,571.8,6094,right
61,1,continuous,36,32,trial,27431962.0,27438713.0,6751.0,36,L,27437319,27437493,176,1497.2,549.2,6135,right
61,1,continuous,36,32,trial,27431962.0,27438713.0,6751.0,36,L,27437567,27438055,490,461.6,607.1,6296,left
61,1,continuous,36,32,trial,27431962.0,27438713.0,6751.0,36,L,27438079,27438323,246,558.3,573.7,6160,left
61,1,continuous,36,32,trial,27431962.0,27438713.0,6751.0,36,L,27438347,27438687,342,462.7,557.5,6210,left
61,1,continuous,36,32,trial,27431962.0,27438713.0,6751.0,36,L,27438711,27438883,174,419.2,652.3,6203,left
61,1,continuous,37,20,trial,27439629.0,27441879.0,2250.0,37,L,27439121,27439765,646,946.1,467.0,6274,NA
61,1,continuous,37,20,trial,27439629.0,27441879.0,2250.0,37,L,27439807,27439997,192,570.7,526.7,6364,left
61,1,continuous,37,20,trial,27439629.0,27441879.0,2250.0,37,L,27440043,27440095,54,912.3,566.2,5862,NA
61,1,continuous,37,20,trial,27439629.0,27441879.0,2250.0,37,L,27440139,27440279,142,1385.0,583.7,5452,right
61,1,continuous,37,20,trial,27439629.0,27441879.0,2250.0,37,L,27440297,27440951,656,1439.2,568.9,5351,right
61,1,continuous,37,20,trial,27439629.0,27441879.0,2250.0,37,L,27440959,27441161,204,1450.2,555.4,5698,right
61,1,continuous,37,20,trial,27439629.0,27441879.0,2250.0,37,L,27441223,27441631,410,581.9,568.9,5642,left
61,1,continuous,37,20,trial,27439629.0,27441879.0,2250.0,37,L,27441651,27442065,416,520.5,588.1,5139,left
61,1,continuous,38,59,fixationCross,27443046.0,27445496.0,2450.0,38,L,27442479,27442735,258,788.0,537.4,5385,NA
61,1,continuous,38,59,trial,27443046.0,27445496.0,2450.0,38,L,27442757,27443175,420,901.8,526.1,5724,NA
61,1,continuous,38,59,trial,27443046.0,27445496.0,2450.0,38,L,27443225,27443349,126,492.5,543.8,5825,left
61,1,continuous,38,59,trial,27443046.0,27445496.0,2450.0,38,L,27443375,27443709,336,413.3,459.9,5433,left
61,1,continuous,38,59,trial,27443046.0,27445496.0,2450.0,38,L,27443777,27443913,138,1427.9,516.0,5235,right
61,1,continuous,38,59,trial,27443046.0,27445496.0,2450.0,38,L,27443937,27444145,210,1368.1,486.5,5295,right
61,1,continuous,38,59,trial,27443046.0,27445496.0,2450.0,38,L,27444171,27444467,298,1551.3,487.6,5304,right
61,1,continuous,38,59,trial,27443046.0,27445496.0,2450.0,38,L,27444477,27445079,604,1573.4,504.0,5493,right
61,1,continuous,38,59,trial,27443046.0,27445496.0,2450.0,38,L,27445093,27445345,254,1537.2,498.6,5623,right
61,1,continuous,38,59,trial,27443046.0,27445496.0,2450.0,38,L,27445369,27445707,340,1360.2,478.1,5817,right
61,1,continuous,39,64,fixationCross,27446562.0,27449313.0,2751.0,39,L,27446019,27446273,256,1061.5,502.3,5742,NA
61,1,continuous,39,64,trial,27446562.0,27449313.0,2751.0,39,L,27446301,27446695,396,909.5,528.3,5983,NA
61,1,continuous,39,64,trial,27446562.0,27449313.0,2751.0,39,L,27446741,27446963,224,504.3,549.9,5879,left
61,1,continuous,39,64,trial,27446562.0,27449313.0,2751.0,39,L,27446985,27447331,348,444.3,558.0,5049,left
61,1,continuous,39,64,trial,27446562.0,27449313.0,2751.0,39,L,27447371,27447487,118,883.6,556.5,4719,NA
61,1,continuous,39,64,trial,27446562.0,27449313.0,2751.0,39,L,27447535,27447733,200,1408.2,582.5,4662,right
61,1,continuous,39,64,trial,27446562.0,27449313.0,2751.0,39,L,27447753,27448301,550,1399.0,511.5,4610,right
61,1,continuous,39,64,trial,27446562.0,27449313.0,2751.0,39,L,27448331,27448699,370,1408.3,691.5,4655,right
61,1,continuous,39,64,trial,27446562.0,27449313.0,2751.0,39,L,27448723,27448811,90,1548.6,721.0,4716,right
61,1,continuous,39,64,trial,27446562.0,27449313.0,2751.0,39,L,27448839,27449625,788,1407.0,632.6,5117,right
61,1,continuous,40,18,fixationCross,27450329.0,27452612.0,2283.0,40,L,27449863,27449891,30,971.9,449.0,5895,NA
61,1,continuous,40,18,trial,27450329.0,27452612.0,2283.0,40,L,27450087,27450455,370,868.8,533.7,5888,NA
61,1,continuous,40,18,trial,27450329.0,27452612.0,2283.0,40,L,27450497,27450705,210,537.4,551.4,5929,left
61,1,continuous,40,18,trial,27450329.0,27452612.0,2283.0,40,L,27450727,27451061,336,480.2,554.3,5140,left
61,1,continuous,40,18,trial,27450329.0,27452612.0,2283.0,40,L,27451073,27451311,240,449.0,560.3,4721,left
61,1,continuous,40,18,trial,27450329.0,27452612.0,2283.0,40,L,27451383,27451609,228,1505.6,587.3,4593,right
61,1,continuous,40,18,trial,27450329.0,27452612.0,2283.0,40,L,27451633,27451755,124,1399.7,571.1,4624,right
61,1,continuous,40,18,trial,27450329.0,27452612.0,2283.0,40,L,27451785,27452027,244,1625.1,596.5,4770,right
61,1,continuous,40,18,trial,27450329.0,27452612.0,2283.0,40,L,27452101,27452377,278,470.2,555.6,5133,left
61,1,continuous,40,18,postResponse,27450329.0,27452612.0,2283.0,40,L,27452399,27452961,564,552.7,484.3,4805,left
61,1,continuous,41,61,fixationCross,27453879.0,27456079.0,2200.0,41,L,27453037,27453391,356,558.0,482.2,5041,left
61,1,continuous,41,61,fixationCross,27453879.0,27456079.0,2200.0,41,L,27453417,27453559,144,728.9,530.4,5444,left
61,1,continuous,41,61,trial,27453879.0,27456079.0,2200.0,41,L,27453595,27454009,416,968.2,528.3,5675,NA
61,1,continuous,41,61,trial,27453879.0,27456079.0,2200.0,41,L,27454053,27454219,168,599.0,539.5,5848,left
61,1,continuous,41,61,trial,27453879.0,27456079.0,2200.0,41,L,27454243,27454367,126,509.1,567.2,5449,left
61,1,continuous,41,61,trial,27453879.0,27456079.0,2200.0,41,L,27454429,27454583,156,1372.0,467.6,4988,right
61,1,continuous,41,61,trial,27453879.0,27456079.0,2200.0,41,L,27454601,27454843,244,1359.0,440.3,4837,right
61,1,continuous,41,61,trial,27453879.0,27456079.0,2200.0,41,L,27454871,27455117,248,1562.0,578.6,4689,right
61,1,continuous,41,61,trial,27453879.0,27456079.0,2200.0,41,L,27455131,27455327,198,1507.9,545.2,4747,right
61,1,continuous,41,61,trial,27453879.0,27456079.0,2200.0,41,L,27455353,27455567,216,1331.4,461.6,4669,right
61,1,continuous,41,61,trial,27453879.0,27456079.0,2200.0,41,L,27455581,27455775,196,1293.3,489.9,4589,right
61,1,continuous,41,61,trial,27453879.0,27456079.0,2200.0,41,L,27455835,27456133,300,530.3,579.5,4876,left
61,1,continuous,41,61,trial,27453879.0,27456079.0,2200.0,41,L,27456155,27456291,138,470.5,514.2,5204,left
61,1,continuous,42,71,fixationCross,27457996.0,27461713.0,3717.0,42,L,27456533,27457003,472,670.6,509.6,5529,left
61,1,continuous,42,71,fixationCross,27457996.0,27461713.0,3717.0,42,L,27457025,27457689,666,793.0,500.3,5801,NA
61,1,continuous,42,71,trial,27457996.0,27461713.0,3717.0,42,L,27457711,27458119,410,943.8,529.8,6042,NA
61,1,continuous,42,71,trial,27457996.0,27461713.0,3717.0,42,L,27458167,27458307,142,628.7,527.6,6062,left
61,1,continuous,42,71,trial,27457996.0,27461713.0,3717.0,42,L,27458369,27458773,406,1524.7,542.1,5000,right
61,1,continuous,42,71,trial,27457996.0,27461713.0,3717.0,42,L,27458797,27459037,242,1635.9,634.3,4580,right
61,1,continuous,42,71,trial,27457996.0,27461713.0,3717.0,42,L,27459061,27459231,172,1535.4,542.7,4566,right
61,1,continuous,42,71,trial,27457996.0,27461713.0,3717.0,42,L,27459299,27459533,236,571.2,557.6,4722,left
61,1,continuous,42,71,trial,27457996.0,27461713.0,3717.0,42,L,27459555,27459983,430,501.7,595.8,4631,left
61,1,continuous,42,71,trial,27457996.0,27461713.0,3717.0,42,L,27460005,27460281,278,429.1,678.2,4659,left
61,1,continuous,42,71,trial,27457996.0,27461713.0,3717.0,42,L,27460303,27460417,116,521.8,618.0,4584,left
61,1,continuous,42,71,trial,27457996.0,27461713.0,3717.0,42,L,27460485,27460611,128,1438.4,533.4,4348,right
61,1,continuous,42,71,trial,27457996.0,27461713.0,3717.0,42,L,27460633,27461173,542,1515.6,547.2,4505,right
61,1,continuous,42,71,trial,27457996.0,27461713.0,3717.0,42,L,27461181,27461921,742,1527.5,541.2,4861,right
61,1,continuous,43,79,fixationCross,27462729.0,27464729.0,2000.0,43,L,27462143,27462425,284,1077.8,493.3,5420,NA
61,1,continuous,43,79,trial,27462729.0,27464729.0,2000.0,43,L,27462451,27462859,410,909.6,522.5,5785,NA
61,1,continuous,43,79,trial,27462729.0,27464729.0,2000.0,43,L,27462903,27463031,130,567.2,541.7,5856,left
61,1,continuous,43,79,trial,27462729.0,27464729.0,2000.0,43,L,27463055,27463281,228,387.2,535.0,5108,left
61,1,continuous,43,79,trial,27462729.0,27464729.0,2000.0,43,L,27463347,27463539,194,1392.4,603.8,4429,right
61,1,continuous,43,79,trial,27462729.0,27464729.0,2000.0,43,L,27463565,27464251,688,1522.3,692.8,4523,right
61,1,continuous,43,79,postResponse,27462729.0,27464729.0,2000.0,43,L,27464283,27465077,796,1454.4,561.7,4658,right
61,1,continuous,44,17,fixationCross,27465663.0,27469629.0,3966.0,44,L,27465151,27465337,188,1451.6,568.2,4855,right
61,1,continuous,44,17,trial,27465663.0,27469629.0,3966.0,44,L,27465393,27465807,416,904.2,516.5,5342,NA
61,1,continuous,44,17,trial,27465663.0,27469629.0,3966.0,44,L,27465849,27466037,190,563.8,507.0,5608,left
61,1,continuous,44,17,trial,27465663.0,27469629.0,3966.0,44,L,27466053,27466247,196,622.7,520.4,5461,left
61,1,continuous,44,17,trial,27465663.0,27469629.0,3966.0,44,L,27466309,27466441,134,1455.7,512.9,5218,right
61,1,continuous,44,17,trial,27465663.0,27469629.0,3966.0,44,L,27466465,27467281,818,1550.1,453.3,5118,right
61,1,continuous,44,17,trial,27465663.0,27469629.0,3966.0,44,L,27467343,27467515,174,681.6,529.7,5596,left
61,1,continuous,44,17,trial,27465663.0,27469629.0,3966.0,44,L,27467535,27467689,156,621.2,521.0,5640,left
61,1,continuous,44,17,trial,27465663.0,27469629.0,3966.0,44,L,27467729,27467937,210,370.4,522.5,5408,left
61,1,continuous,44,17,trial,27465663.0,27469629.0,3966.0,44,L,27467959,27468127,170,278.8,562.8,5242,left
61,1,continuous,44,17,trial,27465663.0,27469629.0,3966.0,44,L,27468151,27468337,188,419.1,497.0,5083,left
61,1,continuous,44,17,trial,27465663.0,27469629.0,3966.0,44,L,27468349,27468667,320,385.6,508.1,5037,left
61,1,continuous,44,17,trial,27465663.0,27469629.0,3966.0,44,L,27468699,27469059,362,639.3,515.9,4987,left
61,1,continuous,44,17,trial,27465663.0,27469629.0,3966.0,44,L,27469125,27469251,128,1519.6,506.1,5023,right
61,1,continuous,44,17,trial,27465663.0,27469629.0,3966.0,44,L,27469271,27469791,522,1549.1,450.6,5033,right
61,1,continuous,45,71,trial,27470496.0,27473380.0,2884.0,45,L,27470033,27470539,508,908.1,530.9,5457,NA
61,1,continuous,45,71,trial,27470496.0,27473380.0,2884.0,45,L,27470561,27470685,126,811.6,485.0,5699,NA
61,1,continuous,45,71,trial,27470496.0,27473380.0,2884.0,45,L,27470721,27470967,248,564.8,563.8,5543,left
61,1,continuous,45,71,trial,27470496.0,27473380.0,2884.0,45,L,27471029,27471343,316,1439.0,548.7,4997,right
61,1,continuous,45,71,trial,27470496.0,27473380.0,2884.0,45,L,27471365,27471729,366,1543.5,530.0,5026,right
61,1,continuous,45,71,trial,27470496.0,27473380.0,2884.0,45,L,27471807,27472063,258,488.5,609.1,5222,left
61,1,continuous,45,71,trial,27470496.0,27473380.0,2884.0,45,L,27472079,27472243,166,442.9,598.8,5073,left
61,1,continuous,45,71,trial,27470496.0,27473380.0,2884.0,45,L,27472269,27472651,384,348.0,570.6,4923,left
61,1,continuous,45,71,trial,27470496.0,27473380.0,2884.0,45,L,27472671,27473069,400,319.8,507.2,4689,left
61,1,continuous,45,71,trial,27470496.0,27473380.0,2884.0,45,L,27473081,27473569,490,284.1,507.8,4580,left
61,1,continuous,46,20,fixationCross,27474546.0,27477596.0,3050.0,46,L,27473813,27473939,128,922.5,482.5,4906,NA
61,1,continuous,46,20,fixationCross,27474546.0,27477596.0,3050.0,46,L,27473967,27474241,276,1127.0,501.8,5074,NA
61,1,continuous,46,20,trial,27474546.0,27477596.0,3050.0,46,L,27474265,27474607,344,968.9,524.2,5390,NA
61,1,continuous,46,20,trial,27474546.0,27477596.0,3050.0,46,L,27474637,27474737,102,814.5,498.4,5461,NA
61,1,continuous,46,20,trial,27474546.0,27477596.0,3050.0,46,L,27474777,27475213,438,515.5,515.0,4966,left
61,1,continuous,46,20,trial,27474546.0,27477596.0,3050.0,46,L,27475277,27475457,182,1477.0,606.1,4363,right
61,1,continuous,46,20,trial,27474546.0,27477596.0,3050.0,46,L,27475483,27475723,242,1614.9,658.9,4339,right
61,1,continuous,46,20,trial,27474546.0,27477596.0,3050.0,46,L,27475743,27475975,234,1618.6,725.0,4543,right
61,1,continuous,46,20,trial,27474546.0,27477596.0,3050.0,46,L,27476013,27476231,220,1535.8,484.8,4484,right
61,1,continuous,46,20,trial,27474546.0,27477596.0,3050.0,46,L,27476307,27476501,196,429.4,544.9,4557,left
61,1,continuous,46,20,trial,27474546.0,27477596.0,3050.0,46,L,27476575,27476777,204,1559.1,691.4,4576,right
61,1,continuous,46,20,trial,27474546.0,27477596.0,3050.0,46,L,27476799,27477139,342,1627.4,734.6,4735,NA
61,1,continuous,46,20,trial,27474546.0,27477596.0,3050.0,46,L,27477215,27477419,206,477.5,600.2,4775,left
61,1,continuous,46,20,postResponse,27474546.0,27477596.0,3050.0,46,L,27477443,27477929,488,492.6,519.5,4733,left
61,1,continuous,47,97,fixationCross,27479663.0,27482613.0,2950.0,47,L,27478187,27479077,892,616.8,482.7,5482,left
61,1,continuous,47,97,fixationCross,27479663.0,27482613.0,2950.0,47,L,27479107,27479353,248,848.2,514.4,5694,NA
61,1,continuous,47,97,fixationCross,27479663.0,27482613.0,2950.0,47,L,27479373,27479579,208,944.4,508.1,5845,NA
61,1,continuous,47,97,trial,27479663.0,27482613.0,2950.0,47,L,27479601,27479811,212,995.2,552.8,6032,NA
61,1,continuous,47,97,trial,27479663.0,27482613.0,2950.0,47,L,27479859,27480043,186,595.8,539.8,6001,left
61,1,continuous,47,97,trial,27479663.0,27482613.0,2950.0,47,L,27480069,27480319,252,596.6,679.5,5212,left
61,1,continuous,47,97,trial,27479663.0,27482613.0,2950.0,47,L,27480331,27480511,182,629.6,704.9,4832,left
61,1,continuous,47,97,trial,27479663.0,27482613.0,2950.0,47,L,27480523,27480651,130,600.2,715.9,4731,left
61,1,continuous,47,97,trial,27479663.0,27482613.0,2950.0,47,L,27480689,27481007,320,569.3,468.8,4723,left
61,1,continuous,47,97,trial,27479663.0,27482613.0,2950.0,47,L,27481043,27481237,196,640.4,700.6,4814,left
61,1,continuous,47,97,trial,27479663.0,27482613.0,2950.0,47,L,27481253,27481475,224,596.0,714.1,4979,left
61,1,continuous,47,97,trial,27479663.0,27482613.0,2950.0,47,L,27481489,27481691,204,560.5,738.8,5086,NA
61,1,continuous,47,97,trial,27479663.0,27482613.0,2950.0,47,L,27481823,27481843,22,1481.8,598.8,5049,right
61,1,continuous,47,97,trial,27479663.0,27482613.0,2950.0,47,L,27481891,27482059,170,1488.4,600.7,4988,right
61,1,continuous,47,97,postResponse,27479663.0,27482613.0,2950.0,47,L,27482077,27482947,872,1539.0,634.0,4533,right
61,1,continuous,48,75,trial,27483580.0,27485746.0,2166.0,48,L,27483369,27483713,346,931.2,526.1,5413,NA
61,1,continuous,48,75,trial,27483580.0,27485746.0,2166.0,48,L,27483751,27483911,162,633.3,545.0,5672,left
61,1,continuous,48,75,trial,27483580.0,27485746.0,2166.0,48,L,27483977,27484133,158,1572.2,463.4,5249,right
61,1,continuous,48,75,trial,27483580.0,27485746.0,2166.0,48,L,27484157,27484347,192,1621.5,419.8,4941,right
61,1,continuous,48,75,trial,27483580.0,27485746.0,2166.0,48,L,27484357,27484927,572,1597.8,403.2,5051,right
61,1,continuous,48,75,trial,27483580.0,27485746.0,2166.0,48,L,27485003,27485229,228,564.4,620.3,5540,left
61,1,continuous,48,75,trial,27483580.0,27485746.0,2166.0,48,L,27485255,27485545,292,523.0,514.7,5289,left
61,1,continuous,48,75,postResponse,27483580.0,27485746.0,2166.0,48,L,27485617,27486065,450,1540.7,506.4,4826,right
61,1,continuous,49,26,fixationCross,27487480.0,27491679.0,4199.0,49,L,27486179,27486455,278,966.1,522.9,5383,NA
61,1,continuous,49,26,fixationCross,27487480.0,27491679.0,4199.0,49,L,27486489,27487265,778,797.3,497.0,5837,NA
61,1,continuous,49,26,trial,27487480.0,27491679.0,4199.0,49,L,27487283,27487621,340,903.5,504.4,6073,NA
61,1,continuous,49,26,trial,27487480.0,27491679.0,4199.0,49,L,27487665,27487809,146,585.4,534.3,6171,left
61,1,continuous,49,26,trial,27487480.0,27491679.0,4199.0,49,L,27487835,27488135,302,515.4,625.1,5656,left
61,1,continuous,49,26,trial,27487480.0,27491679.0,4199.0,49,L,27488151,27488369,220,467.3,615.2,5506,left
61,1,continuous,49,26,trial,27487480.0,27491679.0,4199.0,49,L,27488437,27488653,218,1402.2,565.1,5433,right
61,1,continuous,49,26,trial,27487480.0,27491679.0,4199.0,49,L,27488675,27489045,372,1517.0,564.5,5102,right
61,1,continuous,49,26,trial,27487480.0,27491679.0,4199.0,49,L,27489061,27489469,410,1455.2,568.0,4894,right
61,1,continuous,49,26,trial,27487480.0,27491679.0,4199.0,49,L,27489483,27489867,386,1403.2,552.6,5201,right
61,1,continuous,49,26,trial,27487480.0,27491679.0,4199.0,49,L,27489883,27489907,26,1460.2,539.3,5335,right
61,1,continuous,49,26,trial,27487480.0,27491679.0,4199.0,49,L,27490095,27490321,228,436.1,518.9,5303,left
61,1,continuous,49,26,trial,27487480.0,27491679.0,4199.0,49,L,27490345,27490691,348,462.6,617.9,5363,left
61,1,continuous,49,26,trial,27487480.0,27491679.0,4199.0,49,L,27490713,27490909,198,572.0,662.3,5486,left
61,1,continuous,49,26,trial,27487480.0,27491679.0,4199.0,49,L,27491093,27491131,40,412.4,500.8,5311,left
61,1,continuous,49,26,postResponse,27487480.0,27491679.0,4199.0,49,L,27491201,27492025,826,1529.5,576.2,5130,right
61,1,continuous,50,42,fixationCross,27493030.0,27496013.0,2983.0,50,L,27492125,27492321,198,802.9,476.0,5292,NA
61,1,continuous,50,42,fixationCross,27493030.0,27496013.0,2983.0,50,L,27492343,27492717,376,735.1,511.6,5658,left
61,1,continuous,50,42,trial,27493030.0,27496013.0,2983.0,50,L,27492741,27493165,426,898.5,517.3,5980,NA
61,1,continuous,50,42,trial,27493030.0,27496013.0,2983.0,50,L,27493197,27493347,152,624.3,536.5,6110,left
61,1,continuous,50,42,trial,27493030.0,27496013.0,2983.0,50,L,27493371,27493525,156,492.4,468.3,5644,left
61,1,continuous,50,42,trial,27493030.0,27496013.0,2983.0,50,L,27493545,27493943,400,514.0,419.4,4959,left
61,1,continuous,50,42,trial,27493030.0,27496013.0,2983.0,50,L,27494013,27494299,288,1416.3,619.0,4851,right
61,1,continuous,50,42,trial,27493030.0,27496013.0,2983.0,50,L,27494325,27494547,224,1577.2,631.9,5055,right
61,1,continuous,50,42,trial,27493030.0,27496013.0,2983.0,50,L,27494573,27495041,470,1370.5,633.9,5290,right
61,1,continuous,50,42,trial,27493030.0,27496013.0,2983.0,50,L,27495129,27495203,76,705.9,527.6,5234,left
61,1,continuous,50,42,trial,27493030.0,27496013.0,2983.0,50,L,27495237,27495693,458,514.1,516.5,4939,left
61,1,continuous,50,42,postResponse,27493030.0,27496013.0,2983.0,50,L,27495719,27496345,628,494.7,421.1,4701,left
61,2,binary,1,2,fixationCross,27549714.0,27553930.0,4216.0,51,L,27549125,27549407,284,1180.1,710.9,6372,NA
61,2,binary,1,2,fixationCross,27549714.0,27553930.0,4216.0,51,L,27549445,27549591,148,1006.4,586.1,6376,NA
61,2,binary,1,2,trial,27549714.0,27553930.0,4216.0,51,L,27549607,27549899,294,940.9,558.9,6486,NA
61,2,binary,1,2,trial,27549714.0,27553930.0,4216.0,51,L,27549945,27550181,238,542.3,572.5,6396,left
61,2,binary,1,2,trial,27549714.0,27553930.0,4216.0,51,L,27550231,27550433,204,970.9,988.1,5728,likertHorizontal
61,2,binary,1,2,trial,27549714.0,27553930.0,4216.0,51,L,27550483,27550693,212,504.9,1025.5,5474,NA
61,2,binary,1,2,trial,27549714.0,27553930.0,4216.0,51,L,27550745,27550847,104,784.1,707.6,5562,NA
61,2,binary,1,2,trial,27549714.0,27553930.0,4216.0,51,L,27550889,27551009,122,1089.3,840.9,5653,likertHorizontal
61,2,binary,1,2,trial,27549714.0,27553930.0,4216.0,51,L,27551037,27551229,194,937.1,992.3,5785,likertHorizontal
61,2,binary,1,2,trial,27549714.0,27553930.0,4216.0,51,L,27551275,27551499,226,498.0,958.6,6014,NA
61,2,binary,1,2,trial,27549714.0,27553930.0,4216.0,51,L,27551569,27551613,46,1118.6,587.7,6169,NA
61,2,binary,1,2,trial,27549714.0,27553930.0,4216.0,51,L,27551645,27551819,176,1392.3,549.7,6181,right
61,2,binary,1,2,trial,27549714.0,27553930.0,4216.0,51,L,27551845,27552115,272,1517.3,577.6,5723,right
61,2,binary,1,2,trial,27549714.0,27553930.0,4216.0,51,L,27552139,27552297,160,1410.5,621.6,5242,right
61,2,binary,1,2,trial,27549714.0,27553930.0,4216.0,51,L,27552321,27552539,220,1454.8,699.5,5077,right
61,2,binary,1,2,trial,27549714.0,27553930.0,4216.0,51,L,27552555,27552807,254,1476.1,651.3,5027,right
61,2,binary,1,2,trial,27549714.0,27553930.0,4216.0,51,L,27552875,27553021,148,455.4,580.0,5092,left
61,2,binary,1,2,trial,27549714.0,27553930.0,4216.0,51,L,27553045,27553385,342,309.8,569.8,5096,left
61,2,binary,1,2,trial,27549714.0,27553930.0,4216.0,51,L,27553455,27553707,254,1415.7,662.4,5144,right
61,2,binary,1,2,trial,27549714.0,27553930.0,4216.0,51,L,27553745,27553969,226,1486.8,498.7,5023,right
61,2,binary,1,2,trial,27549714.0,27553930.0,4216.0,51,L,27553991,27554195,206,1531.3,579.9,4963,right
61,2,binary,2,2,fixationCross,27554830.0,27557030.0,2200.0,52,L,27554363,27554815,454,919.4,520.8,5432,NA
61,2,binary,2,2,trial,27554830.0,27557030.0,2200.0,52,L,27554829,27554985,158,951.2,534.8,5839,NA
61,2,binary,2,2,trial,27554830.0,27557030.0,2200.0,52,L,27555029,27555221,194,574.2,558.3,5936,left
61,2,binary,2,2,trial,27554830.0,27557030.0,2200.0,52,L,27555241,27555523,284,469.8,535.4,5111,left
61,2,binary,2,2,trial,27554830.0,27557030.0,2200.0,52,L,27555589,27555835,248,1365.7,663.2,4402,right
61,2,binary,2,2,trial,27554830.0,27557030.0,2200.0,52,L,27555863,27556117,256,1551.1,643.9,4207,right
61,2,binary,2,2,trial,27554830.0,27557030.0,2200.0,52,L,27556153,27556463,312,1317.5,652.6,4378,right
61,2,binary,2,2,trial,27554830.0,27557030.0,2200.0,52,L,27556505,27556701,198,1495.2,973.3,4680,NA
61,2,binary,2,2,trial,27554830.0,27557030.0,2200.0,52,L,27556745,27557075,332,1415.6,547.3,4970,right
61,2,binary,2,2,trial,27554830.0,27557030.0,2200.0,52,L,27557141,27557289,150,541.8,575.0,4746,left
61,2,binary,3,2,fixationCross,27558914.0,27561230.0,2316.0,53,L,27557511,27558611,1102,780.4,496.9,5288,NA
61,2,binary,3,2,fixationCross,27558914.0,27561230.0,2316.0,53,L,27558633,27558845,214,891.1,510.8,5869,NA
61,2,binary,3,2,trial,27558914.0,27561230.0,2316.0,53,L,27558863,27559055,194,952.1,527.7,6088,NA
61,2,binary,3,2,trial,27558914.0,27561230.0,2316.0,53,L,27559103,27559301,200,545.3,549.7,6147,left
61,2,binary,3,2,trial,27558914.0,27561230.0,2316.0,53,L,27559323,27559495,174,435.7,539.4,5534,left
61,2,binary,3,2,trial,27558914.0,27561230.0,2316.0,53,L,27559559,27559683,126,1327.8,559.4,5103,right
61,2,binary,3,2,trial,27558914.0,27561230.0,2316.0,53,L,27559701,27560707,1008,1388.1,581.8,4835,right
61,2,binary,3,2,trial,27558914.0,27561230.0,2316.0,53,L,27560769,27560959,192,507.8,553.0,5112,left
61,2,binary,3,2,trial,27558914.0,27561230.0,2316.0,53,L,27560975,27561131,158,432.6,574.4,5228,left
61,2,binary,3,2,postResponse,27558914.0,27561230.0,2316.0,53,L,27561193,27561563,372,1312.6,614.9,5143,right
61,2,binary,4,2,fixationCross,27562147.0,27564481.0,2334.0,54,L,27561665,27562135,472,923.3,538.7,5449,NA
61,2,binary,4,2,trial,27562147.0,27564481.0,2334.0,54,L,27562149,27562313,166,956.6,546.8,5814,NA
61,2,binary,4,2,trial,27562147.0,27564481.0,2334.0,54,L,27562359,27562597,240,534.1,545.3,5901,left
61,2,binary,4,2,trial,27562147.0,27564481.0,2334.0,54,L,27562619,27562753,136,440.5,642.8,5437,left
61,2,binary,4,2,trial,27562147.0,27564481.0,2334.0,54,L,27562823,27563031,210,1457.1,586.9,4901,right
61,2,binary,4,2,trial,27562147.0,27564481.0,2334.0,54,L,27563049,27563411,364,1471.3,518.9,4783,right
61,2,binary,4,2,trial,27562147.0,27564481.0,2334.0,54,L,27563435,27563645,212,1551.6,627.8,4982,right
61,2,binary,4,2,trial,27562147.0,27564481.0,2334.0,54,L,27563717,27563927,212,493.2,613.7,5209,left
61,2,binary,4,2,trial,27562147.0,27564481.0,2334.0,54,L,27563951,27564385,436,443.7,681.2,5026,left
61,2,binary,4,2,postResponse,27562147.0,27564481.0,2334.0,54,L,27564453,27564815,364,1441.4,586.2,4844,right
61,2,binary,5,1,fixationCross,27565814.0,27567864.0,2050.0,55,L,27564917,27564957,42,829.9,411.9,5549,NA
61,2,binary,5,1,fixationCross,27565814.0,27567864.0,2050.0,55,L,27564977,27565503,528,846.3,524.1,5477,NA
61,2,binary,5,1,trial,27565814.0,27567864.0,2050.0,55,L,27565517,27565835,320,895.4,520.5,5842,NA
61,2,binary,5,1,trial,27565814.0,27567864.0,2050.0,55,L,27565861,27565983,124,742.9,527.2,5908,NA
61,2,binary,5,1,trial,27565814.0,27567864.0,2050.0,55,L,27566017,27566191,176,493.8,593.5,5855,left
61,2,binary,5,1,trial,27565814.0,27567864.0,2050.0,55,L,27566221,27566395,176,462.6,480.8,5260,left
61,2,binary,5,1,trial,27565814.0,27567864.0,2050.0,55,L,27566409,27566517,110,482.7,445.8,4896,left
61,2,binary,5,1,trial,27565814.0,27567864.0,2050.0,55,L,27566579,27566799,222,1346.0,576.8,4593,right
61,2,binary,5,1,trial,27565814.0,27567864.0,2050.0,55,L,27566815,27566913,100,1348.2,530.3,4557,right
61,2,binary,5,1,trial,27565814.0,27567864.0,2050.0,55,L,27566941,27567297,358,1478.6,684.8,4785,right
61,2,binary,5,1,trial,27565814.0,27567864.0,2050.0,55,L,27567339,27567519,182,1327.1,423.3,4773,right
61,2,binary,5,1,trial,27565814.0,27567864.0,2050.0,55,L,27567589,27567783,196,404.3,762.1,4910,NA
61,2,binary,5,1,postResponse,27565814.0,27567864.0,2050.0,55,L,27567811,27568199,390,413.2,599.8,4907,left
61,2,binary,6,2,fixationCross,27568864.0,27571897.0,3033.0,56,L,27568281,27568543,264,711.9,500.1,4997,left
61,2,binary,6,2,trial,27568864.0,27571897.0,3033.0,56,L,27568569,27568995,428,896.8,521.1,5391,NA
61,2,binary,6,2,trial,27568864.0,27571897.0,3033.0,56,L,27569035,27569183,150,601.8,542.1,5741,left
61,2,binary,6,2,trial,27568864.0,27571897.0,3033.0,56,L,27569209,27569439,232,491.9,574.6,5418,left
61,2,binary,6,2,trial,27568864.0,27571897.0,3033.0,56,L,27569505,27569687,184,1416.3,631.4,4830,right
61,2,binary,6,2,trial,27568864.0,27571897.0,3033.0,56,L,27569707,27569971,266,1516.6,637.4,4498,right
61,2,binary,6,2,trial,27568864.0,27571897.0,3033.0,56,L,27569987,27570397,412,1563.7,641.2,4520,right
61,2,binary,6,2,trial,27568864.0,27571897.0,3033.0,56,L,27570433,27570689,258,1349.5,490.8,4631,right
61,2,binary,6,2,trial,27568864.0,27571897.0,3033.0,56,L,27570719,27570973,256,1464.8,671.2,4644,right
61,2,binary,6,2,trial,27568864.0,27571897.0,3033.0,56,L,27570987,27571575,590,1498.9,635.7,4863,right
61,2,binary,6,2,trial,27568864.0,27571897.0,3033.0,56,L,27571641,27571845,206,612.1,553.0,5290,left
61,2,binary,6,2,postResponse,27568864.0,27571897.0,3033.0,56,L,27571905,27572231,328,1452.2,566.2,5100,right
61,2,binary,7,1,fixationCross,27572814.0,27575564.0,2750.0,57,L,27572307,27572331,26,1464.6,573.1,4860,right
61,2,binary,7,1,trial,27572814.0,27575564.0,2750.0,57,L,27572367,27572957,592,976.5,532.8,5247,NA
61,2,binary,7,1,trial,27572814.0,27575564.0,2750.0,57,L,27573001,27573261,262,541.4,569.4,5651,left
61,2,binary,7,1,trial,27572814.0,27575564.0,2750.0,57,L,27573271,27573473,204,524.3,557.8,5119,left
61,2,binary,7,1,trial,27572814.0,27575564.0,2750.0,57,L,27573499,27573761,264,391.1,538.3,4739,left
61,2,binary,7,1,trial,27572814.0,27575564.0,2750.0,57,L,27573777,27573971,196,348.1,522.9,4571,left
61,2,binary,7,1,trial,27572814.0,27575564.0,2750.0,57,L,27573997,27574147,152,367.4,629.7,4555,left
61,2,binary,7,1,trial,27572814.0,27575564.0,2750.0,57,L,27574217,27574445,230,1485.1,618.6,4525,right
61,2,binary,7,1,trial,27572814.0,27575564.0,2750.0,57,L,27574473,27574625,154,1431.7,512.0,4571,right
61,2,binary,7,1,trial,27572814.0,27575564.0,2750.0,57,L,27574639,27575181,544,1368.9,515.5,4908,right
61,2,binary,7,1,trial,27572814.0,27575564.0,2750.0,57,L,27575251,27575409,160,408.1,746.9,5278,NA
61,2,binary,7,1,trial,27572814.0,27575564.0,2750.0,57,L,27575441,27575863,424,417.1,531.4,5057,left
61,2,binary,8,1,trial,27576480.0,27578380.0,1900.0,58,L,27576209,27576481,274,990.8,550.9,5410,NA
61,2,binary,8,1,trial,27576480.0,27578380.0,1900.0,58,L,27576501,27576641,142,918.2,525.3,5618,NA
61,2,binary,8,1,trial,27576480.0,27578380.0,1900.0,58,L,27576685,27576895,212,550.8,529.0,5640,left
61,2,binary,8,1,trial,27576480.0,27578380.0,1900.0,58,L,27576915,27577153,240,493.0,500.6,5030,left
61,2,binary,8,1,trial,27576480.0,27578380.0,1900.0,58,L,27577219,27577381,164,1464.4,566.4,4667,right
61,2,binary,8,1,trial,27576480.0,27578380.0,1900.0,58,L,27577403,27577571,170,1513.4,485.8,4555,right
61,2,binary,8,1,trial,27576480.0,27578380.0,1900.0,58,L,27577583,27577835,254,1524.0,460.0,4638,right
61,2,binary,8,1,trial,27576480.0,27578380.0,1900.0,58,L,27577911,27578183,274,414.8,537.6,5059,left
61,2,binary,8,1,trial,27576480.0,27578380.0,1900.0,58,L,27578247,27578631,386,1385.5,683.0,4715,right
61,2,binary,9,2,fixationCross,27580364.0,27584014.0,3650.0,59,L,27578789,27579601,814,804.4,471.5,5374,NA
61,2,binary,9,2,fixationCross,27580364.0,27584014.0,3650.0,59,L,27579623,27579855,234,669.5,505.3,5781,left
61,2,binary,9,2,fixationCross,27580364.0,27584014.0,3650.0,59,L,27579877,27580073,198,792.1,516.4,5838,NA
61,2,binary,9,2,trial,27580364.0,27584014.0,3650.0,59,L,27580095,27580447,354,919.7,509.3,5893,NA
61,2,binary,9,2,trial,27580364.0,27584014.0,3650.0,59,L,27580459,27580495,38,960.0,518.2,5963,NA
61,2,binary,9,2,trial,27580364.0,27584014.0,3650.0,59,L,27580541,27580947,408,515.3,493.3,5584,left
61,2,binary,9,2,trial,27580364.0,27584014.0,3650.0,59,L,27580979,27581217,240,509.8,709.8,4741,left
61,2,binary,9,2,trial,27580364.0,27584014.0,3650.0,59,L,27581287,27581465,180,1508.1,543.7,4490,right
61,2,binary,9,2,trial,27580364.0,27584014.0,3650.0,59,L,27581495,27581935,442,1499.8,707.1,4529,right
61,2,binary,9,2,trial,27580364.0,27584014.0,3650.0,59,L,27581971,27582343,374,1489.5,513.2,4743,right
61,2,binary,9,2,trial,27580364.0,27584014.0,3650.0,59,L,27582373,27582665,294,1471.9,667.0,4739,right
61,2,binary,9,2,trial,27580364.0,27584014.0,3650.0,59,L,27582689,27582927,240,1483.5,576.6,4868,right
61,2,binary,9,2,trial,27580364.0,27584014.0,3650.0,59,L,27582997,27583215,220,503.1,538.9,4805,left
61,2,binary,9,2,trial,27580364.0,27584014.0,3650.0,59,L,27583231,27583499,270,493.8,498.3,4624,left
61,2,binary,9,2,trial,27580364.0,27584014.0,3650.0,59,L,27583523,27583803,282,504.3,576.7,4607,left
61,2,binary,9,2,trial,27580364.0,27584014.0,3650.0,59,L,27583833,27584279,448,521.4,736.1,4769,NA
61,2,binary,10,1,fixationCross,27584881.0,27587814.0,2933.0,60,L,27584423,27584513,92,744.1,386.4,4898,NA
61,2,binary,10,1,trial,27584881.0,27587814.0,2933.0,60,L,27584541,27585031,492,910.1,479.8,5323,NA
61,2,binary,10,1,trial,27584881.0,27587814.0,2933.0,60,L,27585069,27585257,190,586.9,516.6,5676,left
61,2,binary,10,1,trial,27584881.0,27587814.0,2933.0,60,L,27585325,27585651,328,1446.7,592.2,5023,right
61,2,binary,10,1,trial,27584881.0,27587814.0,2933.0,60,L,27585671,27585937,268,1485.9,528.0,4622,right
61,2,binary,10,1,trial,27584881.0,27587814.0,2933.0,60,L,27585961,27586241,282,1460.6,427.1,4374,right
61,2,binary,10,1,trial,27584881.0,27587814.0,2933.0,60,L,27586259,27586469,212,1454.8,378.5,4283,right
61,2,binary,10,1,trial,27584881.0,27587814.0,2933.0,60,L,27586497,27586869,374,1640.0,429.1,4439,right
61,2,binary,10,1,trial,27584881.0,27587814.0,2933.0,60,L,27586889,27587177,290,1651.2,481.1,4741,right
61,2,binary,10,1,trial,27584881.0,27587814.0,2933.0,60,L,27587247,27587439,194,617.7,520.0,5042,left
61,2,binary,10,1,postResponse,27584881.0,27587814.0,2933.0,60,L,27587465,27588147,684,404.9,568.4,4639,left
61,2,binary,11,1,fixationCross,27589465.0,27593381.0,3916.0,61,L,27588351,27588351,2,754.3,382.3,5074,NA
61,2,binary,11,1,fixationCross,27589465.0,27593381.0,3916.0,61,L,27588389,27588803,416,775.0,457.5,5180,NA
61,2,binary,11,1,fixationCross,27589465.0,27593381.0,3916.0,61,L,27588829,27589153,326,847.5,603.9,5561,NA
61,2,binary,11,1,trial,27589465.0,27593381.0,3916.0,61,L,27589171,27589597,428,919.7,548.9,5685,NA
61,2,binary,11,1,trial,27589465.0,27593381.0,3916.0,61,L,27589647,27589761,116,487.2,521.7,5890,left
61,2,binary,11,1,trial,27589465.0,27593381.0,3916.0,61,L,27589787,27590077,292,379.1,450.5,5105,left
61,2,binary,11,1,trial,27589465.0,27593381.0,3916.0,61,L,27590105,27590261,158,601.5,460.1,4408,left
61,2,binary,11,1,trial,27589465.0,27593381.0,3916.0,61,L,27590323,27590587,266,1460.8,522.7,4190,right
61,2,binary,11,1,trial,27589465.0,27593381.0,3916.0,61,L,27590603,27590771,170,1504.1,488.2,4192,right
61,2,binary,11,1,trial,27589465.0,27593381.0,3916.0,61,L,27590793,27591073,282,1477.4,421.5,4497,right
61,2,binary,11,1,trial,27589465.0,27593381.0,3916.0,61,L,27591139,27591541,404,526.5,509.6,4957,left
61,2,binary,11,1,trial,27589465.0,27593381.0,3916.0,61,L,27591567,27592157,592,379.8,442.8,4671,left
61,2,binary,11,1,trial,27589465.0,27593381.0,3916.0,61,L,27592175,27592327,154,456.6,447.9,4666,left
61,2,binary,11,1,trial,27589465.0,27593381.0,3916.0,61,L,27592393,27592603,212,1417.4,475.0,4728,right
61,2,binary,11,1,trial,27589465.0,27593381.0,3916.0,61,L,27592621,27592815,196,1490.8,488.0,4637,right
61,2,binary,11,1,trial,27589465.0,27593381.0,3916.0,61,L,27592843,27593239,398,1499.9,634.9,4851,right
61,2,binary,11,1,trial,27589465.0,27593381.0,3916.0,61,L,27593315,27593613,300,484.4,906.2,5091,NA
61,2,binary,11,1,postResponse,27589465.0,27593381.0,3916.0,61,L,27593667,27593715,50,640.6,399.8,4918,left
61,2,binary,12,2,fixationCross,27595998.0,27599848.0,3850.0,62,L,27593815,27594053,240,654.1,398.4,5118,left
61,2,binary,12,2,fixationCross,27595998.0,27599848.0,3850.0,62,L,27594253,27594651,400,860.6,499.5,5591,NA
61,2,binary,12,2,fixationCross,27595998.0,27599848.0,3850.0,62,L,27594689,27595077,390,670.5,461.0,5736,left
61,2,binary,12,2,fixationCross,27595998.0,27599848.0,3850.0,62,L,27595101,27595653,554,795.9,479.1,5784,NA
61,2,binary,12,2,fixationCross,27595998.0,27599848.0,3850.0,62,L,27595673,27595925,254,903.0,468.4,5940,NA
61,2,binary,12,2,trial,27595998.0,27599848.0,3850.0,62,L,27595947,27596143,198,973.6,541.4,6003,NA
61,2,binary,12,2,trial,27595998.0,27599848.0,3850.0,62,L,27596189,27596411,224,539.8,536.7,5878,left
61,2,binary,12,2,trial,27595998.0,27599848.0,3850.0,62,L,27596433,27596701,270,432.0,532.3,4895,left
61,2,binary,12,2,trial,27595998.0,27599848.0,3850.0,62,L,27596769,27596907,140,1411.0,595.8,4371,right
61,2,binary,12,2,trial,27595998.0,27599848.0,3850.0,62,L,27596929,27597107,180,1500.5,609.8,4282,right
61,2,binary,12,2,trial,27595998.0,27599848.0,3850.0,62,L,27597121,27597323,204,1480.6,582.5,4333,right
61,2,binary,12,2,trial,27595998.0,27599848.0,3850.0,62,L,27597343,27597607,266,1466.7,649.5,4541,right
61,2,binary,12,2,trial,27595998.0,27599848.0,3850.0,62,L,27597687,27597871,186,535.9,529.0,4647,left
61,2,binary,12,2,trial,27595998.0,27599848.0,3850.0,62,L,27597897,27598323,428,414.8,544.6,4429,left
61,2,binary,12,2,trial,27595998.0,27599848.0,3850.0,62,L,27598411,27598997,588,1412.2,588.8,4470,right
61,2,binary,12,2,trial,27595998.0,27599848.0,3850.0,62,L,27599013,27599327,316,1464.2,583.2,4969,right
61,2,binary,12,2,trial,27595998.0,27599848.0,3850.0,62,L,27599337,27599587,252,1450.4,564.9,5074,right
61,2,binary,12,2,trial,27595998.0,27599848.0,3850.0,62,L,27599605,27600127,524,1402.4,610.2,4946,right
61,2,binary,13,2,fixationCross,27601181.0,27603331.0,2150.0,63,L,27600283,27600753,472,837.6,510.2,5213,NA
61,2,binary,13,2,trial,27601181.0,27603331.0,2150.0,63,L,27601005,27601201,198,869.2,501.2,5548,NA
61,2,binary,13,2,trial,27601181.0,27603331.0,2150.0,63,L,27601471,27601559,90,537.7,520.4,5613,left
61,2,binary,13,2,trial,27601181.0,27603331.0,2150.0,63,L,27601577,27601801,226,465.2,540.2,5281,left
61,2,binary,13,2,trial,27601181.0,27603331.0,2150.0,63,L,27601821,27602023,204,471.2,481.1,4765,left
61,2,binary,13,2,trial,27601181.0,27603331.0,2150.0,63,L,27602089,27602277,190,1427.4,567.5,4455,right
61,2,binary,13,2,trial,27601181.0,27603331.0,2150.0,63,L,27602297,27602585,290,1518.9,547.6,4155,right
61,2,binary,13,2,trial,27601181.0,27603331.0,2150.0,63,L,27602661,27602877,218,400.4,537.0,3985,left
61,2,binary,13,2,postResponse,27601181.0,27603331.0,2150.0,63,L,27602947,27603665,720,1462.4,561.7,4153,right
61,2,binary,14,1,trial,27604198.0,27606181.0,1983.0,64,L,27603881,27604237,358,979.2,482.6,4880,NA
61,2,binary,14,1,trial,27604198.0,27606181.0,1983.0,64,L,27604263,27604375,114,778.6,512.3,5216,NA
61,2,binary,14,1,trial,27604198.0,27606181.0,1983.0,64,L,27604419,27604573,156,454.3,512.5,5332,left
61,2,binary,14,1,trial,27604198.0,27606181.0,1983.0,64,L,27604597,27604857,262,371.8,458.5,4758,left
61,2,binary,14,1,trial,27604198.0,27606181.0,1983.0,64,L,27604881,27605057,178,496.5,460.5,4428,left
61,2,binary,14,1,trial,27604198.0,27606181.0,1983.0,64,L,27605131,27605367,238,1545.7,575.6,4314,right
61,2,binary,14,1,trial,27604198.0,27606181.0,1983.0,64,L,27605377,27605567,192,1568.8,564.1,4322,right
61,2,binary,14,1,trial,27604198.0,27606181.0,1983.0,64,L,27605593,27605897,306,1669.6,674.2,4501,right
61,2,binary,14,1,trial,27604198.0,27606181.0,1983.0,64,L,27605945,27606093,150,1247.0,672.2,4674,right
61,2,binary,14,1,postResponse,27604198.0,27606181.0,1983.0,64,L,27606157,27606515,360,552.1,487.5,4803,left
61,2,binary,15,1,fixationCross,27608831.0,27612181.0,3350.0,65,L,27606591,27606893,304,560.8,486.9,4821,left
61,2,binary,15,1,fixationCross,27608831.0,27612181.0,3350.0,65,L,27606919,27607645,728,747.1,496.3,5425,NA
61,2,binary,15,1,fixationCross,27608831.0,27612181.0,3350.0,65,L,27607667,27607913,248,686.4,468.0,5690,left
61,2,binary,15,1,fixationCross,27608831.0,27612181.0,3350.0,65,L,27607933,27608523,592,801.7,472.9,5776,NA
61,2,binary,15,1,fixationCross,27608831.0,27612181.0,3350.0,65,L,27608543,27608741,200,897.0,501.9,5841,NA
61,2,binary,15,1,trial,27608831.0,27612181.0,3350.0,65,L,27608761,27608969,210,969.2,538.1,5870,NA
61,2,binary,15,1,trial,27608831.0,27612181.0,3350.0,65,L,27609015,27609155,142,559.7,530.0,5860,left
61,2,binary,15,1,trial,27608831.0,27612181.0,3350.0,65,L,27609181,27609357,178,434.3,473.2,5140,left
61,2,binary,15,1,trial,27608831.0,27612181.0,3350.0,65,L,27609367,27609781,416,413.2,477.5,4473,left
61,2,binary,15,1,trial,27608831.0,27612181.0,3350.0,65,L,27609851,27610833,984,1472.6,612.9,4301,right
61,2,binary,15,1,trial,27608831.0,27612181.0,3350.0,65,L,27610855,27611187,334,1552.3,545.7,4274,right
61,2,binary,15,1,trial,27608831.0,27612181.0,3350.0,65,L,27611261,27611549,290,521.1,535.7,4278,left
61,2,binary,15,1,trial,27608831.0,27612181.0,3350.0,65,L,27611575,27612037,464,387.6,501.9,4298,left
61,2,binary,15,1,trial,27608831.0,27612181.0,3350.0,65,L,27612053,27612401,350,400.5,445.5,4747,left
61,2,binary,16,1,fixationCross,27614198.0,27616614.0,2416.0,66,L,27612623,27612791,170,673.5,448.0,4965,left
61,2,binary,16,1,fixationCross,27614198.0,27616614.0,2416.0,66,L,27612813,27613885,1074,814.3,452.9,5415,NA
61,2,binary,16,1,trial,27614198.0,27616614.0,2416.0,66,L,27613911,27614383,474,947.1,493.7,5823,NA
61,2,binary,16,1,trial,27614198.0,27616614.0,2416.0,66,L,27614425,27614569,146,590.7,524.6,5827,left
61,2,binary,16,1,trial,27614198.0,27616614.0,2416.0,66,L,27614595,27614943,350,477.0,581.3,4864,left
61,2,binary,16,1,trial,27614198.0,27616614.0,2416.0,66,L,27615005,27615167,164,1379.7,634.9,4189,right
61,2,binary,16,1,trial,27614198.0,27616614.0,2416.0,66,L,27615193,27615411,220,1551.4,583.0,3979,right
61,2,binary,16,1,trial,27614198.0,27616614.0,2416.0,66,L,27615441,27615633,194,1433.8,759.4,3950,NA
61,2,binary,16,1,trial,27614198.0,27616614.0,2416.0,66,L,27615645,27615873,230,1400.4,745.5,3985,NA
61,2,binary,16,1,trial,27614198.0,27616614.0,2416.0,66,L,27615945,27616551,608,489.6,513.8,4200,left
61,2,binary,16,1,postResponse,27614198.0,27616614.0,2416.0,66,L,27616575,27616949,376,368.3,533.3,4200,left
61,2,binary,17,1,fixationCross,27617814.0,27620181.0,2367.0,67,L,27617029,27617507,480,703.1,458.5,4680,left
61,2,binary,17,1,trial,27617814.0,27620181.0,2367.0,67,L,27617537,27617937,402,938.9,497.6,5237,NA
61,2,binary,17,1,trial,27617814.0,27620181.0,2367.0,67,L,27617981,27618119,140,596.6,511.3,5470,left
61,2,binary,17,1,trial,27617814.0,27620181.0,2367.0,67,L,27618145,27618391,248,444.4,547.3,5008,left
61,2,binary,17,1,trial,27617814.0,27620181.0,2367.0,67,L,27618407,27618517,112,487.7,512.3,4637,left
61,2,binary,17,1,trial,27617814.0,27620181.0,2367.0,67,L,27618585,27618949,366,1467.3,599.9,4350,right
61,2,binary,17,1,trial,27617814.0,27620181.0,2367.0,67,L,27618973,27619237,266,1553.0,688.6,4371,right
61,2,binary,17,1,trial,27617814.0,27620181.0,2367.0,67,L,27619301,27619519,220,702.9,655.7,4526,left
61,2,binary,17,1,trial,27617814.0,27620181.0,2367.0,67,L,27619559,27619741,184,513.0,529.4,4623,left
61,2,binary,17,1,trial,27617814.0,27620181.0,2367.0,67,L,27619767,27620003,238,334.5,531.8,4672,left
61,2,binary,17,1,postResponse,27617814.0,27620181.0,2367.0,67,L,27620033,27620515,484,600.0,477.0,4630,left
61,2,binary,18,1,fixationCross,27621164.0,27624265.0,3101.0,68,L,27620781,27620857,78,740.0,497.8,5005,NA
61,2,binary,18,1,trial,27621164.0,27624265.0,3101.0,68,L,27620889,27621307,420,969.8,505.0,5250,NA
61,2,binary,18,1,trial,27621164.0,27624265.0,3101.0,68,L,27621355,27621529,176,543.8,537.0,5446,left
61,2,binary,18,1,trial,27621164.0,27624265.0,3101.0,68,L,27621551,27622047,498,614.0,498.1,4921,left
61,2,binary,18,1,trial,27621164.0,27624265.0,3101.0,68,L,27622057,27622191,136,623.6,487.4,4918,left
61,2,binary,18,1,trial,27621164.0,27624265.0,3101.0,68,L,27622249,27622407,160,1358.0,435.6,5070,right
61,2,binary,18,1,trial,27621164.0,27624265.0,3101.0,68,L,27622423,27622527,106,1396.1,413.0,5089,right
61,2,binary,18,1,trial,27621164.0,27624265.0,3101.0,68,L,27622561,27622765,206,1576.3,580.2,4913,right
61,2,binary,18,1,trial,27621164.0,27624265.0,3101.0,68,L,27622793,27622951,160,1609.3,442.0,4933,right
61,2,binary,18,1,trial,27621164.0,27624265.0,3101.0,68,L,27622981,27623261,282,1423.1,565.6,5181,right
61,2,binary,18,1,trial,27621164.0,27624265.0,3101.0,68,L,27623277,27623615,340,1434.8,532.5,5113,right
61,2,binary,18,1,trial,27621164.0,27624265.0,3101.0,68,L,27623683,27623927,246,494.2,523.5,5265,left
61,2,binary,18,1,postResponse,27621164.0,27624265.0,3101.0,68,L,27623951,27624597,648,636.8,472.5,5081,left
61,2,binary,19,1,fixationCross,27625498.0,27627598.0,2100.0,69,L,27624711,27624715,6,709.8,388.6,5350,left
61,2,binary,19,1,fixationCross,27625498.0,27627598.0,2100.0,69,L,27624971,27625169,200,688.8,458.2,5451,left
61,2,binary,19,1,trial,27625498.0,27627598.0,2100.0,69,L,27625207,27625515,310,940.9,499.6,5640,NA
61,2,binary,19,1,trial,27625498.0,27627598.0,2100.0,69,L,27625555,27625723,170,602.6,523.2,5748,left
61,2,binary,19,1,trial,27625498.0,27627598.0,2100.0,69,L,27625747,27625935,190,470.7,595.3,5428,left
61,2,binary,19,1,trial,27625498.0,27627598.0,2100.0,69,L,27625953,27626139,188,451.5,554.2,4668,left
61,2,binary,19,1,trial,27625498.0,27627598.0,2100.0,69,L,27626205,27626411,208,1414.1,557.0,4289,right
61,2,binary,19,1,trial,27625498.0,27627598.0,2100.0,69,L,27626437,27626775,340,1552.9,587.4,4244,right
61,2,binary,19,1,trial,27625498.0,27627598.0,2100.0,69,L,27626799,27627013,216,1387.5,553.7,4336,right
61,2,binary,19,1,trial,27625498.0,27627598.0,2100.0,69,L,27627079,27627301,224,559.5,615.7,4446,left
61,2,binary,19,1,postResponse,27625498.0,27627598.0,2100.0,69,L,27627323,27627931,610,437.8,581.4,4587,left
61,2,binary,20,1,fixationCross,27628481.0,27631948.0,3467.0,70,L,27628007,27628051,46,441.9,585.2,4866,left
61,2,binary,20,1,trial,27628481.0,27631948.0,3467.0,70,L,27628105,27628611,508,932.7,497.5,5125,NA
61,2,binary,20,1,trial,27628481.0,27631948.0,3467.0,70,L,27628657,27629069,414,512.1,517.8,5207,left
61,2,binary,20,1,trial,27628481.0,27631948.0,3467.0,70,L,27629097,27629347,252,410.5,621.3,4518,left
61,2,binary,20,1,trial,27628481.0,27631948.0,3467.0,70,L,27629385,27629653,270,539.3,409.8,4334,left
61,2,binary,20,1,trial,27628481.0,27631948.0,3467.0,70,L,27629719,27629861,144,1495.6,511.3,4242,right
61,2,binary,20,1,trial,27628481.0,27631948.0,3467.0,70,L,27629897,27630031,136,1673.2,456.7,4205,right
61,2,binary,20,1,trial,27628481.0,27631948.0,3467.0,70,L,27630043,27630527,486,1691.8,441.5,4363,right
61,2,binary,20,1,trial,27628481.0,27631948.0,3467.0,70,L,27630571,27630815,246,1288.5,539.0,4752,right
61,2,binary,20,1,trial,27628481.0,27631948.0,3467.0,70,L,27630825,27631085,262,1248.7,540.0,4937,right
61,2,binary,20,1,trial,27628481.0,27631948.0,3467.0,70,L,27631145,27631279,136,596.8,890.0,5116,NA
61,2,binary,20,1,trial,27628481.0,27631948.0,3467.0,70,L,27631315,27631805,492,429.2,579.0,4991,left
61,2,binary,20,1,trial,27628481.0,27631948.0,3467.0,70,L,27631883,27631999,118,1617.6,481.7,4711,right
61,2,binary,20,1,postResponse,27628481.0,27631948.0,3467.0,70,L,27632019,27632283,266,1667.6,449.5,4769,right
61,2,binary,21,1,trial,27632848.0,27637432.0,4584.0,71,L,27632383,27632981,600,912.4,520.3,5276,NA
61,2,binary,21,1,trial,27632848.0,27637432.0,4584.0,71,L,27633025,27633157,134,559.3,508.2,5664,left
61,2,binary,21,1,trial,27632848.0,27637432.0,4584.0,71,L,27633181,27633429,250,474.0,439.0,5122,left
61,2,binary,21,1,trial,27632848.0,27637432.0,4584.0,71,L,27633453,27633579,128,529.6,521.4,4577,left
61,2,binary,21,1,trial,27632848.0,27637432.0,4584.0,71,L,27633643,27633797,156,1495.9,496.1,4320,right
61,2,binary,21,1,trial,27632848.0,27637432.0,4584.0,71,L,27633819,27634085,268,1552.8,422.3,4365,right
61,2,binary,21,1,trial,27632848.0,27637432.0,4584.0,71,L,27634095,27634441,348,1545.2,404.9,4592,right
61,2,binary,21,1,trial,27632848.0,27637432.0,4584.0,71,L,27634511,27634671,162,550.8,466.2,4929,left
61,2,binary,21,1,trial,27632848.0,27637432.0,4584.0,71,L,27634693,27634849,158,453.1,494.7,4930,left
61,2,binary,21,1,trial,27632848.0,27637432.0,4584.0,71,L,27634869,27635199,332,505.1,546.0,4574,left
61,2,binary,21,1,trial,27632848.0,27637432.0,4584.0,71,L,27635221,27635403,184,409.8,527.9,4322,left
61,2,binary,21,1,trial,27632848.0,27637432.0,4584.0,71,L,27635427,27635889,464,552.3,503.8,4242,left
61,2,binary,21,1,trial,27632848.0,27637432.0,4584.0,71,L,27635907,27636207,302,506.2,528.6,4410,left
61,2,binary,21,1,trial,27632848.0,27637432.0,4584.0,71,L,27636221,27636247,28,479.6,524.7,4456,left
61,2,binary,21,1,trial,27632848.0,27637432.0,4584.0,71,L,27636275,27636395,122,660.6,638.6,4467,left
61,2,binary,21,1,trial,27632848.0,27637432.0,4584.0,71,L,27636457,27636581,126,1435.5,495.5,4464,right
61,2,binary,21,1,trial,27632848.0,27637432.0,4584.0,71,L,27636603,27636743,142,1524.4,447.5,4451,right
61,2,binary,21,1,trial,27632848.0,27637432.0,4584.0,71,L,27636763,27637163,402,1539.2,400.7,4646,right
61,2,binary,21,1,trial,27632848.0,27637432.0,4584.0,71,L,27637233,27637365,134,700.1,952.2,5035,NA
61,2,binary,21,1,postResponse,27632848.0,27637432.0,4584.0,71,L,27637421,27637765,346,551.0,413.4,5014,left
61,2,binary,22,1,fixationCross,27639548.0,27642898.0,3350.0,72,L,27637839,27638339,502,792.2,460.8,5137,NA
61,2,binary,22,1,fixationCross,27639548.0,27642898.0,3350.0,72,L,27638359,27638861,504,884.7,454.0,5556,NA
61,2,binary,22,1,fixationCross,27639548.0,27642898.0,3350.0,72,L,27638885,27639229,346,751.8,470.3,5722,NA
61,2,binary,22,1,fixationCross,27639548.0,27642898.0,3350.0,72,L,27639253,27639389,138,922.6,491.7,5760,NA
61,2,binary,22,1,trial,27639548.0,27642898.0,3350.0,72,L,27639411,27639697,288,983.0,544.0,5812,NA
61,2,binary,22,1,trial,27639548.0,27642898.0,3350.0,72,L,27639743,27639895,154,619.2,480.2,5849,left
61,2,binary,22,1,trial,27639548.0,27642898.0,3350.0,72,L,27639917,27640577,662,577.7,552.0,5113,left
61,2,binary,22,1,trial,27639548.0,27642898.0,3350.0,72,L,27640643,27640895,254,1501.8,507.6,4949,right
61,2,binary,22,1,trial,27639548.0,27642898.0,3350.0,72,L,27640913,27641111,200,1536.7,472.3,4913,right
61,2,binary,22,1,trial,27639548.0,27642898.0,3350.0,72,L,27641127,27641307,182,1521.9,446.3,4900,right
61,2,binary,22,1,trial,27639548.0,27642898.0,3350.0,72,L,27641331,27641631,302,1394.4,459.4,4921,right
61,2,binary,22,1,trial,27639548.0,27642898.0,3350.0,72,L,27641653,27641987,336,1517.0,465.8,5033,right
61,2,binary,22,1,trial,27639548.0,27642898.0,3350.0,72,L,27642017,27642255,240,1632.0,537.2,5067,right
61,2,binary,22,1,trial,27639548.0,27642898.0,3350.0,72,L,27642335,27642571,238,513.8,641.3,5303,left
61,2,binary,22,1,trial,27639548.0,27642898.0,3350.0,72,L,27642595,27642827,234,553.4,579.1,5354,left
61,2,binary,22,1,postResponse,27639548.0,27642898.0,3350.0,72,L,27642891,27643233,344,1447.1,472.2,5244,right
61,2,binary,23,2,fixationCross,27643848.0,27646515.0,2667.0,73,L,27643579,27643595,18,887.1,416.5,5885,NA
