participantNo,block,task,blockTrial,response,trialStage,trialStartTime,trialFinishTime,rt,trial,eye,fixStart,fixEnd,fixLength,fixPosX,fixPosY,dilation,aoi
59,1,continuous,1,100,fixationCross,18650612.0,18654329.0,3717.0,1,R,18649876,18650066,192,604.7,632.0,5067,left
59,1,continuous,1,100,fixationCross,18650612.0,18654329.0,3717.0,1,R,18650110,18650252,144,890.4,902.7,5045,likertHorizontal
59,1,continuous,1,100,fixationCross,18650612.0,18654329.0,3717.0,1,R,18650306,18650420,116,979.5,497.7,5030,NA
59,1,continuous,1,100,trial,18650612.0,18654329.0,3717.0,1,R,18650440,18650764,326,967.6,556.1,5174,NA
59,1,continuous,1,100,trial,18650612.0,18654329.0,3717.0,1,R,18650810,18650974,166,524.2,532.8,5266,left
59,1,continuous,1,100,trial,18650612.0,18654329.0,3717.0,1,R,18651030,18651146,118,822.4,1009.9,4635,likertHorizontal
59,1,continuous,1,100,trial,18650612.0,18654329.0,3717.0,1,R,18651166,18651308,144,901.2,1045.6,4422,likertHorizontal
59,1,continuous,1,100,trial,18650612.0,18654329.0,3717.0,1,R,18651354,18651644,292,438.6,1063.1,4506,NA
59,1,continuous,1,100,trial,18650612.0,18654329.0,3717.0,1,R,18651702,18652058,358,455.7,518.3,4657,left
59,1,continuous,1,100,trial,18650612.0,18654329.0,3717.0,1,R,18652128,18652248,122,1450.9,539.8,4399,right
59,1,continuous,1,100,trial,18650612.0,18654329.0,3717.0,1,R,18652274,18652410,138,1544.0,442.6,4247,right
59,1,continuous,1,100,trial,18650612.0,18654329.0,3717.0,1,R,18652448,18652770,324,1339.2,579.3,4311,right
59,1,continuous,1,100,trial,18650612.0,18654329.0,3717.0,1,R,18652818,18652968,152,1108.1,874.5,4785,likertHorizontal
59,1,continuous,1,100,trial,18650612.0,18654329.0,3717.0,1,R,18653006,18653394,390,1370.7,1038.8,4911,NA
59,1,continuous,1,100,trial,18650612.0,18654329.0,3717.0,1,R,18653460,18653756,298,451.6,542.4,5100,left
59,1,continuous,1,100,trial,18650612.0,18654329.0,3717.0,1,R,18653782,18654048,268,491.7,440.1,4657,left
59,1,continuous,1,100,trial,18650612.0,18654329.0,3717.0,1,R,18654070,18654556,488,436.2,533.8,4400,left
59,1,continuous,1,100,postResponse,18650612.0,18654329.0,3717.0,1,R,18654620,18654696,78,1133.3,674.0,4377,NA
59,1,continuous,2,100,fixationCross,18655279.0,18658063.0,2784.0,2,R,18654798,18654894,98,1124.6,673.6,4510,NA
59,1,continuous,2,100,fixationCross,18655279.0,18658063.0,2784.0,2,R,18654932,18655142,212,953.4,551.7,4805,NA
59,1,continuous,2,100,trial,18655279.0,18658063.0,2784.0,2,R,18655270,18655482,214,953.8,568.0,5195,NA
59,1,continuous,2,100,trial,18655279.0,18658063.0,2784.0,2,R,18655534,18655796,264,442.5,500.9,5002,left
59,1,continuous,2,100,trial,18655279.0,18658063.0,2784.0,2,R,18655868,18656056,190,1450.7,533.3,4327,right
59,1,continuous,2,100,trial,18655279.0,18658063.0,2784.0,2,R,18656068,18656346,280,1461.6,498.8,4239,right
59,1,continuous,2,100,trial,18655279.0,18658063.0,2784.0,2,R,18656368,18656594,228,1390.0,571.5,4454,right
59,1,continuous,2,100,trial,18655279.0,18658063.0,2784.0,2,R,18656664,18656970,308,427.2,503.0,4741,left
59,1,continuous,2,100,trial,18655279.0,18658063.0,2784.0,2,R,18656994,18657176,184,468.5,604.8,4581,left
59,1,continuous,2,100,trial,18655279.0,18658063.0,2784.0,2,R,18657194,18657564,372,415.6,581.4,4634,left
59,1,continuous,2,100,trial,18655279.0,18658063.0,2784.0,2,R,18657636,18657792,158,1429.0,843.6,4635,NA
59,1,continuous,2,100,trial,18655279.0,18658063.0,2784.0,2,R,18657820,18657928,110,1399.4,1026.3,4615,NA
59,1,continuous,2,100,trial,18655279.0,18658063.0,2784.0,2,R,18657946,18658084,140,1407.3,1086.3,4643,NA
59,1,continuous,2,100,postResponse,18655279.0,18658063.0,2784.0,2,R,18658142,18658396,256,1428.9,512.8,4862,right
59,1,continuous,3,75,fixationCross,18658996.0,18663562.0,4566.0,3,R,18658512,18658832,322,960.3,441.2,5231,NA
59,1,continuous,3,75,trial,18658996.0,18663562.0,4566.0,3,R,18658858,18659008,152,919.0,552.8,5414,NA
59,1,continuous,3,75,trial,18658996.0,18663562.0,4566.0,3,R,18659018,18659198,182,945.8,560.2,5530,NA
59,1,continuous,3,75,trial,18658996.0,18663562.0,4566.0,3,R,18659250,18659378,130,433.6,490.3,5354,left
59,1,continuous,3,75,trial,18658996.0,18663562.0,4566.0,3,R,18659396,18659660,266,385.3,452.2,4601,left
59,1,continuous,3,75,trial,18658996.0,18663562.0,4566.0,3,R,18659740,18659974,236,1617.6,500.1,4127,right
59,1,continuous,3,75,trial,18658996.0,18663562.0,4566.0,3,R,18659996,18660158,164,1505.0,538.0,4331,right
59,1,continuous,3,75,trial,18658996.0,18663562.0,4566.0,3,R,18660178,18660928,752,1550.3,471.1,4828,right
59,1,continuous,3,75,trial,18658996.0,18663562.0,4566.0,3,R,18660940,18661580,642,1553.1,495.2,5046,right
59,1,continuous,3,75,trial,18658996.0,18663562.0,4566.0,3,R,18661656,18661952,298,404.3,458.2,4924,left
59,1,continuous,3,75,trial,18658996.0,18663562.0,4566.0,3,R,18661978,18662162,186,392.2,580.5,4443,left
59,1,continuous,3,75,trial,18658996.0,18663562.0,4566.0,3,R,18662238,18662540,304,1572.4,564.8,4256,right
59,1,continuous,3,75,trial,18658996.0,18663562.0,4566.0,3,R,18662562,18662780,220,1555.8,477.5,4410,right
59,1,continuous,3,75,trial,18658996.0,18663562.0,4566.0,3,R,18662838,18663074,238,1379.0,1025.6,4843,NA
59,1,continuous,3,75,trial,18658996.0,18663562.0,4566.0,3,R,18663100,18663442,344,1215.9,990.9,4864,NA
59,1,continuous,3,75,trial,18658996.0,18663562.0,4566.0,3,R,18663458,18663842,386,1139.6,986.8,5057,likertHorizontal
59,1,continuous,4,1,fixationCross,18664496.0,18667113.0,2617.0,4,R,18663976,18664292,318,1005.6,631.5,5183,NA
59,1,continuous,4,1,trial,18664496.0,18667113.0,2617.0,4,R,18664316,18664636,322,940.5,543.0,5445,NA
59,1,continuous,4,1,trial,18664496.0,18667113.0,2617.0,4,R,18664684,18664866,184,532.6,504.2,5311,left
59,1,continuous,4,1,trial,18664496.0,18667113.0,2617.0,4,R,18664894,18665110,218,410.7,399.2,4492,left
59,1,continuous,4,1,trial,18664496.0,18667113.0,2617.0,4,R,18665122,18665368,248,450.1,408.4,4243,left
59,1,continuous,4,1,trial,18664496.0,18667113.0,2617.0,4,R,18665402,18665532,132,403.6,586.2,4293,left
59,1,continuous,4,1,trial,18664496.0,18667113.0,2617.0,4,R,18665602,18665808,208,1449.9,465.5,4265,right
59,1,continuous,4,1,trial,18664496.0,18667113.0,2617.0,4,R,18665824,18666006,184,1413.8,502.6,4232,right
59,1,continuous,4,1,trial,18664496.0,18667113.0,2617.0,4,R,18666074,18666252,180,489.1,643.9,4233,left
59,1,continuous,4,1,trial,18664496.0,18667113.0,2617.0,4,R,18666274,18666502,230,545.6,572.6,4200,left
59,1,continuous,4,1,trial,18664496.0,18667113.0,2617.0,4,R,18666516,18666702,188,584.3,567.4,4310,left
59,1,continuous,4,1,trial,18664496.0,18667113.0,2617.0,4,R,18666738,18667058,322,383.8,409.8,4514,left
59,1,continuous,4,1,trial,18664496.0,18667113.0,2617.0,4,R,18667078,18667346,270,468.4,412.0,4634,left
59,1,continuous,4,1,postResponse,18664496.0,18667113.0,2617.0,4,R,18667438,18667470,34,674.7,1067.9,4814,NA
59,1,continuous,5,78,fixationCross,18668230.0,18670963.0,2733.0,5,R,18667610,18667752,144,1016.2,664.6,4804,NA
59,1,continuous,5,78,fixationCross,18668230.0,18670963.0,2733.0,5,R,18667788,18667912,126,1095.9,530.6,4906,NA
59,1,continuous,5,78,trial,18668230.0,18670963.0,2733.0,5,R,18667938,18668384,448,947.5,551.3,5199,NA
59,1,continuous,5,78,trial,18668230.0,18670963.0,2733.0,5,R,18668436,18668608,174,469.5,459.5,5070,left
59,1,continuous,5,78,trial,18668230.0,18670963.0,2733.0,5,R,18668622,18668974,354,454.0,435.6,4320,left
59,1,continuous,5,78,trial,18668230.0,18670963.0,2733.0,5,R,18669048,18669248,202,1531.7,508.9,4237,right
59,1,continuous,5,78,trial,18668230.0,18670963.0,2733.0,5,R,18669266,18669730,466,1442.6,511.2,4153,right
59,1,continuous,5,78,trial,18668230.0,18670963.0,2733.0,5,R,18669782,18670042,262,1253.6,928.0,4433,NA
59,1,continuous,5,78,trial,18668230.0,18670963.0,2733.0,5,R,18670074,18670370,298,1200.1,724.4,4645,right
59,1,continuous,5,78,trial,18668230.0,18670963.0,2733.0,5,R,18670406,18670544,140,1147.4,871.0,4767,likertHorizontal
59,1,continuous,5,78,trial,18668230.0,18670963.0,2733.0,5,R,18670602,18670796,196,493.8,534.6,4791,left
59,1,continuous,5,78,trial,18668230.0,18670963.0,2733.0,5,R,18670824,18671264,442,444.7,419.2,4602,left
59,1,continuous,6,19,fixationCross,18671863.0,18675329.0,3466.0,6,R,18671400,18671504,106,1097.4,1008.0,4689,likertHorizontal
59,1,continuous,6,19,fixationCross,18671863.0,18675329.0,3466.0,6,R,18671564,18671724,162,936.6,613.3,4839,NA
59,1,continuous,6,19,trial,18671863.0,18675329.0,3466.0,6,R,18671744,18672020,278,936.4,547.2,5076,NA
59,1,continuous,6,19,trial,18671863.0,18675329.0,3466.0,6,R,18672070,18672202,134,446.6,474.9,5167,left
59,1,continuous,6,19,trial,18671863.0,18675329.0,3466.0,6,R,18672226,18672264,40,427.5,619.4,4794,left
59,1,continuous,6,19,trial,18671863.0,18675329.0,3466.0,6,R,18672282,18672434,154,434.2,682.0,4518,left
59,1,continuous,6,19,trial,18671863.0,18675329.0,3466.0,6,R,18672502,18672802,302,1434.9,504.8,4382,right
59,1,continuous,6,19,trial,18671863.0,18675329.0,3466.0,6,R,18672826,18673064,240,1314.8,448.5,4363,right
59,1,continuous,6,19,trial,18671863.0,18675329.0,3466.0,6,R,18673126,18673646,522,490.6,580.8,4484,left
59,1,continuous,6,19,trial,18671863.0,18675329.0,3466.0,6,R,18673714,18674002,290,1465.1,466.8,4468,right
59,1,continuous,6,19,trial,18671863.0,18675329.0,3466.0,6,R,18674028,18674202,176,1304.2,443.2,4352,right
59,1,continuous,6,19,trial,18671863.0,18675329.0,3466.0,6,R,18674266,18674490,226,441.2,565.1,4427,left
59,1,continuous,6,19,trial,18671863.0,18675329.0,3466.0,6,R,18674538,18674744,208,574.6,968.3,4531,NA
59,1,continuous,6,19,trial,18671863.0,18675329.0,3466.0,6,R,18674800,18674978,180,488.2,545.8,4609,left
59,1,continuous,6,19,trial,18671863.0,18675329.0,3466.0,6,R,18675042,18675314,274,1394.1,481.9,4680,right
59,1,continuous,6,19,postResponse,18671863.0,18675329.0,3466.0,6,R,18675334,18675662,330,1328.1,438.7,4672,right
59,1,continuous,7,18,fixationCross,18676380.0,18678146.0,1766.0,7,R,18675738,18675884,148,1322.0,437.9,4775,right
59,1,continuous,7,18,fixationCross,18676380.0,18678146.0,1766.0,7,R,18675912,18676064,154,1167.8,399.6,4999,NA
59,1,continuous,7,18,fixationCross,18676380.0,18678146.0,1766.0,7,R,18676100,18676198,100,976.6,528.3,5186,NA
59,1,continuous,7,18,trial,18676380.0,18678146.0,1766.0,7,R,18676210,18676516,308,952.8,556.2,5284,NA
59,1,continuous,7,18,trial,18676380.0,18678146.0,1766.0,7,R,18676564,18676744,182,570.0,492.8,5257,left
59,1,continuous,7,18,trial,18676380.0,18678146.0,1766.0,7,R,18676770,18676942,174,441.0,545.4,4588,left
59,1,continuous,7,18,trial,18676380.0,18678146.0,1766.0,7,R,18677010,18677412,404,1376.7,594.0,4096,right
59,1,continuous,7,18,trial,18676380.0,18678146.0,1766.0,7,R,18677476,18677912,438,460.7,568.9,4218,left
59,1,continuous,7,18,postResponse,18676380.0,18678146.0,1766.0,7,R,18677990,18678480,492,1420.4,596.6,4415,right
59,1,continuous,8,96,fixationCross,18679163.0,18682380.0,3217.0,8,R,18678554,18678590,38,1402.1,606.8,4714,right
59,1,continuous,8,96,fixationCross,18679163.0,18682380.0,3217.0,8,R,18678634,18678860,228,1089.1,558.9,5023,NA
59,1,continuous,8,96,trial,18679163.0,18682380.0,3217.0,8,R,18678884,18679288,406,920.1,569.9,5316,NA
59,1,continuous,8,96,trial,18679163.0,18682380.0,3217.0,8,R,18679336,18679608,274,504.0,536.2,5076,left
59,1,continuous,8,96,trial,18679163.0,18682380.0,3217.0,8,R,18679626,18679792,168,497.0,482.8,4282,left
59,1,continuous,8,96,trial,18679163.0,18682380.0,3217.0,8,R,18679804,18679916,114,534.4,481.7,4068,left
59,1,continuous,8,96,trial,18679163.0,18682380.0,3217.0,8,R,18679978,18680358,382,1426.4,511.0,3994,right
59,1,continuous,8,96,trial,18679163.0,18682380.0,3217.0,8,R,18680382,18680776,396,1504.3,616.5,4077,right
59,1,continuous,8,96,trial,18679163.0,18682380.0,3217.0,8,R,18680794,18681236,444,1569.7,586.9,3974,right
59,1,continuous,8,96,trial,18679163.0,18682380.0,3217.0,8,R,18681256,18681470,216,1494.4,636.7,4165,right
59,1,continuous,8,96,trial,18679163.0,18682380.0,3217.0,8,R,18681486,18682064,580,1481.4,592.6,4265,right
59,1,continuous,8,96,trial,18679163.0,18682380.0,3217.0,8,R,18682118,18682404,288,1371.1,1043.4,4499,NA
59,1,continuous,8,96,postResponse,18679163.0,18682380.0,3217.0,8,R,18682476,18682714,240,560.2,562.5,4683,left
59,1,continuous,9,85,fixationCross,18683446.0,18688863.0,5417.0,9,R,18682788,18682940,154,558.5,562.0,4768,left
59,1,continuous,9,85,fixationCross,18683446.0,18688863.0,5417.0,9,R,18682974,18683132,160,705.3,525.2,4915,left
59,1,continuous,9,85,trial,18683446.0,18688863.0,5417.0,9,R,18683168,18683614,448,931.8,555.7,5172,NA
59,1,continuous,9,85,trial,18683446.0,18688863.0,5417.0,9,R,18683664,18684032,370,462.7,514.7,4690,left
59,1,continuous,9,85,trial,18683446.0,18688863.0,5417.0,9,R,18684054,18684282,230,396.6,476.1,3957,left
59,1,continuous,9,85,trial,18683446.0,18688863.0,5417.0,9,R,18684306,18684442,138,291.3,546.2,3997,left
59,1,continuous,9,85,trial,18683446.0,18688863.0,5417.0,9,R,18684470,18684630,162,474.9,479.8,4205,left
59,1,continuous,9,85,trial,18683446.0,18688863.0,5417.0,9,R,18684706,18685158,454,1339.6,564.5,4421,right
59,1,continuous,9,85,trial,18683446.0,18688863.0,5417.0,9,R,18685328,18685892,566,1329.8,519.3,4976,right
59,1,continuous,9,85,trial,18683446.0,18688863.0,5417.0,9,R,18685916,18686064,150,1416.3,587.9,4909,right
59,1,continuous,9,85,trial,18683446.0,18688863.0,5417.0,9,R,18686088,18686570,484,1326.5,518.2,4994,right
59,1,continuous,9,85,trial,18683446.0,18688863.0,5417.0,9,R,18686638,18686916,280,475.7,487.2,5372,left
59,1,continuous,9,85,trial,18683446.0,18688863.0,5417.0,9,R,18686932,18687084,154,516.0,481.5,4775,left
59,1,continuous,9,85,trial,18683446.0,18688863.0,5417.0,9,R,18687146,18687488,344,1339.9,524.6,4320,right
59,1,continuous,9,85,trial,18683446.0,18688863.0,5417.0,9,R,18687508,18687698,192,1418.0,543.4,4598,right
59,1,continuous,9,85,trial,18683446.0,18688863.0,5417.0,9,R,18687716,18687892,178,1345.4,537.2,4867,right
59,1,continuous,9,85,trial,18683446.0,18688863.0,5417.0,9,R,18687958,18688154,198,416.4,524.7,4995,left
59,1,continuous,9,85,trial,18683446.0,18688863.0,5417.0,9,R,18688174,18688418,246,456.5,472.1,4656,left
59,1,continuous,9,85,trial,18683446.0,18688863.0,5417.0,9,R,18688486,18688666,182,1134.3,985.0,4399,likertHorizontal
59,1,continuous,9,85,trial,18683446.0,18688863.0,5417.0,9,R,18688700,18688894,196,1324.6,1041.8,4496,NA
59,1,continuous,9,85,trial,18683446.0,18688863.0,5417.0,9,R,18688912,18689120,210,1247.7,1022.2,4744,NA
59,1,continuous,10,89,fixationCross,18689862.0,18694346.0,4484.0,10,R,18689296,18689592,298,920.7,555.0,5092,NA
59,1,continuous,10,89,fixationCross,18689862.0,18694346.0,4484.0,10,R,18689622,18689718,98,816.4,526.4,5260,NA
59,1,continuous,10,89,trial,18689862.0,18694346.0,4484.0,10,R,18689746,18690012,268,953.3,541.5,5403,NA
59,1,continuous,10,89,trial,18689862.0,18694346.0,4484.0,10,R,18690062,18690240,180,462.0,503.3,5281,left
59,1,continuous,10,89,trial,18689862.0,18694346.0,4484.0,10,R,18690256,18690414,160,487.6,465.0,4611,left
59,1,continuous,10,89,trial,18689862.0,18694346.0,4484.0,10,R,18690484,18690714,232,1486.2,478.1,4202,right
59,1,continuous,10,89,trial,18689862.0,18694346.0,4484.0,10,R,18690736,18691040,306,1452.8,543.8,4263,right
59,1,continuous,10,89,trial,18689862.0,18694346.0,4484.0,10,R,18691066,18691270,206,1563.3,437.5,4236,right
59,1,continuous,10,89,trial,18689862.0,18694346.0,4484.0,10,R,18691288,18691510,224,1560.5,375.7,4250,right
59,1,continuous,10,89,trial,18689862.0,18694346.0,4484.0,10,R,18691536,18692014,480,1462.8,474.8,4652,right
59,1,continuous,10,89,trial,18689862.0,18694346.0,4484.0,10,R,18692026,18692206,182,1473.9,513.4,4855,right
59,1,continuous,10,89,trial,18689862.0,18694346.0,4484.0,10,R,18692226,18692298,74,1421.7,578.7,4780,right
59,1,continuous,10,89,trial,18689862.0,18694346.0,4484.0,10,R,18692310,18692716,408,1423.9,606.7,4739,right
59,1,continuous,10,89,trial,18689862.0,18694346.0,4484.0,10,R,18692750,18693022,274,1534.9,450.8,4608,right
59,1,continuous,10,89,trial,18689862.0,18694346.0,4484.0,10,R,18693170,18693310,142,463.4,503.0,4805,left
59,1,continuous,10,89,trial,18689862.0,18694346.0,4484.0,10,R,18693332,18693712,382,480.4,438.3,4653,left
59,1,continuous,10,89,trial,18689862.0,18694346.0,4484.0,10,R,18693782,18693976,196,1509.0,504.9,4367,right
59,1,continuous,10,89,postResponse,18689862.0,18694346.0,4484.0,10,R,18694002,18694680,680,1388.3,628.3,4392,right
59,1,continuous,11,82,fixationCross,18695396.0,18698630.0,3234.0,11,R,18694756,18695022,268,1087.7,542.1,4797,NA
59,1,continuous,11,82,fixationCross,18695396.0,18698630.0,3234.0,11,R,18695068,18695152,86,722.6,475.5,5121,left
59,1,continuous,11,82,trial,18695396.0,18698630.0,3234.0,11,R,18695190,18695522,334,945.6,556.6,5313,NA
59,1,continuous,11,82,trial,18695396.0,18698630.0,3234.0,11,R,18695572,18695706,136,485.6,507.1,5422,left
59,1,continuous,11,82,trial,18695396.0,18698630.0,3234.0,11,R,18695728,18695872,146,498.1,526.9,4834,left
59,1,continuous,11,82,trial,18695396.0,18698630.0,3234.0,11,R,18695896,18696372,478,442.5,437.5,4300,left
59,1,continuous,11,82,trial,18695396.0,18698630.0,3234.0,11,R,18696440,18696640,202,1398.0,470.6,4471,right
59,1,continuous,11,82,trial,18695396.0,18698630.0,3234.0,11,R,18696650,18697042,394,1418.9,463.4,4436,right
59,1,continuous,11,82,trial,18695396.0,18698630.0,3234.0,11,R,18697058,18697262,206,1460.0,465.4,4516,right
59,1,continuous,11,82,trial,18695396.0,18698630.0,3234.0,11,R,18697278,18697392,116,1405.2,461.5,4638,right
59,1,continuous,11,82,trial,18695396.0,18698630.0,3234.0,11,R,18697458,18697598,142,468.2,504.9,4782,left
59,1,continuous,11,82,trial,18695396.0,18698630.0,3234.0,11,R,18697618,18697856,240,458.8,432.2,4602,left
59,1,continuous,11,82,trial,18695396.0,18698630.0,3234.0,11,R,18697878,18698082,206,453.4,525.1,4436,left
59,1,continuous,11,82,trial,18695396.0,18698630.0,3234.0,11,R,18698092,18698456,366,477.3,505.7,4555,left
59,1,continuous,11,82,postResponse,18695396.0,18698630.0,3234.0,11,R,18698522,18698976,456,1427.9,460.3,4580,right
59,1,continuous,12,52,fixationCross,18699697.0,18704696.0,4999.0,12,R,18699076,18699154,80,1419.9,465.0,4613,right
59,1,continuous,12,52,fixationCross,18699697.0,18704696.0,4999.0,12,R,18699210,18699466,258,889.0,464.8,5002,NA
59,1,continuous,12,52,trial,18699697.0,18704696.0,4999.0,12,R,18699488,18699824,338,922.8,547.7,5237,NA
59,1,continuous,12,52,trial,18699697.0,18704696.0,4999.0,12,R,18699876,18700030,156,445.6,466.5,5200,left
59,1,continuous,12,52,trial,18699697.0,18704696.0,4999.0,12,R,18700052,18700332,282,389.6,385.1,4351,left
59,1,continuous,12,52,trial,18699697.0,18704696.0,4999.0,12,R,18700404,18700606,204,1438.0,440.5,4005,right
59,1,continuous,12,52,trial,18699697.0,18704696.0,4999.0,12,R,18700618,18702020,1404,1410.8,402.2,4323,right
59,1,continuous,12,52,trial,18699697.0,18704696.0,4999.0,12,R,18702090,18702242,154,417.6,436.9,4785,left
59,1,continuous,12,52,trial,18699697.0,18704696.0,4999.0,12,R,18702260,18702882,624,402.5,376.2,4426,left
59,1,continuous,12,52,trial,18699697.0,18704696.0,4999.0,12,R,18703014,18703368,356,398.6,411.5,4707,left
59,1,continuous,12,52,trial,18699697.0,18704696.0,4999.0,12,R,18703394,18703622,230,348.1,539.9,4690,left
59,1,continuous,12,52,trial,18699697.0,18704696.0,4999.0,12,R,18703698,18703812,116,1502.0,465.4,4367,right
59,1,continuous,12,52,trial,18699697.0,18704696.0,4999.0,12,R,18703834,18704216,384,1408.7,399.6,4187,right
59,1,continuous,12,52,trial,18699697.0,18704696.0,4999.0,12,R,18704278,18704510,234,896.4,980.3,4288,likertHorizontal
59,1,continuous,12,52,postResponse,18699697.0,18704696.0,4999.0,12,R,18704524,18705032,510,920.3,994.8,4645,likertHorizontal
59,1,continuous,13,34,fixationCross,18705763.0,18709829.0,4066.0,13,R,18705106,18705436,332,912.7,982.3,4980,likertHorizontal
59,1,continuous,13,34,fixationCross,18705763.0,18709829.0,4066.0,13,R,18705490,18705646,158,900.0,532.7,5188,NA
59,1,continuous,13,34,trial,18705763.0,18709829.0,4066.0,13,R,18705662,18705906,246,940.1,544.5,5214,NA
59,1,continuous,13,34,trial,18705763.0,18709829.0,4066.0,13,R,18705956,18706240,286,491.6,470.8,4887,left
59,1,continuous,13,34,trial,18705763.0,18709829.0,4066.0,13,R,18706306,18706518,214,1363.2,462.6,4055,right
59,1,continuous,13,34,trial,18705763.0,18709829.0,4066.0,13,R,18706536,18706756,222,1271.1,471.4,4013,right
59,1,continuous,13,34,trial,18705763.0,18709829.0,4066.0,13,R,18706792,18706946,156,1493.7,477.9,4153,right
59,1,continuous,13,34,trial,18705763.0,18709829.0,4066.0,13,R,18707020,18707220,202,433.9,511.8,4423,left
59,1,continuous,13,34,trial,18705763.0,18709829.0,4066.0,13,R,18707242,18707544,304,451.5,445.1,4259,left
59,1,continuous,13,34,trial,18705763.0,18709829.0,4066.0,13,R,18707568,18707786,220,295.4,472.7,4085,left
59,1,continuous,13,34,trial,18705763.0,18709829.0,4066.0,13,R,18707824,18708094,272,583.4,562.8,4139,left
59,1,continuous,13,34,trial,18705763.0,18709829.0,4066.0,13,R,18708150,18708590,442,901.6,1016.3,4350,likertHorizontal
59,1,continuous,13,34,trial,18705763.0,18709829.0,4066.0,13,R,18708640,18709264,626,903.7,740.8,4674,likertHorizontal
59,1,continuous,13,34,trial,18705763.0,18709829.0,4066.0,13,R,18709304,18709500,198,736.8,848.8,5013,NA
59,1,continuous,13,34,trial,18705763.0,18709829.0,4066.0,13,R,18709524,18709690,168,682.7,728.2,5077,left
59,1,continuous,13,34,trial,18705763.0,18709829.0,4066.0,13,R,18709698,18710064,368,695.6,742.8,5053,NA
59,1,continuous,13,34,postResponse,18705763.0,18709829.0,4066.0,13,R,18710108,18710162,56,821.6,911.9,5127,likertHorizontal
59,1,continuous,14,76,fixationCross,18711047.0,18713630.0,2583.0,14,R,18710262,18710558,298,824.7,903.6,5271,likertHorizontal
59,1,continuous,14,76,fixationCross,18711047.0,18713630.0,2583.0,14,R,18710604,18710730,128,981.3,759.9,5422,likertHorizontal
59,1,continuous,14,76,fixationCross,18711047.0,18713630.0,2583.0,14,R,18710776,18710900,126,956.4,515.3,5475,NA
59,1,continuous,14,76,trial,18711047.0,18713630.0,2583.0,14,R,18710912,18711200,290,953.1,537.2,5523,NA
59,1,continuous,14,76,trial,18711047.0,18713630.0,2583.0,14,R,18711224,18711340,118,827.2,509.8,5532,NA
59,1,continuous,14,76,trial,18711047.0,18713630.0,2583.0,14,R,18711384,18711682,300,446.7,494.2,4675,left
59,1,continuous,14,76,trial,18711047.0,18713630.0,2583.0,14,R,18711696,18712248,554,416.4,520.4,4201,left
59,1,continuous,14,76,trial,18711047.0,18713630.0,2583.0,14,R,18712314,18712498,186,1316.2,612.7,4121,right
59,1,continuous,14,76,trial,18711047.0,18713630.0,2583.0,14,R,18712524,18712794,272,1509.7,546.9,3953,right
59,1,continuous,14,76,trial,18711047.0,18713630.0,2583.0,14,R,18712826,18713208,384,1323.4,426.3,3973,right
59,1,continuous,14,76,trial,18711047.0,18713630.0,2583.0,14,R,18713238,18713516,280,1238.4,612.6,4261,right
59,1,continuous,14,76,trial,18711047.0,18713630.0,2583.0,14,R,18713576,18713922,348,503.2,515.4,4651,left
59,1,continuous,15,16,fixationCross,18714764.0,18716414.0,1650.0,15,R,18714038,18714470,434,846.4,544.5,4645,NA
59,1,continuous,15,16,trial,18714764.0,18716414.0,1650.0,15,R,18714488,18714894,408,936.0,552.8,5140,NA
59,1,continuous,15,16,trial,18714764.0,18716414.0,1650.0,15,R,18714944,18715116,174,472.5,461.1,5150,left
59,1,continuous,15,16,trial,18714764.0,18716414.0,1650.0,15,R,18715138,18715296,160,357.3,473.4,4425,left
59,1,continuous,15,16,trial,18714764.0,18716414.0,1650.0,15,R,18715334,18715536,204,527.3,627.6,4049,left
59,1,continuous,15,16,trial,18714764.0,18716414.0,1650.0,15,R,18715604,18716356,754,1426.7,514.8,4101,right
59,1,continuous,15,16,trial,18714764.0,18716414.0,1650.0,15,R,18716424,18716722,300,502.1,655.4,4549,left
59,1,continuous,16,97,fixationCross,18717347.0,18719030.0,1683.0,16,R,18716848,18717038,192,1046.6,524.5,4437,NA
59,1,continuous,16,97,fixationCross,18717347.0,18719030.0,1683.0,16,R,18717070,18717234,166,872.2,494.5,4742,NA
59,1,continuous,16,97,trial,18717347.0,18719030.0,1683.0,16,R,18717256,18717482,228,947.5,534.7,5013,NA
59,1,continuous,16,97,trial,18717347.0,18719030.0,1683.0,16,R,18717530,18717696,168,491.6,495.4,5070,left
59,1,continuous,16,97,trial,18717347.0,18719030.0,1683.0,16,R,18717712,18717900,190,403.5,524.7,4459,left
59,1,continuous,16,97,trial,18717347.0,18719030.0,1683.0,16,R,18717976,18718126,152,1451.4,506.4,4152,right
59,1,continuous,16,97,trial,18717347.0,18719030.0,1683.0,16,R,18718144,18718212,70,1359.6,516.6,4186,right
59,1,continuous,16,97,trial,18717347.0,18719030.0,1683.0,16,R,18718226,18718388,164,1318.4,539.3,4213,right
59,1,continuous,16,97,trial,18717347.0,18719030.0,1683.0,16,R,18718468,18718566,100,279.3,522.1,4462,left
59,1,continuous,16,97,trial,18717347.0,18719030.0,1683.0,16,R,18718588,18718780,194,364.9,518.2,4573,left
59,1,continuous,16,97,trial,18717347.0,18719030.0,1683.0,16,R,18718794,18719006,214,411.5,523.4,4434,left
59,1,continuous,16,97,postResponse,18717347.0,18719030.0,1683.0,16,R,18719068,18719376,310,1312.8,572.9,4420,right
59,1,continuous,17,52,fixationCross,18719913.0,18725347.0,5434.0,17,R,18719450,18719506,58,1309.5,579.1,4529,right
59,1,continuous,17,52,fixationCross,18719913.0,18725347.0,5434.0,17,R,18719564,18719856,294,875.3,527.2,4883,NA
59,1,continuous,17,52,trial,18719913.0,18725347.0,5434.0,17,R,18719874,18720038,166,923.5,546.0,5096,NA
59,1,continuous,17,52,trial,18719913.0,18725347.0,5434.0,17,R,18720090,18720444,356,434.5,487.9,4751,left
59,1,continuous,17,52,trial,18719913.0,18725347.0,5434.0,17,R,18720476,18720624,150,365.1,554.8,4027,left
59,1,continuous,17,52,trial,18719913.0,18725347.0,5434.0,17,R,18720696,18720818,124,1411.8,414.8,3898,right
59,1,continuous,17,52,trial,18719913.0,18725347.0,5434.0,17,R,18720834,18721134,302,1449.0,383.4,3966,right
59,1,continuous,17,52,trial,18719913.0,18725347.0,5434.0,17,R,18721160,18721346,188,1376.5,510.4,4287,right
59,1,continuous,17,52,trial,18719913.0,18725347.0,5434.0,17,R,18721366,18721692,328,1428.2,552.0,4493,right
59,1,continuous,17,52,trial,18719913.0,18725347.0,5434.0,17,R,18721724,18721868,146,1454.6,410.9,4534,right
59,1,continuous,17,52,trial,18719913.0,18725347.0,5434.0,17,R,18721880,18722216,338,1444.8,389.7,4637,right
59,1,continuous,17,52,trial,18719913.0,18725347.0,5434.0,17,R,18722240,18722426,188,1489.7,521.9,4829,right
59,1,continuous,17,52,trial,18719913.0,18725347.0,5434.0,17,R,18722452,18722608,158,1317.5,541.5,4938,right
59,1,continuous,17,52,trial,18719913.0,18725347.0,5434.0,17,R,18722670,18723006,338,453.9,496.0,4880,left
59,1,continuous,17,52,trial,18719913.0,18725347.0,5434.0,17,R,18723024,18723228,206,381.7,535.2,4645,left
59,1,continuous,17,52,trial,18719913.0,18725347.0,5434.0,17,R,18723250,18723476,228,451.3,468.4,4624,left
59,1,continuous,17,52,trial,18719913.0,18725347.0,5434.0,17,R,18723504,18723742,240,393.1,605.6,4695,left
59,1,continuous,17,52,trial,18719913.0,18725347.0,5434.0,17,R,18723766,18723834,70,518.3,644.6,4813,left
59,1,continuous,17,52,trial,18719913.0,18725347.0,5434.0,17,R,18723898,18724134,238,1403.4,482.8,4628,right
59,1,continuous,17,52,trial,18719913.0,18725347.0,5434.0,17,R,18724160,18724382,224,1304.2,546.8,4384,right
59,1,continuous,17,52,trial,18719913.0,18725347.0,5434.0,17,R,18724440,18724798,360,845.4,997.6,4715,likertHorizontal
59,1,continuous,17,52,trial,18719913.0,18725347.0,5434.0,17,R,18724850,18725020,172,461.4,605.6,4799,left
59,1,continuous,17,52,trial,18719913.0,18725347.0,5434.0,17,R,18725046,18725184,140,386.5,682.9,4730,left
59,1,continuous,17,52,trial,18719913.0,18725347.0,5434.0,17,R,18725234,18725592,360,392.3,442.9,4492,left
59,1,continuous,18,87,fixationCross,18726280.0,18731880.0,5600.0,18,R,18725758,18725932,176,949.0,1003.8,4609,likertHorizontal
59,1,continuous,18,87,fixationCross,18726280.0,18731880.0,5600.0,18,R,18725990,18726140,152,1000.4,580.3,4803,NA
59,1,continuous,18,87,trial,18726280.0,18731880.0,5600.0,18,R,18726158,18726412,256,938.3,564.0,5062,NA
59,1,continuous,18,87,trial,18726280.0,18731880.0,5600.0,18,R,18726466,18726590,126,395.9,462.6,5163,left
59,1,continuous,18,87,trial,18726280.0,18731880.0,5600.0,18,R,18726604,18728042,1440,357.2,431.1,4412,left
59,1,continuous,18,87,trial,18726280.0,18731880.0,5600.0,18,R,18728120,18728274,156,1470.5,452.0,4479,right
59,1,continuous,18,87,trial,18726280.0,18731880.0,5600.0,18,R,18728296,18728632,338,1553.3,474.1,4311,right
59,1,continuous,18,87,trial,18726280.0,18731880.0,5600.0,18,R,18728640,18728896,258,1559.2,486.7,4240,right
59,1,continuous,18,87,trial,18726280.0,18731880.0,5600.0,18,R,18728930,18729028,100,1345.4,489.2,4276,right
59,1,continuous,18,87,trial,18726280.0,18731880.0,5600.0,18,R,18729168,18729294,128,1322.8,505.3,4438,right
59,1,continuous,18,87,trial,18726280.0,18731880.0,5600.0,18,R,18729320,18729458,140,1492.7,529.4,4559,right
59,1,continuous,18,87,trial,18726280.0,18731880.0,5600.0,18,R,18729476,18729774,300,1547.0,495.3,4651,right
59,1,continuous,18,87,trial,18726280.0,18731880.0,5600.0,18,R,18729852,18730038,188,323.3,429.8,4374,left
59,1,continuous,18,87,trial,18726280.0,18731880.0,5600.0,18,R,18730048,18730906,860,357.0,431.2,4472,left
59,1,continuous,18,87,trial,18726280.0,18731880.0,5600.0,18,R,18730986,18731278,294,1509.9,513.2,4636,right
59,1,continuous,18,87,trial,18726280.0,18731880.0,5600.0,18,R,18731308,18731544,238,1320.6,482.7,4403,right
59,1,continuous,18,87,trial,18726280.0,18731880.0,5600.0,18,R,18731566,18731694,130,1221.2,532.8,4411,right
59,1,continuous,18,87,postResponse,18726280.0,18731880.0,5600.0,18,R,18731760,18732214,456,380.9,427.9,4686,left
59,1,continuous,19,51,fixationCross,18733063.0,18740481.0,7418.0,19,R,18732290,18732418,130,379.2,423.0,4825,left
59,1,continuous,19,51,fixationCross,18733063.0,18740481.0,7418.0,19,R,18732604,18732746,144,474.4,431.3,4890,left
59,1,continuous,19,51,trial,18733063.0,18740481.0,7418.0,19,R,18732790,18733186,398,935.4,538.7,5041,NA
59,1,continuous,19,51,trial,18733063.0,18740481.0,7418.0,19,R,18733232,18733378,148,491.6,507.4,4997,left
59,1,continuous,19,51,trial,18733063.0,18740481.0,7418.0,19,R,18733392,18733592,202,506.1,549.2,4466,left
59,1,continuous,19,51,trial,18733063.0,18740481.0,7418.0,19,R,18733660,18734140,482,1494.4,528.8,4129,right
59,1,continuous,19,51,trial,18733063.0,18740481.0,7418.0,19,R,18734158,18734648,492,1543.5,540.5,4661,right
59,1,continuous,19,51,trial,18733063.0,18740481.0,7418.0,19,R,18734682,18734858,178,1339.5,535.2,5006,right
59,1,continuous,19,51,trial,18733063.0,18740481.0,7418.0,19,R,18734918,18735064,148,556.0,542.2,5048,left
59,1,continuous,19,51,trial,18733063.0,18740481.0,7418.0,19,R,18735080,18735218,140,506.9,558.9,5126,left
59,1,continuous,19,51,trial,18733063.0,18740481.0,7418.0,19,R,18735260,18735814,556,594.3,396.7,4964,left
59,1,continuous,19,51,trial,18733063.0,18740481.0,7418.0,19,R,18735852,18736216,366,524.6,560.6,5168,left
59,1,continuous,19,51,trial,18733063.0,18740481.0,7418.0,19,R,18736256,18736462,208,608.4,384.9,5143,left
59,1,continuous,19,51,trial,18733063.0,18740481.0,7418.0,19,R,18736470,18736724,256,594.4,398.0,5185,left
59,1,continuous,19,51,trial,18733063.0,18740481.0,7418.0,19,R,18736758,18737340,584,535.0,550.7,5172,left
59,1,continuous,19,51,trial,18733063.0,18740481.0,7418.0,19,R,18737408,18737896,490,1443.8,526.6,4608,right
59,1,continuous,19,51,trial,18733063.0,18740481.0,7418.0,19,R,18737918,18738210,294,1549.3,521.6,4663,right
59,1,continuous,19,51,trial,18733063.0,18740481.0,7418.0,19,R,18738280,18738442,164,523.9,513.8,4850,left
59,1,continuous,19,51,trial,18733063.0,18740481.0,7418.0,19,R,18738460,18738596,138,504.4,550.8,4691,left
59,1,continuous,19,51,trial,18733063.0,18740481.0,7418.0,19,R,18738640,18738812,174,592.3,376.4,4547,left
59,1,continuous,19,51,trial,18733063.0,18740481.0,7418.0,19,R,18738822,18739062,242,576.2,392.3,4520,left
59,1,continuous,19,51,trial,18733063.0,18740481.0,7418.0,19,R,18739124,18739220,98,725.5,904.5,4735,NA
59,1,continuous,19,51,trial,18733063.0,18740481.0,7418.0,19,R,18739258,18739440,184,915.0,1022.9,4802,likertHorizontal
59,1,continuous,19,51,postResponse,18733063.0,18740481.0,7418.0,19,R,18739452,18740814,1364,919.4,982.0,4951,likertHorizontal
59,1,continuous,20,17,fixationCross,18741564.0,18748947.0,7383.0,20,R,18740914,18741238,326,924.1,963.2,5313,likertHorizontal
59,1,continuous,20,17,fixationCross,18741564.0,18748947.0,7383.0,20,R,18741292,18741394,104,950.4,507.2,5519,NA
59,1,continuous,20,17,trial,18741564.0,18748947.0,7383.0,20,R,18741406,18741712,308,949.3,531.4,5588,NA
59,1,continuous,20,17,trial,18741564.0,18748947.0,7383.0,20,R,18741758,18741950,194,550.9,510.3,5383,left
59,1,continuous,20,17,trial,18741564.0,18748947.0,7383.0,20,R,18741976,18742358,384,373.7,516.2,4422,left
59,1,continuous,20,17,trial,18741564.0,18748947.0,7383.0,20,R,18742384,18742632,250,333.3,438.0,4224,left
59,1,continuous,20,17,trial,18741564.0,18748947.0,7383.0,20,R,18742716,18742876,162,1490.7,513.7,4374,right
59,1,continuous,20,17,trial,18741564.0,18748947.0,7383.0,20,R,18742904,18743152,250,1285.3,488.1,4391,right
59,1,continuous,20,17,trial,18741564.0,18748947.0,7383.0,20,R,18743162,18743328,168,1296.9,470.9,4383,right
59,1,continuous,20,17,trial,18741564.0,18748947.0,7383.0,20,R,18743466,18743716,252,1314.6,476.7,4755,right
59,1,continuous,20,17,trial,18741564.0,18748947.0,7383.0,20,R,18743724,18744808,1086,1286.1,474.8,5094,right
59,1,continuous,20,17,trial,18741564.0,18748947.0,7383.0,20,R,18744870,18745114,246,548.2,514.0,5448,left
59,1,continuous,20,17,trial,18741564.0,18748947.0,7383.0,20,R,18745150,18745378,230,350.4,524.9,5144,left
59,1,continuous,20,17,trial,18741564.0,18748947.0,7383.0,20,R,18745404,18745944,542,367.8,438.0,4881,left
59,1,continuous,20,17,trial,18741564.0,18748947.0,7383.0,20,R,18745962,18746202,242,329.4,466.5,5111,left
59,1,continuous,20,17,trial,18741564.0,18748947.0,7383.0,20,R,18746220,18746692,474,376.0,503.3,5306,left
59,1,continuous,20,17,trial,18741564.0,18748947.0,7383.0,20,R,18746720,18747032,314,603.9,493.9,5413,left
59,1,continuous,20,17,trial,18741564.0,18748947.0,7383.0,20,R,18747056,18747374,320,460.4,501.9,5328,left
59,1,continuous,20,17,trial,18741564.0,18748947.0,7383.0,20,R,18747442,18747682,242,1377.2,482.6,5034,right
59,1,continuous,20,17,trial,18741564.0,18748947.0,7383.0,20,R,18747698,18748030,334,1314.4,480.2,4740,right
59,1,continuous,20,17,trial,18741564.0,18748947.0,7383.0,20,R,18748092,18748318,228,485.4,491.6,5035,left
59,1,continuous,20,17,trial,18741564.0,18748947.0,7383.0,20,R,18748342,18748648,308,602.4,523.2,4961,left
59,1,continuous,20,17,postResponse,18741564.0,18748947.0,7383.0,20,R,18748706,18749282,578,1354.0,501.7,4657,right
59,1,continuous,21,88,fixationCross,18749964.0,18752097.0,2133.0,21,R,18749356,18749644,290,1344.9,507.6,4986,right
59,1,continuous,21,88,trial,18749964.0,18752097.0,2133.0,21,R,18749688,18750104,418,948.4,531.2,5352,NA
59,1,continuous,21,88,trial,18749964.0,18752097.0,2133.0,21,R,18750152,18750322,172,477.8,529.9,5293,left
59,1,continuous,21,88,trial,18749964.0,18752097.0,2133.0,21,R,18750334,18750586,254,436.6,549.2,4559,left
59,1,continuous,21,88,trial,18749964.0,18752097.0,2133.0,21,R,18750664,18750922,260,1579.2,455.5,4129,right
59,1,continuous,21,88,trial,18749964.0,18752097.0,2133.0,21,R,18750944,18751090,148,1481.6,484.5,4191,right
59,1,continuous,21,88,trial,18749964.0,18752097.0,2133.0,21,R,18751110,18751328,220,1579.2,480.4,4410,right
59,1,continuous,21,88,trial,18749964.0,18752097.0,2133.0,21,R,18751404,18751986,584,453.9,563.2,4627,left
59,1,continuous,21,88,trial,18749964.0,18752097.0,2133.0,21,R,18752054,18752340,288,1431.9,564.8,4362,right
59,1,continuous,21,88,postResponse,18749964.0,18752097.0,2133.0,21,R,18752388,18752430,44,1298.2,833.0,4532,NA
59,1,continuous,22,14,fixationCross,18753081.0,18757214.0,4133.0,22,R,18752530,18752550,22,1294.7,837.1,4676,NA
59,1,continuous,22,14,fixationCross,18753081.0,18757214.0,4133.0,22,R,18752598,18752778,182,1122.7,613.5,4866,NA
59,1,continuous,22,14,trial,18753081.0,18757214.0,4133.0,22,R,18752812,18753220,410,868.1,565.6,5136,NA
59,1,continuous,22,14,trial,18753081.0,18757214.0,4133.0,22,R,18753266,18753482,218,444.5,556.0,4993,left
59,1,continuous,22,14,trial,18753081.0,18757214.0,4133.0,22,R,18753554,18753970,418,1480.2,456.3,4032,right
59,1,continuous,22,14,trial,18753081.0,18757214.0,4133.0,22,R,18753990,18754468,480,1394.4,425.9,4369,right
59,1,continuous,22,14,trial,18753081.0,18757214.0,4133.0,22,R,18754482,18754770,290,1425.5,461.5,4690,right
59,1,continuous,22,14,trial,18753081.0,18757214.0,4133.0,22,R,18754840,18755130,292,486.1,539.5,4600,left
59,1,continuous,22,14,trial,18753081.0,18757214.0,4133.0,22,R,18755146,18756114,970,434.9,529.6,4535,left
59,1,continuous,22,14,trial,18753081.0,18757214.0,4133.0,22,R,18756184,18756544,362,1401.4,457.3,4458,right
59,1,continuous,22,14,trial,18753081.0,18757214.0,4133.0,22,R,18756556,18756686,132,1427.4,485.5,4434,right
59,1,continuous,22,14,trial,18753081.0,18757214.0,4133.0,22,R,18756758,18757036,280,418.2,552.6,4669,left
59,1,continuous,22,14,trial,18753081.0,18757214.0,4133.0,22,R,18757050,18757466,418,446.6,550.5,4378,left
59,1,continuous,23,1,fixationCross,18758080.0,18759231.0,1151.0,23,R,18757622,18757720,100,653.6,929.4,4437,NA
59,1,continuous,23,1,fixationCross,18758080.0,18759231.0,1151.0,23,R,18757788,18757962,176,982.3,465.1,4681,NA
59,1,continuous,23,1,fixationCross,18758080.0,18759231.0,1151.0,23,R,18757978,18758070,94,961.6,511.7,4898,NA
59,1,continuous,23,1,trial,18758080.0,18759231.0,1151.0,23,R,18758086,18758248,164,941.6,543.3,5030,NA
59,1,continuous,23,1,trial,18758080.0,18759231.0,1151.0,23,R,18758294,18758530,238,500.5,517.4,4882,left
59,1,continuous,23,1,trial,18758080.0,18759231.0,1151.0,23,R,18758550,18758758,210,468.2,583.1,4254,left
59,1,continuous,23,1,trial,18758080.0,18759231.0,1151.0,23,R,18758786,18759096,312,525.5,449.6,4139,left
59,1,continuous,23,1,postResponse,18758080.0,18759231.0,1151.0,23,R,18759158,18759564,408,1426.5,458.3,4280,right
59,1,continuous,24,75,fixationCross,18760397.0,18764381.0,3984.0,24,R,18759638,18759680,44,1421.7,459.9,4403,right
59,1,continuous,24,75,fixationCross,18760397.0,18764381.0,3984.0,24,R,18759738,18760018,282,889.1,472.5,4791,NA
59,1,continuous,24,75,fixationCross,18760397.0,18764381.0,3984.0,24,R,18760036,18760252,218,814.1,506.3,5043,NA
59,1,continuous,24,75,trial,18760397.0,18764381.0,3984.0,24,R,18760274,18760528,256,922.8,549.2,5226,NA
59,1,continuous,24,75,trial,18760397.0,18764381.0,3984.0,24,R,18760576,18760828,254,506.7,504.4,5039,left
59,1,continuous,24,75,trial,18760397.0,18764381.0,3984.0,24,R,18760856,18761000,146,496.4,412.5,4361,left
59,1,continuous,24,75,trial,18760397.0,18764381.0,3984.0,24,R,18761016,18761182,168,442.2,406.8,4167,left
59,1,continuous,24,75,trial,18760397.0,18764381.0,3984.0,24,R,18761250,18761532,284,1398.2,506.1,4137,right
59,1,continuous,24,75,trial,18760397.0,18764381.0,3984.0,24,R,18761558,18761730,174,1268.4,430.8,4187,right
59,1,continuous,24,75,trial,18760397.0,18764381.0,3984.0,24,R,18761760,18762028,270,1456.0,541.7,4178,right
59,1,continuous,24,75,trial,18760397.0,18764381.0,3984.0,24,R,18762048,18762216,170,1531.0,554.2,4254,right
59,1,continuous,24,75,trial,18760397.0,18764381.0,3984.0,24,R,18762248,18762546,300,1311.1,460.2,4405,right
59,1,continuous,24,75,trial,18760397.0,18764381.0,3984.0,24,R,18762568,18762836,270,1364.0,536.1,4485,right
59,1,continuous,24,75,trial,18760397.0,18764381.0,3984.0,24,R,18762852,18763278,428,1388.3,571.5,4554,right
59,1,continuous,24,75,trial,18760397.0,18764381.0,3984.0,24,R,18763344,18763582,240,470.9,509.7,4378,left
59,1,continuous,24,75,trial,18760397.0,18764381.0,3984.0,24,R,18763604,18763782,180,409.5,557.0,4302,left
59,1,continuous,24,75,trial,18760397.0,18764381.0,3984.0,24,R,18763848,18764224,378,1401.1,552.4,4468,right
59,1,continuous,24,75,trial,18760397.0,18764381.0,3984.0,24,R,18764258,18764360,104,1299.0,628.7,4583,right
59,1,continuous,24,75,postResponse,18760397.0,18764381.0,3984.0,24,R,18764410,18764714,306,1162.7,960.6,4668,likertHorizontal
59,1,continuous,25,73,fixationCross,18765264.0,18772213.0,6949.0,25,R,18764812,18764826,16,966.0,653.9,4760,NA
59,1,continuous,25,73,fixationCross,18765264.0,18772213.0,6949.0,25,R,18764836,18765206,372,924.8,561.2,4954,NA
59,1,continuous,25,73,trial,18765264.0,18772213.0,6949.0,25,R,18765218,18765398,182,951.1,551.3,5190,NA
59,1,continuous,25,73,trial,18765264.0,18772213.0,6949.0,25,R,18765446,18765612,168,520.5,502.7,5149,left
59,1,continuous,25,73,trial,18765264.0,18772213.0,6949.0,25,R,18765630,18765738,110,555.0,484.5,4637,left
59,1,continuous,25,73,trial,18765264.0,18772213.0,6949.0,25,R,18765800,18766106,308,1415.8,520.4,4254,right
59,1,continuous,25,73,trial,18765264.0,18772213.0,6949.0,25,R,18766126,18766594,470,1347.0,556.3,4826,right
59,1,continuous,25,73,trial,18765264.0,18772213.0,6949.0,25,R,18766764,18767126,364,1325.1,581.9,5218,right
59,1,continuous,25,73,trial,18765264.0,18772213.0,6949.0,25,R,18767144,18767450,308,1354.9,630.2,5163,right
59,1,continuous,25,73,trial,18765264.0,18772213.0,6949.0,25,R,18767484,18767776,294,1424.5,474.2,4717,right
59,1,continuous,25,73,trial,18765264.0,18772213.0,6949.0,25,R,18767806,18768078,274,1302.6,565.5,4851,right
59,1,continuous,25,73,trial,18765264.0,18772213.0,6949.0,25,R,18768112,18768318,208,1501.8,616.0,5121,right
59,1,continuous,25,73,trial,18765264.0,18772213.0,6949.0,25,R,18768352,18768566,216,1344.1,651.8,5256,right
59,1,continuous,25,73,trial,18765264.0,18772213.0,6949.0,25,R,18768634,18768990,358,442.6,493.0,5209,left
59,1,continuous,25,73,trial,18765264.0,18772213.0,6949.0,25,R,18769016,18769282,268,473.1,632.6,4878,left
59,1,continuous,25,73,trial,18765264.0,18772213.0,6949.0,25,R,18769298,18769580,284,440.6,685.8,5192,left
59,1,continuous,25,73,trial,18765264.0,18772213.0,6949.0,25,R,18769592,18769980,390,477.3,685.3,5512,left
59,1,continuous,25,73,trial,18765264.0,18772213.0,6949.0,25,R,18770026,18770198,174,451.1,404.5,5340,left
59,1,continuous,25,73,trial,18765264.0,18772213.0,6949.0,25,R,18770224,18770564,342,611.6,435.5,5230,left
59,1,continuous,25,73,trial,18765264.0,18772213.0,6949.0,25,R,18770598,18770864,268,444.7,421.2,5394,left
59,1,continuous,25,73,trial,18765264.0,18772213.0,6949.0,25,R,18770890,18771096,208,561.6,478.7,5413,left
59,1,continuous,25,73,trial,18765264.0,18772213.0,6949.0,25,R,18771166,18771372,208,1455.5,606.9,4996,right
59,1,continuous,25,73,trial,18765264.0,18772213.0,6949.0,25,R,18771396,18771578,184,1409.5,554.5,4866,right
59,1,continuous,25,73,trial,18765264.0,18772213.0,6949.0,25,R,18771602,18771832,232,1525.4,581.0,4879,right
59,1,continuous,25,73,trial,18765264.0,18772213.0,6949.0,25,R,18771854,18771998,146,1564.7,661.8,4961,right
59,1,continuous,25,73,trial,18765264.0,18772213.0,6949.0,25,R,18772034,18772460,428,1335.8,648.3,4934,right
59,1,continuous,26,82,fixationCross,18801147.0,18804715.0,3568.0,26,R,18800514,18800606,94,193.9,38.8,5464,NA
59,1,continuous,26,82,fixationCross,18801147.0,18804715.0,3568.0,26,R,18800702,18800832,132,981.2,696.2,5069,NA
59,1,continuous,26,82,fixationCross,18801147.0,18804715.0,3568.0,26,R,18800870,18800972,104,963.0,518.4,4907,NA
59,1,continuous,26,82,trial,18801147.0,18804715.0,3568.0,26,R,18800992,18801290,300,976.5,555.0,5162,NA
59,1,continuous,26,82,trial,18801147.0,18804715.0,3568.0,26,R,18801338,18801492,156,559.8,515.6,5472,left
59,1,continuous,26,82,trial,18801147.0,18804715.0,3568.0,26,R,18801518,18801636,120,426.3,471.9,4893,left
59,1,continuous,26,82,trial,18801147.0,18804715.0,3568.0,26,R,18801662,18801842,182,581.2,576.9,4513,left
59,1,continuous,26,82,trial,18801147.0,18804715.0,3568.0,26,R,18801852,18801940,90,550.8,582.6,4369,left
59,1,continuous,26,82,trial,18801147.0,18804715.0,3568.0,26,R,18802002,18802446,446,1415.4,591.7,4285,right
59,1,continuous,26,82,trial,18801147.0,18804715.0,3568.0,26,R,18802472,18802644,174,1315.2,534.8,4513,right
59,1,continuous,26,82,trial,18801147.0,18804715.0,3568.0,26,R,18802706,18802906,202,523.3,517.1,4602,left
59,1,continuous,26,82,trial,18801147.0,18804715.0,3568.0,26,R,18802926,18803168,244,543.1,562.6,4666,left
59,1,continuous,26,82,trial,18801147.0,18804715.0,3568.0,26,R,18803196,18803466,272,414.7,445.3,4791,left
59,1,continuous,26,82,trial,18801147.0,18804715.0,3568.0,26,R,18803490,18803650,162,510.2,558.5,4649,left
59,1,continuous,26,82,trial,18801147.0,18804715.0,3568.0,26,R,18803714,18803966,254,1384.7,602.2,4527,right
59,1,continuous,26,82,trial,18801147.0,18804715.0,3568.0,26,R,18803988,18804154,168,1486.3,562.0,4481,right
59,1,continuous,26,82,trial,18801147.0,18804715.0,3568.0,26,R,18804180,18804644,466,1320.0,618.4,4574,right
59,1,continuous,26,82,postResponse,18801147.0,18804715.0,3568.0,26,R,18804674,18805048,376,1522.4,595.0,4719,right
59,1,continuous,27,17,fixationCross,18805747.0,18807747.0,2000.0,27,R,18805156,18805328,174,1111.1,586.0,4994,NA
59,1,continuous,27,17,fixationCross,18805747.0,18807747.0,2000.0,27,R,18805372,18805492,122,867.6,485.7,5184,NA
59,1,continuous,27,17,trial,18805747.0,18807747.0,2000.0,27,R,18805514,18805872,360,949.2,536.5,5325,NA
59,1,continuous,27,17,trial,18805747.0,18807747.0,2000.0,27,R,18805922,18806074,154,559.1,510.3,5425,left
59,1,continuous,27,17,trial,18805747.0,18807747.0,2000.0,27,R,18806096,18806664,570,463.8,473.9,4629,left
59,1,continuous,27,17,trial,18805747.0,18807747.0,2000.0,27,R,18806676,18806812,138,493.6,472.4,4542,left
59,1,continuous,27,17,trial,18805747.0,18807747.0,2000.0,27,R,18806876,18807086,212,1423.9,461.8,4434,right
59,1,continuous,27,17,trial,18805747.0,18807747.0,2000.0,27,R,18807114,18807586,474,1620.5,557.8,4376,right
59,1,continuous,27,17,trial,18805747.0,18807747.0,2000.0,27,R,18807616,18808018,404,1373.0,462.4,4623,right
59,1,continuous,27,17,postResponse,18805747.0,18807747.0,2000.0,27,R,18808058,18808090,34,1054.5,515.2,4769,NA
59,1,continuous,28,82,fixationCross,18808948.0,18812481.0,3533.0,28,R,18808190,18808406,218,889.4,574.0,4938,NA
59,1,continuous,28,82,fixationCross,18808948.0,18812481.0,3533.0,28,R,18808432,18808676,246,737.9,526.3,5164,NA
59,1,continuous,28,82,trial,18808948.0,18812481.0,3533.0,28,R,18808704,18809078,376,930.1,539.9,5200,NA
59,1,continuous,28,82,trial,18808948.0,18812481.0,3533.0,28,R,18809126,18809268,144,509.2,489.8,5209,left
59,1,continuous,28,82,trial,18808948.0,18812481.0,3533.0,28,R,18809280,18809858,580,514.8,468.6,4517,left
59,1,continuous,28,82,trial,18808948.0,18812481.0,3533.0,28,R,18809928,18810114,188,1509.0,450.6,4631,right
59,1,continuous,28,82,trial,18808948.0,18812481.0,3533.0,28,R,18810124,18811224,1102,1491.0,435.3,4935,right
59,1,continuous,28,82,trial,18808948.0,18812481.0,3533.0,28,R,18811238,18811424,188,1478.9,470.3,5280,right
59,1,continuous,28,82,trial,18808948.0,18812481.0,3533.0,28,R,18811498,18811616,120,520.8,503.1,5385,left
59,1,continuous,28,82,trial,18808948.0,18812481.0,3533.0,28,R,18811638,18812064,428,535.5,472.1,4950,left
59,1,continuous,28,82,trial,18808948.0,18812481.0,3533.0,28,R,18812130,18812688,560,1443.5,488.5,4481,right
59,1,continuous,28,82,postResponse,18808948.0,18812481.0,3533.0,28,R,18812754,18812814,62,1002.9,586.1,4829,NA
59,1,continuous,29,88,fixationCross,18813364.0,18817281.0,3917.0,29,R,18812890,18813226,338,978.7,584.7,4986,NA
59,1,continuous,29,88,trial,18813364.0,18817281.0,3917.0,29,R,18813240,18813366,128,941.8,572.7,5206,NA
59,1,continuous,29,88,trial,18813364.0,18817281.0,3917.0,29,R,18813376,18813530,156,954.0,552.8,5300,NA
59,1,continuous,29,88,trial,18813364.0,18817281.0,3917.0,29,R,18813576,18813776,202,541.2,489.7,5046,left
59,1,continuous,29,88,trial,18813364.0,18817281.0,3917.0,29,R,18813788,18814008,222,512.5,528.8,4347,left
59,1,continuous,29,88,trial,18813364.0,18817281.0,3917.0,29,R,18814022,18814336,316,528.9,477.7,4141,left
59,1,continuous,29,88,trial,18813364.0,18817281.0,3917.0,29,R,18814402,18814634,234,1443.4,476.1,4110,right
59,1,continuous,29,88,trial,18813364.0,18817281.0,3917.0,29,R,18814652,18814904,254,1421.9,430.9,4117,right
59,1,continuous,29,88,trial,18813364.0,18817281.0,3917.0,29,R,18814978,18815164,188,457.7,537.9,4486,left
59,1,continuous,29,88,trial,18813364.0,18817281.0,3917.0,29,R,18815200,18815442,244,266.9,618.1,4520,left
59,1,continuous,29,88,trial,18813364.0,18817281.0,3917.0,29,R,18815478,18815710,234,520.6,509.7,4388,left
59,1,continuous,29,88,trial,18813364.0,18817281.0,3917.0,29,R,18815728,18815878,152,514.6,463.3,4411,left
59,1,continuous,29,88,trial,18813364.0,18817281.0,3917.0,29,R,18815894,18816132,240,512.3,505.8,4603,left
59,1,continuous,29,88,trial,18813364.0,18817281.0,3917.0,29,R,18816200,18816402,204,1442.0,473.9,4616,right
59,1,continuous,29,88,trial,18813364.0,18817281.0,3917.0,29,R,18816414,18816608,196,1420.4,444.3,4366,right
59,1,continuous,29,88,trial,18813364.0,18817281.0,3917.0,29,R,18816634,18817188,556,1424.1,584.5,4397,right
59,1,continuous,29,88,trial,18813364.0,18817281.0,3917.0,29,R,18817254,18817576,324,464.3,512.5,4761,left
59,1,continuous,30,51,fixationCross,18818147.0,18823014.0,4867.0,30,R,18817690,18818056,368,886.2,574.0,4706,NA
59,1,continuous,30,51,trial,18818147.0,18823014.0,4867.0,30,R,18818072,18818284,214,949.2,560.7,5069,NA
59,1,continuous,30,51,trial,18818147.0,18823014.0,4867.0,30,R,18818336,18818470,136,488.3,479.7,5177,left
59,1,continuous,30,51,trial,18818147.0,18823014.0,4867.0,30,R,18818488,18818640,154,458.0,536.8,4631,left
59,1,continuous,30,51,trial,18818147.0,18823014.0,4867.0,30,R,18818656,18818976,322,480.6,483.0,4182,left
59,1,continuous,30,51,trial,18818147.0,18823014.0,4867.0,30,R,18819050,18819176,128,1509.9,472.5,4038,right
59,1,continuous,30,51,trial,18818147.0,18823014.0,4867.0,30,R,18819192,18819356,166,1435.7,453.2,4135,right
59,1,continuous,30,51,trial,18818147.0,18823014.0,4867.0,30,R,18819380,18819636,258,1400.3,539.5,4346,right
59,1,continuous,30,51,trial,18818147.0,18823014.0,4867.0,30,R,18819654,18819926,274,1472.6,561.0,4641,right
59,1,continuous,30,51,trial,18818147.0,18823014.0,4867.0,30,R,18819950,18820358,410,1430.4,457.8,4716,right
59,1,continuous,30,51,trial,18818147.0,18823014.0,4867.0,30,R,18820380,18820554,176,1430.2,540.8,4628,right
59,1,continuous,30,51,trial,18818147.0,18823014.0,4867.0,30,R,18820622,18820886,266,478.1,510.2,4659,left
59,1,continuous,30,51,trial,18818147.0,18823014.0,4867.0,30,R,18820902,18821502,602,480.9,473.2,4282,left
59,1,continuous,30,51,trial,18818147.0,18823014.0,4867.0,30,R,18821570,18821690,122,756.7,1075.1,4547,likertHorizontal
59,1,continuous,30,51,trial,18818147.0,18823014.0,4867.0,30,R,18821728,18821902,176,1024.9,1013.4,4488,likertHorizontal
59,1,continuous,30,51,trial,18818147.0,18823014.0,4867.0,30,R,18821924,18823190,1268,914.9,985.3,4883,likertHorizontal
59,1,continuous,30,51,postResponse,18818147.0,18823014.0,4867.0,30,R,18823248,18823348,102,886.7,548.8,5051,NA
59,1,continuous,31,75,fixationCross,18823898.0,18828365.0,4467.0,31,R,18823424,18823842,420,895.5,546.2,5177,NA
59,1,continuous,31,75,trial,18823898.0,18828365.0,4467.0,31,R,18823858,18824050,194,952.8,548.9,5467,NA
59,1,continuous,31,75,trial,18823898.0,18828365.0,4467.0,31,R,18824102,18824256,156,484.6,500.9,5441,left
59,1,continuous,31,75,trial,18823898.0,18828365.0,4467.0,31,R,18824282,18824528,248,414.3,605.9,4750,left
59,1,continuous,31,75,trial,18823898.0,18828365.0,4467.0,31,R,18824556,18824848,294,479.3,457.1,4587,left
59,1,continuous,31,75,trial,18823898.0,18828365.0,4467.0,31,R,18824964,18825492,530,477.7,516.1,5098,left
59,1,continuous,31,75,trial,18823898.0,18828365.0,4467.0,31,R,18825514,18825618,106,416.2,618.2,4941,left
59,1,continuous,31,75,trial,18823898.0,18828365.0,4467.0,31,R,18825772,18825810,40,447.7,591.2,4649,left
59,1,continuous,31,75,trial,18823898.0,18828365.0,4467.0,31,R,18825878,18826052,176,1458.7,523.0,4572,right
59,1,continuous,31,75,trial,18823898.0,18828365.0,4467.0,31,R,18826072,18826228,158,1415.9,572.1,4799,right
59,1,continuous,31,75,trial,18823898.0,18828365.0,4467.0,31,R,18826240,18826358,120,1439.7,600.0,4879,right
59,1,continuous,31,75,trial,18823898.0,18828365.0,4467.0,31,R,18826380,18826592,214,1482.6,686.1,4953,right
59,1,continuous,31,75,trial,18823898.0,18828365.0,4467.0,31,R,18826632,18827028,398,1504.0,468.0,4917,right
59,1,continuous,31,75,trial,18823898.0,18828365.0,4467.0,31,R,18827058,18827222,166,1286.9,537.0,5024,right
59,1,continuous,31,75,trial,18823898.0,18828365.0,4467.0,31,R,18827248,18827442,196,1438.1,611.9,5215,right
59,1,continuous,31,75,trial,18823898.0,18828365.0,4467.0,31,R,18827464,18827656,194,1487.2,673.8,5331,right
59,1,continuous,31,75,trial,18823898.0,18828365.0,4467.0,31,R,18827694,18827886,194,1482.1,458.7,5213,right
59,1,continuous,31,75,trial,18823898.0,18828365.0,4467.0,31,R,18827954,18828158,206,479.9,546.3,5190,left
59,1,continuous,31,75,trial,18823898.0,18828365.0,4467.0,31,R,18828182,18828642,462,407.4,626.5,4941,left
59,1,continuous,31,75,postResponse,18823898.0,18828365.0,4467.0,31,R,18828666,18828698,34,516.0,612.1,4831,left
59,1,continuous,32,81,fixationCross,18829381.0,18832748.0,3367.0,32,R,18828772,18828856,86,512.2,611.4,4837,left
59,1,continuous,32,81,fixationCross,18829381.0,18832748.0,3367.0,32,R,18828902,18829094,194,728.3,528.2,5012,left
59,1,continuous,32,81,trial,18829381.0,18832748.0,3367.0,32,R,18829126,18829506,382,935.0,543.0,5305,NA
59,1,continuous,32,81,trial,18829381.0,18832748.0,3367.0,32,R,18829554,18829766,214,519.7,526.7,5289,left
59,1,continuous,32,81,trial,18829381.0,18832748.0,3367.0,32,R,18829792,18830008,218,375.8,497.0,4581,left
59,1,continuous,32,81,trial,18829381.0,18832748.0,3367.0,32,R,18830082,18830284,204,1467.9,511.8,4278,right
59,1,continuous,32,81,trial,18829381.0,18832748.0,3367.0,32,R,18830306,18830818,514,1379.0,464.3,4385,right
59,1,continuous,32,81,trial,18829381.0,18832748.0,3367.0,32,R,18830840,18831154,316,1451.7,502.8,4930,right
59,1,continuous,32,81,trial,18829381.0,18832748.0,3367.0,32,R,18831236,18831798,564,437.6,562.1,5086,left
59,1,continuous,32,81,trial,18829381.0,18832748.0,3367.0,32,R,18831820,18831922,104,478.7,628.7,4968,left
59,1,continuous,32,81,trial,18829381.0,18832748.0,3367.0,32,R,18831986,18832270,286,1377.0,517.4,4912,right
59,1,continuous,32,81,trial,18829381.0,18832748.0,3367.0,32,R,18832292,18832484,194,1488.4,546.1,4739,right
59,1,continuous,32,81,trial,18829381.0,18832748.0,3367.0,32,R,18832506,18832972,468,1414.5,445.1,4965,right
59,1,continuous,32,81,postResponse,18829381.0,18832748.0,3367.0,32,R,18833018,18833082,66,1079.3,517.0,5285,NA
59,1,continuous,33,51,fixationCross,18834665.0,18842282.0,7617.0,33,R,18833182,18833408,228,1075.9,522.9,5330,NA
59,1,continuous,33,51,fixationCross,18834665.0,18842282.0,7617.0,33,R,18833488,18833654,168,1321.1,1395.0,5418,NA
59,1,continuous,33,51,fixationCross,18834665.0,18842282.0,7617.0,33,R,18833684,18834140,458,1476.5,1355.4,5447,NA
59,1,continuous,33,51,fixationCross,18834665.0,18842282.0,7617.0,33,R,18834192,18834330,140,998.7,1151.5,5694,likertHorizontal
59,1,continuous,33,51,fixationCross,18834665.0,18842282.0,7617.0,33,R,18834390,18834542,154,978.2,570.1,5728,NA
59,1,continuous,33,51,trial,18834665.0,18842282.0,7617.0,33,R,18834560,18834792,234,986.0,526.6,5791,NA
59,1,continuous,33,51,trial,18834665.0,18842282.0,7617.0,33,R,18834840,18835024,186,531.6,502.8,5721,left
59,1,continuous,33,51,trial,18834665.0,18842282.0,7617.0,33,R,18835048,18835260,214,424.8,427.1,4991,left
59,1,continuous,33,51,trial,18834665.0,18842282.0,7617.0,33,R,18835274,18835666,394,457.5,459.9,4667,left
59,1,continuous,33,51,trial,18834665.0,18842282.0,7617.0,33,R,18835678,18836936,1260,478.9,465.4,5083,left
59,1,continuous,33,51,trial,18834665.0,18842282.0,7617.0,33,R,18837010,18837240,232,1544.5,496.6,4883,right
59,1,continuous,33,51,trial,18834665.0,18842282.0,7617.0,33,R,18837252,18837374,124,1576.2,489.1,4608,right
59,1,continuous,33,51,trial,18834665.0,18842282.0,7617.0,33,R,18837446,18837850,406,575.9,538.0,4669,left
59,1,continuous,33,51,trial,18834665.0,18842282.0,7617.0,33,R,18837864,18838294,432,610.4,509.9,4748,left
59,1,continuous,33,51,trial,18834665.0,18842282.0,7617.0,33,R,18838322,18838744,424,447.6,477.2,4831,left
59,1,continuous,33,51,trial,18834665.0,18842282.0,7617.0,33,R,18838756,18839116,362,480.3,487.9,4965,left
59,1,continuous,33,51,trial,18834665.0,18842282.0,7617.0,33,R,18839190,18839362,174,1504.7,510.1,4727,right
59,1,continuous,33,51,trial,18834665.0,18842282.0,7617.0,33,R,18839382,18839592,212,1573.7,490.8,4509,right
59,1,continuous,33,51,trial,18834665.0,18842282.0,7617.0,33,R,18839658,18839950,294,977.9,963.3,4680,likertHorizontal
59,1,continuous,33,51,trial,18834665.0,18842282.0,7617.0,33,R,18839974,18840508,536,853.6,996.5,5007,likertHorizontal
59,1,continuous,33,51,trial,18834665.0,18842282.0,7617.0,33,R,18840564,18840898,336,527.5,544.9,5029,left
59,1,continuous,33,51,trial,18834665.0,18842282.0,7617.0,33,R,18840952,18841080,130,858.0,1051.5,4723,likertHorizontal
59,1,continuous,33,51,trial,18834665.0,18842282.0,7617.0,33,R,18841100,18841300,202,887.9,1009.5,4670,likertHorizontal
59,1,continuous,33,51,trial,18834665.0,18842282.0,7617.0,33,R,18841312,18842534,1224,921.6,998.8,5058,likertHorizontal
59,1,continuous,34,83,fixationCross,18843331.0,18847448.0,4117.0,34,R,18842718,18842736,20,833.0,456.4,5502,NA
59,1,continuous,34,83,fixationCross,18843331.0,18847448.0,4117.0,34,R,18842784,18843034,252,1134.1,434.2,5492,NA
59,1,continuous,34,83,fixationCross,18843331.0,18847448.0,4117.0,34,R,18843068,18843166,100,951.7,518.8,5561,NA
59,1,continuous,34,83,trial,18843331.0,18847448.0,4117.0,34,R,18843178,18843460,284,955.5,540.4,5659,NA
59,1,continuous,34,83,trial,18843331.0,18847448.0,4117.0,34,R,18843512,18843642,132,523.3,461.1,5660,left
59,1,continuous,34,83,trial,18843331.0,18847448.0,4117.0,34,R,18843658,18843926,270,562.5,490.4,4795,left
59,1,continuous,34,83,trial,18843331.0,18847448.0,4117.0,34,R,18843950,18844144,196,406.5,484.5,4361,left
59,1,continuous,34,83,trial,18843331.0,18847448.0,4117.0,34,R,18844154,18844308,156,432.3,474.6,4388,left
59,1,continuous,34,83,trial,18843331.0,18847448.0,4117.0,34,R,18844332,18844468,138,570.0,501.3,4555,left
59,1,continuous,34,83,trial,18843331.0,18847448.0,4117.0,34,R,18844530,18845866,1338,1424.8,526.8,4783,right
59,1,continuous,34,83,trial,18843331.0,18847448.0,4117.0,34,R,18845886,18846314,430,1342.7,539.1,5179,right
59,1,continuous,34,83,trial,18843331.0,18847448.0,4117.0,34,R,18846378,18846742,366,562.2,491.4,5138,left
59,1,continuous,34,83,trial,18843331.0,18847448.0,4117.0,34,R,18846768,18846906,140,417.8,481.0,4727,left
59,1,continuous,34,83,trial,18843331.0,18847448.0,4117.0,34,R,18846974,18847172,200,1364.9,572.1,4554,right
59,1,continuous,34,83,trial,18843331.0,18847448.0,4117.0,34,R,18847198,18847410,214,1343.5,714.5,4517,right
59,1,continuous,34,83,postResponse,18843331.0,18847448.0,4117.0,34,R,18847474,18847782,310,517.9,503.4,4699,left
59,1,continuous,35,18,fixationCross,18848498.0,18850515.0,2017.0,35,R,18847856,18848192,338,848.1,518.3,4855,NA
59,1,continuous,35,18,fixationCross,18848498.0,18850515.0,2017.0,35,R,18848212,18848322,112,918.2,524.6,5123,NA
59,1,continuous,35,18,trial,18848498.0,18850515.0,2017.0,35,R,18848336,18848618,284,948.4,547.9,5290,NA
59,1,continuous,35,18,trial,18848498.0,18850515.0,2017.0,35,R,18848666,18848814,150,579.7,482.9,5351,left
59,1,continuous,35,18,trial,18848498.0,18850515.0,2017.0,35,R,18848840,18849146,308,495.1,570.6,4473,left
59,1,continuous,35,18,trial,18848498.0,18850515.0,2017.0,35,R,18849214,18849356,144,1465.4,535.7,3955,right
59,1,continuous,35,18,trial,18848498.0,18850515.0,2017.0,35,R,18849376,18849666,292,1402.6,488.3,3988,right
59,1,continuous,35,18,trial,18848498.0,18850515.0,2017.0,35,R,18849692,18850016,326,1542.0,513.6,4321,right
59,1,continuous,35,18,trial,18848498.0,18850515.0,2017.0,35,R,18850086,18850300,216,537.1,576.1,4687,left
59,1,continuous,35,18,trial,18848498.0,18850515.0,2017.0,35,R,18850326,18850732,408,351.2,563.6,4222,left
59,1,continuous,35,18,postResponse,18848498.0,18850515.0,2017.0,35,R,18850758,18850848,92,504.1,587.4,4108,left
59,1,continuous,36,76,fixationCross,18851582.0,18854015.0,2433.0,36,R,18850948,18851020,74,510.5,582.3,4256,left
59,1,continuous,36,76,fixationCross,18851582.0,18854015.0,2433.0,36,R,18851100,18851276,178,1213.3,518.2,4522,right
59,1,continuous,36,76,trial,18851582.0,18854015.0,2433.0,36,R,18851314,18851744,432,950.5,553.6,4978,NA
59,1,continuous,36,76,trial,18851582.0,18854015.0,2433.0,36,R,18851792,18851972,182,508.0,492.6,5011,left
59,1,continuous,36,76,trial,18851582.0,18854015.0,2433.0,36,R,18851996,18852228,234,445.1,434.7,4325,left
59,1,continuous,36,76,trial,18851582.0,18854015.0,2433.0,36,R,18852298,18852752,456,1438.4,467.6,4042,right
59,1,continuous,36,76,trial,18851582.0,18854015.0,2433.0,36,R,18852774,18853022,250,1359.4,534.4,4475,right
59,1,continuous,36,76,trial,18851582.0,18854015.0,2433.0,36,R,18853088,18853370,284,462.1,462.4,4750,left
59,1,continuous,36,76,trial,18851582.0,18854015.0,2433.0,36,R,18853396,18853618,224,599.5,533.7,4567,left
59,1,continuous,36,76,trial,18851582.0,18854015.0,2433.0,36,R,18853682,18853840,160,1407.7,555.6,4397,right
59,1,continuous,36,76,trial,18851582.0,18854015.0,2433.0,36,R,18853880,18854008,130,1424.7,408.7,4406,right
59,1,continuous,36,76,postResponse,18851582.0,18854015.0,2433.0,36,R,18854024,18854348,326,1430.3,367.3,4426,right
59,1,continuous,37,27,fixationCross,18855115.0,18857182.0,2067.0,37,R,18854454,18854706,254,1149.1,468.2,4753,NA
59,1,continuous,37,27,fixationCross,18855115.0,18857182.0,2067.0,37,R,18854766,18854844,80,691.8,491.5,5020,left
59,1,continuous,37,27,trial,18855115.0,18857182.0,2067.0,37,R,18854880,18855236,358,938.8,550.6,5178,NA
59,1,continuous,37,27,trial,18855115.0,18857182.0,2067.0,37,R,18855284,18855550,268,569.7,527.4,5083,left
59,1,continuous,37,27,trial,18855115.0,18857182.0,2067.0,37,R,18855576,18855674,100,397.9,516.5,4469,left
59,1,continuous,37,27,trial,18855115.0,18857182.0,2067.0,37,R,18855744,18855870,128,1474.4,577.6,4265,right
59,1,continuous,37,27,trial,18855115.0,18857182.0,2067.0,37,R,18855888,18856266,380,1548.1,564.2,4233,right
59,1,continuous,37,27,trial,18855115.0,18857182.0,2067.0,37,R,18856336,18856674,340,485.1,601.1,4406,left
59,1,continuous,37,27,trial,18855115.0,18857182.0,2067.0,37,R,18856696,18856932,238,587.6,636.6,4437,left
59,1,continuous,37,27,trial,18855115.0,18857182.0,2067.0,37,R,18856966,18857366,402,399.5,470.0,4432,left
59,1,continuous,37,27,postResponse,18855115.0,18857182.0,2067.0,37,R,18857424,18857514,92,793.6,645.4,4493,NA
59,1,continuous,38,26,fixationCross,18858198.0,18859716.0,1518.0,38,R,18857616,18857630,16,796.1,642.4,4565,NA
59,1,continuous,38,26,fixationCross,18858198.0,18859716.0,1518.0,38,R,18857674,18857910,238,1059.1,506.9,4661,NA
59,1,continuous,38,26,fixationCross,18858198.0,18859716.0,1518.0,38,R,18857936,18858098,164,913.5,545.3,4926,NA
59,1,continuous,38,26,trial,18858198.0,18859716.0,1518.0,38,R,18858108,18858328,222,935.2,552.7,5082,NA
59,1,continuous,38,26,trial,18858198.0,18859716.0,1518.0,38,R,18858376,18858696,322,458.5,483.6,4875,left
59,1,continuous,38,26,trial,18858198.0,18859716.0,1518.0,38,R,18858718,18859106,390,406.3,547.1,4213,left
59,1,continuous,38,26,trial,18858198.0,18859716.0,1518.0,38,R,18859172,18859376,206,1341.7,530.3,3999,right
59,1,continuous,38,26,trial,18858198.0,18859716.0,1518.0,38,R,18859386,18859510,126,1358.2,546.4,3988,right
59,1,continuous,38,26,trial,18858198.0,18859716.0,1518.0,38,R,18859572,18859942,372,484.0,543.5,4364,left
59,1,continuous,38,26,postResponse,18858198.0,18859716.0,1518.0,38,R,18860018,18860050,34,753.8,908.4,4606,likertHorizontal
59,1,continuous,39,100,fixationCross,18860598.0,18862132.0,1534.0,39,R,18860126,18860256,132,750.7,906.8,4571,likertHorizontal
59,1,continuous,39,100,trial,18860598.0,18862132.0,1534.0,39,R,18860310,18860672,364,934.7,596.4,4817,NA
59,1,continuous,39,100,trial,18860598.0,18862132.0,1534.0,39,R,18860682,18860844,164,927.0,572.1,5122,NA
59,1,continuous,39,100,trial,18860598.0,18862132.0,1534.0,39,R,18860892,18861038,148,1375.8,532.3,4575,right
59,1,continuous,39,100,trial,18860598.0,18862132.0,1534.0,39,R,18861104,18861494,392,439.6,502.8,4037,left
59,1,continuous,39,100,trial,18860598.0,18862132.0,1534.0,39,R,18861510,18861942,434,503.2,487.5,4038,left
59,1,continuous,39,100,trial,18860598.0,18862132.0,1534.0,39,R,18861978,18862364,388,349.4,547.9,4242,left
59,1,continuous,39,100,postResponse,18860598.0,18862132.0,1534.0,39,R,18862436,18862466,32,1063.4,645.7,4463,NA
59,1,continuous,40,17,fixationCross,18863465.0,18866048.0,2583.0,40,R,18862566,18862770,206,1069.2,644.6,4574,NA
59,1,continuous,40,17,fixationCross,18863465.0,18866048.0,2583.0,40,R,18862822,18863206,386,744.6,559.0,4907,NA
59,1,continuous,40,17,trial,18863465.0,18866048.0,2583.0,40,R,18863240,18863594,356,919.4,554.4,5206,NA
59,1,continuous,40,17,trial,18863465.0,18866048.0,2583.0,40,R,18863640,18863762,124,540.3,569.2,5271,left
59,1,continuous,40,17,trial,18863465.0,18866048.0,2583.0,40,R,18863788,18864026,240,391.2,588.7,4524,left
59,1,continuous,40,17,trial,18863465.0,18866048.0,2583.0,40,R,18864048,18864188,142,509.1,638.4,4074,left
59,1,continuous,40,17,trial,18863465.0,18866048.0,2583.0,40,R,18864212,18864568,358,394.4,561.1,4002,left
59,1,continuous,40,17,trial,18863465.0,18866048.0,2583.0,40,R,18864640,18864896,258,1409.2,566.3,3936,right
59,1,continuous,40,17,trial,18863465.0,18866048.0,2583.0,40,R,18864918,18865158,242,1298.5,535.0,4027,right
59,1,continuous,40,17,trial,18863465.0,18866048.0,2583.0,40,R,18865220,18865446,228,501.9,599.4,4371,left
59,1,continuous,40,17,trial,18863465.0,18866048.0,2583.0,40,R,18865470,18865610,142,377.8,566.9,4227,left
59,1,continuous,40,17,trial,18863465.0,18866048.0,2583.0,40,R,18865618,18865982,366,391.9,555.0,4084,left
59,1,continuous,40,17,postResponse,18863465.0,18866048.0,2583.0,40,R,18866050,18866382,334,1387.0,513.0,4265,right
59,1,continuous,41,75,fixationCross,18867132.0,18876265.0,9133.0,41,R,18866482,18866622,142,1376.2,510.8,4440,right
59,1,continuous,41,75,fixationCross,18867132.0,18876265.0,9133.0,41,R,18866662,18866824,164,1108.0,525.8,4786,NA
59,1,continuous,41,75,trial,18867132.0,18876265.0,9133.0,41,R,18866856,18867268,414,936.2,548.6,5122,NA
59,1,continuous,41,75,trial,18867132.0,18876265.0,9133.0,41,R,18867316,18867438,124,481.6,527.2,5306,left
59,1,continuous,41,75,trial,18867132.0,18876265.0,9133.0,41,R,18867454,18867616,164,471.0,568.1,4816,left
59,1,continuous,41,75,trial,18867132.0,18876265.0,9133.0,41,R,18867628,18867744,118,501.9,566.1,4527,left
59,1,continuous,41,75,trial,18867132.0,18876265.0,9133.0,41,R,18867810,18868034,226,1383.9,567.9,4414,right
59,1,continuous,41,75,trial,18867132.0,18876265.0,9133.0,41,R,18868058,18868374,318,1445.1,674.3,4461,right
59,1,continuous,41,75,trial,18867132.0,18876265.0,9133.0,41,R,18868422,18868646,226,1470.2,439.6,4653,right
59,1,continuous,41,75,trial,18867132.0,18876265.0,9133.0,41,R,18868682,18868882,202,1397.1,638.4,4849,right
59,1,continuous,41,75,trial,18867132.0,18876265.0,9133.0,41,R,18868894,18869144,252,1379.4,659.4,4943,right
59,1,continuous,41,75,trial,18867132.0,18876265.0,9133.0,41,R,18869162,18869560,400,1441.9,667.6,5035,right
59,1,continuous,41,75,trial,18867132.0,18876265.0,9133.0,41,R,18869582,18869782,202,1349.4,657.3,5076,right
59,1,continuous,41,75,trial,18867132.0,18876265.0,9133.0,41,R,18869802,18869978,178,1446.8,664.9,5065,right
59,1,continuous,41,75,trial,18867132.0,18876265.0,9133.0,41,R,18870012,18870274,264,1484.6,452.1,5184,right
59,1,continuous,41,75,trial,18867132.0,18876265.0,9133.0,41,R,18870312,18870468,158,1381.6,612.2,5278,right
59,1,continuous,41,75,trial,18867132.0,18876265.0,9133.0,41,R,18870488,18870942,456,1439.0,673.6,5336,right
59,1,continuous,41,75,trial,18867132.0,18876265.0,9133.0,41,R,18871010,18871174,166,491.5,574.2,5448,left
59,1,continuous,41,75,trial,18867132.0,18876265.0,9133.0,41,R,18871186,18872012,828,502.0,558.3,4954,left
59,1,continuous,41,75,trial,18867132.0,18876265.0,9133.0,41,R,18872184,18872948,766,499.1,568.5,5243,left
59,1,continuous,41,75,trial,18867132.0,18876265.0,9133.0,41,R,18872972,18873162,192,459.0,484.6,4665,left
59,1,continuous,41,75,trial,18867132.0,18876265.0,9133.0,41,R,18873182,18873884,704,488.5,557.4,4869,left
59,1,continuous,41,75,trial,18867132.0,18876265.0,9133.0,41,R,18873940,18874346,408,426.5,1028.0,5025,NA
59,1,continuous,41,75,trial,18867132.0,18876265.0,9133.0,41,R,18874406,18874582,178,475.0,594.7,4699,left
59,1,continuous,41,75,trial,18867132.0,18876265.0,9133.0,41,R,18874596,18874744,150,477.9,563.3,4658,left
59,1,continuous,41,75,trial,18867132.0,18876265.0,9133.0,41,R,18874812,18875094,284,1430.8,572.1,4529,right
59,1,continuous,41,75,trial,18867132.0,18876265.0,9133.0,41,R,18875120,18875482,364,1352.7,683.8,4397,right
59,1,continuous,41,75,trial,18867132.0,18876265.0,9133.0,41,R,18875528,18875708,182,1258.7,1006.6,4751,NA
59,1,continuous,41,75,trial,18867132.0,18876265.0,9133.0,41,R,18875730,18875868,140,1364.8,1020.7,4728,NA
59,1,continuous,41,75,postResponse,18867132.0,18876265.0,9133.0,41,R,18875912,18876600,690,1232.1,732.6,4912,NA
59,1,continuous,42,51,fixationCross,18877315.0,18883182.0,5867.0,42,R,18876700,18877018,320,973.1,657.8,5342,NA
59,1,continuous,42,51,fixationCross,18877315.0,18883182.0,5867.0,42,R,18877042,18877166,126,929.5,546.1,5449,NA
59,1,continuous,42,51,trial,18877315.0,18883182.0,5867.0,42,R,18877176,18877444,270,954.2,549.7,5531,NA
59,1,continuous,42,51,trial,18877315.0,18883182.0,5867.0,42,R,18877492,18877608,118,565.8,514.5,5596,left
59,1,continuous,42,51,trial,18877315.0,18883182.0,5867.0,42,R,18877636,18877870,236,474.0,666.5,4806,left
59,1,continuous,42,51,trial,18877315.0,18883182.0,5867.0,42,R,18877904,18878318,416,469.9,473.9,4263,left
59,1,continuous,42,51,trial,18877315.0,18883182.0,5867.0,42,R,18878348,18878774,428,317.8,628.8,4527,left
59,1,continuous,42,51,trial,18877315.0,18883182.0,5867.0,42,R,18878798,18878948,152,444.5,654.7,4610,left
59,1,continuous,42,51,trial,18877315.0,18883182.0,5867.0,42,R,18879014,18879200,188,1409.4,591.8,4555,right
59,1,continuous,42,51,trial,18877315.0,18883182.0,5867.0,42,R,18879216,18879486,272,1457.7,565.8,4481,right
59,1,continuous,42,51,trial,18877315.0,18883182.0,5867.0,42,R,18879556,18879796,242,514.6,597.3,4650,left
59,1,continuous,42,51,trial,18877315.0,18883182.0,5867.0,42,R,18879822,18880156,336,506.0,482.1,4731,left
59,1,continuous,42,51,trial,18877315.0,18883182.0,5867.0,42,R,18880172,18880836,666,495.8,537.0,5107,left
59,1,continuous,42,51,trial,18877315.0,18883182.0,5867.0,42,R,18880862,18881260,400,512.2,667.5,5018,left
59,1,continuous,42,51,trial,18877315.0,18883182.0,5867.0,42,R,18881290,18881550,262,488.2,497.5,4879,left
59,1,continuous,42,51,trial,18877315.0,18883182.0,5867.0,42,R,18881618,18881970,354,1395.7,589.0,4645,right
59,1,continuous,42,51,trial,18877315.0,18883182.0,5867.0,42,R,18881988,18882248,262,1465.0,575.6,4314,right
59,1,continuous,42,51,trial,18877315.0,18883182.0,5867.0,42,R,18882298,18882402,106,1003.7,867.3,4457,likertHorizontal
59,1,continuous,42,51,trial,18877315.0,18883182.0,5867.0,42,R,18882434,18882862,430,890.0,1022.5,4616,likertHorizontal
59,1,continuous,42,51,trial,18877315.0,18883182.0,5867.0,42,R,18882920,18883058,140,469.3,635.0,4813,left
59,1,continuous,42,51,trial,18877315.0,18883182.0,5867.0,42,R,18883114,18883164,52,1225.0,637.1,4658,right
59,1,continuous,42,51,postResponse,18877315.0,18883182.0,5867.0,42,R,18883214,18883516,304,878.7,1058.2,4464,likertHorizontal
59,1,continuous,43,1,fixationCross,18884232.0,18886232.0,2000.0,43,R,18883616,18883714,100,879.1,1049.6,4694,likertHorizontal
59,1,continuous,43,1,fixationCross,18884232.0,18886232.0,2000.0,43,R,18883766,18883924,160,895.2,725.9,4988,NA
59,1,continuous,43,1,fixationCross,18884232.0,18886232.0,2000.0,43,R,18883964,18884064,102,930.9,520.6,5161,NA
59,1,continuous,43,1,trial,18884232.0,18886232.0,2000.0,43,R,18884076,18884502,428,946.3,560.0,5365,NA
59,1,continuous,43,1,trial,18884232.0,18886232.0,2000.0,43,R,18884552,18884756,206,494.7,562.3,4882,left
59,1,continuous,43,1,trial,18884232.0,18886232.0,2000.0,43,R,18884786,18884974,190,316.6,488.3,4460,left
59,1,continuous,43,1,trial,18884232.0,18886232.0,2000.0,43,R,18884996,18885386,392,253.4,411.2,4083,left
59,1,continuous,43,1,trial,18884232.0,18886232.0,2000.0,43,R,18885426,18885594,170,498.0,627.6,4067,left
59,1,continuous,43,1,trial,18884232.0,18886232.0,2000.0,43,R,18885604,18885712,110,492.9,648.8,4161,left
59,1,continuous,43,1,trial,18884232.0,18886232.0,2000.0,43,R,18885778,18886124,348,1455.4,541.6,4253,right
59,1,continuous,43,1,postResponse,18884232.0,18886232.0,2000.0,43,R,18886192,18886568,378,516.1,693.4,4370,left
59,1,continuous,44,29,fixationCross,18887115.0,18889031.0,1916.0,44,R,18886650,18886822,174,751.6,616.5,4328,NA
59,1,continuous,44,29,fixationCross,18887115.0,18889031.0,1916.0,44,R,18886874,18887018,146,1017.9,547.7,4625,NA
59,1,continuous,44,29,trial,18887115.0,18889031.0,1916.0,44,R,18887040,18887330,292,933.7,564.4,4915,NA
59,1,continuous,44,29,trial,18887115.0,18889031.0,1916.0,44,R,18887374,18887520,148,1338.9,598.3,4730,right
59,1,continuous,44,29,trial,18887115.0,18889031.0,1916.0,44,R,18887542,18887708,168,1234.2,656.1,4260,right
59,1,continuous,44,29,trial,18887115.0,18889031.0,1916.0,44,R,18887768,18888626,860,447.2,655.5,4243,left
59,1,continuous,44,29,trial,18887115.0,18889031.0,1916.0,44,R,18888690,18888888,200,1282.7,636.6,4345,right
59,1,continuous,44,29,trial,18887115.0,18889031.0,1916.0,44,R,18888906,18889348,444,1219.6,668.7,4281,right
59,1,continuous,45,81,fixationCross,18890598.0,18893165.0,2567.0,45,R,18889440,18889722,284,973.8,603.8,4704,NA
59,1,continuous,45,81,fixationCross,18890598.0,18893165.0,2567.0,45,R,18889758,18890380,624,797.7,600.6,5051,NA
59,1,continuous,45,81,trial,18890598.0,18893165.0,2567.0,45,R,18890404,18890732,330,926.9,579.2,5195,NA
59,1,continuous,45,81,trial,18890598.0,18893165.0,2567.0,45,R,18890778,18890910,134,537.6,530.0,5225,left
59,1,continuous,45,81,trial,18890598.0,18893165.0,2567.0,45,R,18890944,18891080,138,372.7,606.5,4653,left
59,1,continuous,45,81,trial,18890598.0,18893165.0,2567.0,45,R,18891116,18891170,56,511.6,529.9,4331,left
59,1,continuous,45,81,trial,18890598.0,18893165.0,2567.0,45,R,18891236,18891474,240,1436.3,516.9,4050,right
59,1,continuous,45,81,trial,18890598.0,18893165.0,2567.0,45,R,18891500,18891756,258,1587.5,540.7,4158,right
59,1,continuous,45,81,trial,18890598.0,18893165.0,2567.0,45,R,18891784,18892138,356,1479.5,415.7,4444,right
59,1,continuous,45,81,trial,18890598.0,18893165.0,2567.0,45,R,18892164,18892398,236,1587.7,553.6,4549,right
59,1,continuous,45,81,trial,18890598.0,18893165.0,2567.0,45,R,18892434,18892822,390,1322.1,533.2,4681,right
59,1,continuous,45,81,trial,18890598.0,18893165.0,2567.0,45,R,18892888,18893248,362,497.7,541.0,4744,left
59,1,continuous,45,81,postResponse,18890598.0,18893165.0,2567.0,45,R,18893304,18893500,198,1117.7,851.2,4486,likertHorizontal
59,1,continuous,46,50,fixationCross,18894099.0,18896598.0,2499.0,46,R,18893574,18893728,156,1062.8,695.5,4513,NA
59,1,continuous,46,50,fixationCross,18894099.0,18896598.0,2499.0,46,R,18893756,18893954,200,899.4,619.1,4838,NA
59,1,continuous,46,50,trial,18894099.0,18896598.0,2499.0,46,R,18893974,18894220,248,937.6,579.4,5072,NA
59,1,continuous,46,50,trial,18894099.0,18896598.0,2499.0,46,R,18894268,18894448,182,524.3,533.8,5034,left
59,1,continuous,46,50,trial,18894099.0,18896598.0,2499.0,46,R,18894470,18894730,262,410.0,568.4,4376,left
59,1,continuous,46,50,trial,18894099.0,18896598.0,2499.0,46,R,18894800,18895012,214,1476.8,520.6,4111,right
59,1,continuous,46,50,trial,18894099.0,18896598.0,2499.0,46,R,18895022,18895222,202,1496.6,504.6,4106,right
59,1,continuous,46,50,trial,18894099.0,18896598.0,2499.0,46,R,18895238,18895618,382,1415.4,505.1,4339,right
59,1,continuous,46,50,trial,18894099.0,18896598.0,2499.0,46,R,18895636,18896042,408,1486.0,501.0,4558,right
59,1,continuous,46,50,trial,18894099.0,18896598.0,2499.0,46,R,18896116,18896418,304,464.1,522.6,4705,left
59,1,continuous,46,50,trial,18894099.0,18896598.0,2499.0,46,R,18896434,18896566,134,421.8,536.9,4580,left
59,1,continuous,46,50,postResponse,18894099.0,18896598.0,2499.0,46,R,18896624,18896918,296,934.8,992.8,4576,likertHorizontal
59,1,continuous,47,100,fixationCross,18897666.0,18899316.0,1650.0,47,R,18897032,18897362,332,715.1,528.5,4734,left
59,1,continuous,47,100,trial,18897666.0,18899316.0,1650.0,47,R,18897394,18897796,404,934.5,556.1,5145,NA
59,1,continuous,47,100,trial,18897666.0,18899316.0,1650.0,47,R,18897842,18897976,136,526.2,541.9,5234,left
59,1,continuous,47,100,trial,18897666.0,18899316.0,1650.0,47,R,18898010,18898158,150,341.7,580.8,4582,left
59,1,continuous,47,100,trial,18897666.0,18899316.0,1650.0,47,R,18898174,18898350,178,284.7,569.4,4165,left
59,1,continuous,47,100,trial,18897666.0,18899316.0,1650.0,47,R,18898424,18898674,252,1399.9,617.6,3902,right
59,1,continuous,47,100,trial,18897666.0,18899316.0,1650.0,47,R,18898696,18898912,218,1294.0,615.0,4011,right
59,1,continuous,47,100,trial,18897666.0,18899316.0,1650.0,47,R,18898942,18899402,462,1340.1,497.9,4129,right
59,1,continuous,47,100,postResponse,18897666.0,18899316.0,1650.0,47,R,18899420,18899648,230,1344.8,543.6,4342,right
59,1,continuous,48,100,fixationCross,18900532.0,18903616.0,3084.0,48,R,18899748,18899892,146,1335.7,545.5,4669,right
59,1,continuous,48,100,fixationCross,18900532.0,18903616.0,3084.0,48,R,18899962,18900210,250,645.7,547.9,5006,left
59,1,continuous,48,100,trial,18900532.0,18903616.0,3084.0,48,R,18900248,18900678,432,909.6,547.1,5083,NA
59,1,continuous,48,100,trial,18900532.0,18903616.0,3084.0,48,R,18900724,18900906,184,519.7,499.7,5033,left
59,1,continuous,48,100,trial,18900532.0,18903616.0,3084.0,48,R,18900918,18901176,260,530.1,495.8,4342,left
59,1,continuous,48,100,trial,18900532.0,18903616.0,3084.0,48,R,18901190,18901294,106,521.3,537.4,4147,left
59,1,continuous,48,100,trial,18900532.0,18903616.0,3084.0,48,R,18901364,18901512,150,1487.6,557.9,4139,right
59,1,continuous,48,100,trial,18900532.0,18903616.0,3084.0,48,R,18901528,18901700,174,1464.5,513.7,4193,right
59,1,continuous,48,100,trial,18900532.0,18903616.0,3084.0,48,R,18901710,18902132,424,1490.1,537.3,4207,right
59,1,continuous,48,100,trial,18900532.0,18903616.0,3084.0,48,R,18902158,18902242,86,1358.2,461.7,4390,right
59,1,continuous,48,100,trial,18900532.0,18903616.0,3084.0,48,R,18902408,18902894,488,1447.2,517.1,4535,right
59,1,continuous,48,100,trial,18900532.0,18903616.0,3084.0,48,R,18902956,18903090,136,576.7,521.8,4498,left
59,1,continuous,48,100,trial,18900532.0,18903616.0,3084.0,48,R,18903106,18903264,160,519.0,497.8,4330,left
59,1,continuous,48,100,postResponse,18900532.0,18903616.0,3084.0,48,R,18903330,18903948,620,1471.2,547.9,4297,right
59,1,continuous,49,50,fixationCross,18904732.0,18907249.0,2517.0,49,R,18904036,18904422,388,837.0,533.8,4802,NA
59,1,continuous,49,50,trial,18904732.0,18907249.0,2517.0,49,R,18904444,18904872,430,925.8,572.6,5155,NA
59,1,continuous,49,50,trial,18904732.0,18907249.0,2517.0,49,R,18904922,18905086,166,502.5,509.6,5171,left
59,1,continuous,49,50,trial,18904732.0,18907249.0,2517.0,49,R,18905122,18905346,226,486.4,428.3,4464,left
59,1,continuous,49,50,trial,18904732.0,18907249.0,2517.0,49,R,18905362,18905756,396,455.1,459.6,4457,left
59,1,continuous,49,50,trial,18904732.0,18907249.0,2517.0,49,R,18905828,18906034,208,1404.3,596.3,4632,right
59,1,continuous,49,50,trial,18904732.0,18907249.0,2517.0,49,R,18906058,18906330,274,1531.9,565.4,4415,right
59,1,continuous,49,50,trial,18904732.0,18907249.0,2517.0,49,R,18906396,18906432,38,869.4,572.2,4421,NA
59,1,continuous,49,50,trial,18904732.0,18907249.0,2517.0,49,R,18906472,18906714,244,487.5,535.1,4400,left
59,1,continuous,49,50,trial,18904732.0,18907249.0,2517.0,49,R,18906768,18906938,172,930.9,1014.2,4469,likertHorizontal
59,1,continuous,49,50,trial,18904732.0,18907249.0,2517.0,49,R,18906994,18907146,154,1413.5,608.3,4494,right
59,1,continuous,49,50,postResponse,18904732.0,18907249.0,2517.0,49,R,18907200,18907582,384,890.9,1021.7,4595,likertHorizontal
59,1,continuous,50,79,fixationCross,18908366.0,18914465.0,6099.0,50,R,18907682,18907852,172,959.6,693.9,4841,NA
59,1,continuous,50,79,fixationCross,18908366.0,18914465.0,6099.0,50,R,18907878,18908054,178,857.1,618.5,4990,NA
59,1,continuous,50,79,trial,18908366.0,18914465.0,6099.0,50,R,18908076,18908580,506,945.5,575.9,5124,NA
59,1,continuous,50,79,trial,18908366.0,18914465.0,6099.0,50,R,18908632,18908826,196,379.0,498.4,4739,left
59,1,continuous,50,79,trial,18908366.0,18914465.0,6099.0,50,R,18908848,18908980,134,295.1,466.3,4200,left
59,1,continuous,50,79,trial,18908366.0,18914465.0,6099.0,50,R,18909050,18909264,216,1320.2,531.0,3926,right
59,1,continuous,50,79,trial,18908366.0,18914465.0,6099.0,50,R,18909288,18909562,276,1434.7,602.0,4091,right
59,1,continuous,50,79,trial,18908366.0,18914465.0,6099.0,50,R,18909582,18910552,972,1378.3,534.3,4702,right
59,1,continuous,50,79,trial,18908366.0,18914465.0,6099.0,50,R,18910572,18910748,178,1430.5,584.5,4921,right
59,1,continuous,50,79,trial,18908366.0,18914465.0,6099.0,50,R,18910770,18911044,276,1383.6,523.0,4963,right
59,1,continuous,50,79,trial,18908366.0,18914465.0,6099.0,50,R,18911114,18911404,292,399.2,467.8,4988,left
59,1,continuous,50,79,trial,18908366.0,18914465.0,6099.0,50,R,18911420,18911588,170,323.4,466.1,4653,left
59,1,continuous,50,79,trial,18908366.0,18914465.0,6099.0,50,R,18911658,18911898,242,1348.5,565.6,4512,right
59,1,continuous,50,79,trial,18908366.0,18914465.0,6099.0,50,R,18911910,18912602,694,1380.6,550.0,4843,right
59,1,continuous,50,79,trial,18908366.0,18914465.0,6099.0,50,R,18912616,18912840,226,1369.0,577.6,5196,right
59,1,continuous,50,79,trial,18908366.0,18914465.0,6099.0,50,R,18912856,18913134,280,1389.9,530.6,5214,right
59,1,continuous,50,79,trial,18908366.0,18914465.0,6099.0,50,R,18913146,18913374,230,1368.9,557.5,5357,right
59,1,continuous,50,79,trial,18908366.0,18914465.0,6099.0,50,R,18913448,18913626,180,337.6,455.7,5468,left
59,1,continuous,50,79,trial,18908366.0,18914465.0,6099.0,50,R,18913650,18913870,222,408.8,468.3,4824,left
59,1,continuous,50,79,trial,18908366.0,18914465.0,6099.0,50,R,18913888,18914034,148,486.1,473.2,4391,left
59,1,continuous,50,79,trial,18908366.0,18914465.0,6099.0,50,R,18914098,18914724,628,1362.2,569.3,4401,right
59,1,continuous,50,79,postResponse,18908366.0,18914465.0,6099.0,50,R,18914764,18914798,36,990.3,628.3,4884,NA
59,2,binary,1,2,fixationCross,18977717.0,18981533.0,3816.0,51,R,18977243,18977621,380,1026.2,539.8,5728,NA
59,2,binary,1,2,trial,18977717.0,18981533.0,3816.0,51,R,18977637,18977879,244,970.2,533.5,5771,NA
59,2,binary,1,2,trial,18977717.0,18981533.0,3816.0,51,R,18977921,18978279,360,628.7,537.3,5445,left
59,2,binary,1,2,trial,18977717.0,18981533.0,3816.0,51,R,18978333,18978467,136,902.6,959.9,4846,likertHorizontal
59,2,binary,1,2,trial,18977717.0,18981533.0,3816.0,51,R,18978513,18978859,348,453.0,1009.7,4839,NA
59,2,binary,1,2,trial,18977717.0,18981533.0,3816.0,51,R,18978905,18979247,344,935.9,982.0,4948,likertHorizontal
59,2,binary,1,2,trial,18977717.0,18981533.0,3816.0,51,R,18979295,18979741,448,464.0,967.6,5196,NA
59,2,binary,1,2,trial,18977717.0,18981533.0,3816.0,51,R,18979805,18979999,196,1342.9,996.9,5161,NA
59,2,binary,1,2,trial,18977717.0,18981533.0,3816.0,51,R,18980021,18980371,352,1405.8,1025.2,5254,NA
59,2,binary,1,2,trial,18977717.0,18981533.0,3816.0,51,R,18980429,18980615,188,1430.2,421.8,5446,right
59,2,binary,1,2,trial,18977717.0,18981533.0,3816.0,51,R,18980629,18980801,174,1430.1,391.7,5259,right
59,2,binary,1,2,trial,18977717.0,18981533.0,3816.0,51,R,18980867,18981163,298,535.2,482.6,4900,left
59,2,binary,1,2,trial,18977717.0,18981533.0,3816.0,51,R,18981229,18981487,260,1476.3,456.6,4278,right
59,2,binary,1,2,postResponse,18977717.0,18981533.0,3816.0,51,R,18981547,18981869,324,1440.2,1026.6,4416,NA
59,2,binary,2,2,fixationCross,18982433.0,18984900.0,2467.0,52,R,18981943,18982275,334,970.7,595.6,4942,NA
59,2,binary,2,2,trial,18982433.0,18984900.0,2467.0,52,R,18982293,18982653,362,948.6,525.9,5268,NA
59,2,binary,2,2,trial,18982433.0,18984900.0,2467.0,52,R,18982697,18982817,122,887.8,903.7,5139,likertHorizontal
59,2,binary,2,2,trial,18982433.0,18984900.0,2467.0,52,R,18982873,18983181,310,458.2,458.6,4561,left
59,2,binary,2,2,trial,18982433.0,18984900.0,2467.0,52,R,18983205,18983427,224,454.5,567.1,4318,left
59,2,binary,2,2,trial,18982433.0,18984900.0,2467.0,52,R,18983455,18983587,134,268.5,597.2,4167,left
59,2,binary,2,2,trial,18982433.0,18984900.0,2467.0,52,R,18983665,18983801,138,1512.1,489.2,3981,right
59,2,binary,2,2,trial,18982433.0,18984900.0,2467.0,52,R,18983827,18984499,674,1485.5,376.7,3993,right
59,2,binary,2,2,trial,18982433.0,18984900.0,2467.0,52,R,18984563,18984905,344,1359.7,1021.2,4428,NA
59,2,binary,2,2,trial,18982433.0,18984900.0,2467.0,52,R,18984975,18985139,166,475.8,467.2,4757,left
59,2,binary,2,2,postResponse,18982433.0,18984900.0,2467.0,52,R,18985167,18985233,68,649.8,504.8,4868,left
59,2,binary,3,1,fixationCross,18985950.0,18988416.0,2466.0,53,R,18985307,18985349,44,644.4,511.8,4826,left
59,2,binary,3,1,fixationCross,18985950.0,18988416.0,2466.0,53,R,18985375,18985625,252,800.7,512.8,4914,NA
59,2,binary,3,1,trial,18985950.0,18988416.0,2466.0,53,R,18985649,18986091,444,930.6,524.4,5306,NA
59,2,binary,3,1,trial,18985950.0,18988416.0,2466.0,53,R,18986137,18986401,266,564.0,530.4,5255,left
59,2,binary,3,1,trial,18985950.0,18988416.0,2466.0,53,R,18986449,18986559,112,516.2,906.3,4587,NA
59,2,binary,3,1,trial,18985950.0,18988416.0,2466.0,53,R,18986615,18986845,232,387.1,488.9,4473,left
59,2,binary,3,1,trial,18985950.0,18988416.0,2466.0,53,R,18986877,18987021,146,630.5,514.3,4588,left
59,2,binary,3,1,trial,18985950.0,18988416.0,2466.0,53,R,18987081,18987785,706,1414.1,489.9,4369,right
59,2,binary,3,1,trial,18985950.0,18988416.0,2466.0,53,R,18987855,18988083,230,480.5,512.4,4534,left
59,2,binary,3,1,trial,18985950.0,18988416.0,2466.0,53,R,18988117,18988319,204,297.9,537.8,4591,left
59,2,binary,3,1,postResponse,18985950.0,18988416.0,2466.0,53,R,18988395,18988763,370,1435.7,490.2,4428,right
59,2,binary,4,1,fixationCross,18989416.0,18996283.0,6867.0,54,R,18988863,18989105,244,1216.1,537.0,4662,right
59,2,binary,4,1,fixationCross,18989416.0,18996283.0,6867.0,54,R,18989141,18989271,132,1051.6,572.1,5014,NA
59,2,binary,4,1,trial,18989416.0,18996283.0,6867.0,54,R,18989293,18989643,352,939.6,554.6,5207,NA
59,2,binary,4,1,trial,18989416.0,18996283.0,6867.0,54,R,18989695,18990059,366,437.8,507.1,4695,left
59,2,binary,4,1,trial,18989416.0,18996283.0,6867.0,54,R,18990077,18990167,92,400.0,556.9,4524,left
59,2,binary,4,1,trial,18989416.0,18996283.0,6867.0,54,R,18990235,18990405,172,1415.2,449.9,4586,right
59,2,binary,4,1,trial,18989416.0,18996283.0,6867.0,54,R,18990419,18990869,452,1399.3,409.2,4465,right
59,2,binary,4,1,trial,18989416.0,18996283.0,6867.0,54,R,18990885,18991123,240,1452.1,420.6,4698,right
59,2,binary,4,1,trial,18989416.0,18996283.0,6867.0,54,R,18991303,18992059,758,458.0,507.2,5333,left
59,2,binary,4,1,trial,18989416.0,18996283.0,6867.0,54,R,18992075,18992693,620,437.8,542.2,5455,left
59,2,binary,4,1,trial,18989416.0,18996283.0,6867.0,54,R,18992709,18993069,362,415.9,509.8,5594,left
59,2,binary,4,1,trial,18989416.0,18996283.0,6867.0,54,R,18993081,18994057,978,390.3,518.9,5603,left
59,2,binary,4,1,trial,18989416.0,18996283.0,6867.0,54,R,18994075,18994273,200,358.5,504.3,5729,left
59,2,binary,4,1,trial,18989416.0,18996283.0,6867.0,54,R,18994287,18995543,1258,404.3,520.5,5685,left
59,2,binary,4,1,trial,18989416.0,18996283.0,6867.0,54,R,18995615,18995785,172,1406.8,450.9,5459,right
59,2,binary,4,1,trial,18989416.0,18996283.0,6867.0,54,R,18995803,18996089,288,1400.0,407.0,4919,right
59,2,binary,4,1,trial,18989416.0,18996283.0,6867.0,54,R,18996103,18996587,486,1429.1,415.7,4437,right
59,2,binary,5,2,fixationCross,18997283.0,19000034.0,2751.0,55,R,18996691,18996955,266,1390.9,456.6,4802,right
59,2,binary,5,2,trial,18997283.0,19000034.0,2751.0,55,R,18997011,18997415,406,949.9,520.5,5302,NA
59,2,binary,5,2,trial,18997283.0,19000034.0,2751.0,55,R,18997463,18997677,216,533.4,526.8,5260,left
59,2,binary,5,2,trial,18997283.0,19000034.0,2751.0,55,R,18997701,18997857,158,407.1,622.7,4485,left
59,2,binary,5,2,trial,18997283.0,19000034.0,2751.0,55,R,18997921,18998225,306,1355.8,522.6,3977,right
59,2,binary,5,2,trial,18997283.0,19000034.0,2751.0,55,R,18998251,18998463,214,1494.3,600.7,4058,right
59,2,binary,5,2,trial,18997283.0,19000034.0,2751.0,55,R,18998483,18998911,430,1458.8,544.1,4285,right
59,2,binary,5,2,trial,18997283.0,19000034.0,2751.0,55,R,18998927,18999187,262,1395.1,518.5,4550,right
59,2,binary,5,2,trial,18997283.0,19000034.0,2751.0,55,R,18999255,18999513,260,477.1,541.2,4594,left
59,2,binary,5,2,trial,18997283.0,19000034.0,2751.0,55,R,18999537,18999703,168,380.9,621.2,4262,left
59,2,binary,5,2,trial,18997283.0,19000034.0,2751.0,55,R,18999731,18999877,148,543.1,504.1,4111,left
59,2,binary,5,2,postResponse,18997283.0,19000034.0,2751.0,55,R,18999935,19000367,434,1318.7,527.2,4174,right
59,2,binary,6,1,fixationCross,19001117.0,19002366.0,1249.0,56,R,19000467,19000565,100,1317.8,531.1,4639,right
59,2,binary,6,1,fixationCross,19001117.0,19002366.0,1249.0,56,R,19000599,19000805,208,1141.7,505.3,4902,NA
59,2,binary,6,1,fixationCross,19001117.0,19002366.0,1249.0,56,R,19000833,19000933,102,966.8,517.9,5067,NA
59,2,binary,6,1,trial,19001117.0,19002366.0,1249.0,56,R,19000949,19001263,316,906.4,528.3,5241,NA
59,2,binary,6,1,trial,19001117.0,19002366.0,1249.0,56,R,19001311,19001443,134,474.7,522.4,5291,left
59,2,binary,6,1,trial,19001117.0,19002366.0,1249.0,56,R,19001459,19001671,214,413.3,560.4,4573,left
59,2,binary,6,1,trial,19001117.0,19002366.0,1249.0,56,R,19001693,19001795,104,524.4,525.7,4184,left
59,2,binary,6,1,trial,19001117.0,19002366.0,1249.0,56,R,19001861,19002357,498,1445.1,473.2,4041,right
59,2,binary,6,1,trial,19001117.0,19002366.0,1249.0,56,R,19002373,19002649,278,1487.5,463.5,4456,right
59,2,binary,6,1,postResponse,19001117.0,19002366.0,1249.0,56,R,19002671,19002701,32,1363.8,483.0,4409,right
59,2,binary,7,2,fixationCross,19003484.0,19005567.0,2083.0,57,R,19002775,19003045,272,1298.5,491.6,4551,right
59,2,binary,7,2,fixationCross,19003484.0,19005567.0,2083.0,57,R,19003101,19003233,134,836.6,544.5,5014,NA
59,2,binary,7,2,trial,19003484.0,19005567.0,2083.0,57,R,19003253,19003609,358,931.8,532.2,5184,NA
59,2,binary,7,2,trial,19003484.0,19005567.0,2083.0,57,R,19003657,19003791,136,513.3,486.9,5192,left
59,2,binary,7,2,trial,19003484.0,19005567.0,2083.0,57,R,19003807,19003963,158,447.3,470.7,4625,left
59,2,binary,7,2,trial,19003484.0,19005567.0,2083.0,57,R,19004029,19004341,314,1383.4,476.0,4015,right
59,2,binary,7,2,trial,19003484.0,19005567.0,2083.0,57,R,19004355,19004607,254,1407.6,511.4,4197,right
59,2,binary,7,2,trial,19003484.0,19005567.0,2083.0,57,R,19004621,19005001,382,1372.0,558.1,4634,right
59,2,binary,7,2,trial,19003484.0,19005567.0,2083.0,57,R,19005067,19005407,342,457.7,451.2,4803,left
59,2,binary,7,2,trial,19003484.0,19005567.0,2083.0,57,R,19005435,19005815,382,296.7,576.4,4356,left
59,2,binary,7,2,postResponse,19003484.0,19005567.0,2083.0,57,R,19005867,19005901,36,695.8,606.0,4409,left
59,2,binary,8,1,fixationCross,19006583.0,19008733.0,2150.0,58,R,19005977,19006087,112,703.4,611.6,4527,left
59,2,binary,8,1,fixationCross,19006583.0,19008733.0,2150.0,58,R,19006117,19006371,256,858.4,539.2,4826,NA
59,2,binary,8,1,trial,19006583.0,19008733.0,2150.0,58,R,19006391,19006719,330,937.2,534.6,5196,NA
59,2,binary,8,1,trial,19006583.0,19008733.0,2150.0,58,R,19006769,19007243,476,467.7,526.5,4891,left
59,2,binary,8,1,trial,19006583.0,19008733.0,2150.0,58,R,19007311,19007485,176,1424.9,544.0,4316,right
59,2,binary,8,1,trial,19006583.0,19008733.0,2150.0,58,R,19007507,19007691,186,1305.0,576.4,4274,right
59,2,binary,8,1,trial,19006583.0,19008733.0,2150.0,58,R,19007753,19007985,234,443.6,560.3,4400,left
59,2,binary,8,1,trial,19006583.0,19008733.0,2150.0,58,R,19007999,19008637,640,472.2,522.8,4562,left
59,2,binary,8,1,postResponse,19006583.0,19008733.0,2150.0,58,R,19008703,19009067,366,1395.4,500.4,4554,right
59,2,binary,9,1,fixationCross,19009867.0,19011217.0,1350.0,59,R,19009141,19009171,32,1392.3,503.6,4485,right
59,2,binary,9,1,fixationCross,19009867.0,19011217.0,1350.0,59,R,19009211,19009395,186,1134.1,502.5,4729,NA
59,2,binary,9,1,fixationCross,19009867.0,19011217.0,1350.0,59,R,19009461,19009615,156,840.0,548.7,5040,NA
59,2,binary,9,1,trial,19009867.0,19011217.0,1350.0,59,R,19009635,19010001,368,923.4,537.4,5192,NA
59,2,binary,9,1,trial,19009867.0,19011217.0,1350.0,59,R,19010051,19010217,168,506.8,487.6,5165,left
59,2,binary,9,1,trial,19009867.0,19011217.0,1350.0,59,R,19010229,19010351,124,479.5,517.0,4580,left
59,2,binary,9,1,trial,19009867.0,19011217.0,1350.0,59,R,19010373,19010593,222,392.3,576.1,4194,left
59,2,binary,9,1,trial,19009867.0,19011217.0,1350.0,59,R,19010667,19010953,288,1484.9,495.3,3999,right
59,2,binary,9,1,trial,19009867.0,19011217.0,1350.0,59,R,19011023,19011179,158,478.4,962.0,4247,NA
59,2,binary,9,1,trial,19009867.0,19011217.0,1350.0,59,R,19011199,19011437,240,418.9,994.2,4491,NA
59,2,binary,9,1,postResponse,19009867.0,19011217.0,1350.0,59,R,19011499,19011551,54,1081.1,926.9,4769,likertHorizontal
59,2,binary,10,1,fixationCross,19012200.0,19015617.0,3417.0,60,R,19011669,19011913,246,1096.3,560.2,4908,NA
59,2,binary,10,1,fixationCross,19012200.0,19015617.0,3417.0,60,R,19011947,19012115,170,926.3,589.4,5088,NA
59,2,binary,10,1,trial,19012200.0,19015617.0,3417.0,60,R,19012131,19012363,234,926.5,538.7,5217,NA
59,2,binary,10,1,trial,19012200.0,19015617.0,3417.0,60,R,19012409,19012633,226,515.4,522.1,5007,left
59,2,binary,10,1,trial,19012200.0,19015617.0,3417.0,60,R,19012643,19012791,150,497.4,499.6,4401,left
59,2,binary,10,1,trial,19012200.0,19015617.0,3417.0,60,R,19012817,19012961,146,533.9,398.8,4156,left
59,2,binary,10,1,trial,19012200.0,19015617.0,3417.0,60,R,19013001,19013145,146,269.0,402.1,4104,left
59,2,binary,10,1,trial,19012200.0,19015617.0,3417.0,60,R,19013183,19013345,164,474.4,511.1,4195,left
59,2,binary,10,1,trial,19012200.0,19015617.0,3417.0,60,R,19013411,19014129,720,1440.6,492.2,3985,right
59,2,binary,10,1,trial,19012200.0,19015617.0,3417.0,60,R,19014157,19014335,180,1321.1,401.8,3832,right
59,2,binary,10,1,trial,19012200.0,19015617.0,3417.0,60,R,19014397,19014583,188,540.7,479.8,4062,left
59,2,binary,10,1,trial,19012200.0,19015617.0,3417.0,60,R,19014597,19014887,292,499.7,499.9,4193,left
59,2,binary,10,1,trial,19012200.0,19015617.0,3417.0,60,R,19014907,19015239,334,495.7,557.0,4446,left
59,2,binary,10,1,trial,19012200.0,19015617.0,3417.0,60,R,19015275,19015431,158,283.9,441.3,4467,left
59,2,binary,10,1,trial,19012200.0,19015617.0,3417.0,60,R,19015449,19015563,116,301.9,390.6,4487,left
59,2,binary,10,1,trial,19012200.0,19015617.0,3417.0,60,R,19015595,19015825,232,548.4,403.6,4519,left
59,2,binary,10,1,postResponse,19012200.0,19015617.0,3417.0,60,R,19015887,19015951,66,1011.0,719.4,4658,NA
59,2,binary,11,2,fixationCross,19016500.0,19028167.0,11667.0,61,R,19016025,19016085,62,1016.2,724.1,4756,NA
59,2,binary,11,2,fixationCross,19016500.0,19028167.0,11667.0,61,R,19016115,19016301,188,926.8,615.8,4905,NA
59,2,binary,11,2,fixationCross,19016500.0,19028167.0,11667.0,61,R,19016329,19016445,118,958.8,475.2,5089,NA
59,2,binary,11,2,trial,19016500.0,19028167.0,11667.0,61,R,19016463,19016647,186,939.3,540.3,5289,NA
59,2,binary,11,2,trial,19016500.0,19028167.0,11667.0,61,R,19016699,19017221,524,473.5,498.8,4741,left
59,2,binary,11,2,trial,19016500.0,19028167.0,11667.0,61,R,19017285,19017581,298,1388.0,487.4,4282,right
59,2,binary,11,2,trial,19016500.0,19028167.0,11667.0,61,R,19017595,19018717,1124,1333.1,476.3,4774,right
59,2,binary,11,2,trial,19016500.0,19028167.0,11667.0,61,R,19018951,19020403,1454,1341.4,489.1,5063,right
59,2,binary,11,2,trial,19016500.0,19028167.0,11667.0,61,R,19020413,19021563,1152,1350.0,474.7,5473,right
59,2,binary,11,2,trial,19016500.0,19028167.0,11667.0,61,R,19021629,19021855,228,532.1,470.0,5609,left
59,2,binary,11,2,trial,19016500.0,19028167.0,11667.0,61,R,19021879,19022401,524,409.0,489.7,4589,left
59,2,binary,11,2,trial,19016500.0,19028167.0,11667.0,61,R,19022425,19022687,264,484.7,547.8,4582,left
59,2,binary,11,2,trial,19016500.0,19028167.0,11667.0,61,R,19022709,19023693,986,439.4,481.7,4959,left
59,2,binary,11,2,trial,19016500.0,19028167.0,11667.0,61,R,19023719,19023999,282,530.2,541.2,5052,left
59,2,binary,11,2,trial,19016500.0,19028167.0,11667.0,61,R,19024023,19024045,24,423.5,517.3,4953,left
59,2,binary,11,2,trial,19016500.0,19028167.0,11667.0,61,R,19024237,19024697,462,471.9,497.7,5004,left
59,2,binary,11,2,trial,19016500.0,19028167.0,11667.0,61,R,19024713,19025569,858,425.8,468.5,4827,left
59,2,binary,11,2,trial,19016500.0,19028167.0,11667.0,61,R,19025595,19025929,336,587.6,500.5,5006,left
59,2,binary,11,2,trial,19016500.0,19028167.0,11667.0,61,R,19025953,19026239,288,511.9,594.5,5084,left
59,2,binary,11,2,trial,19016500.0,19028167.0,11667.0,61,R,19026271,19026509,240,396.3,453.7,4954,left
59,2,binary,11,2,trial,19016500.0,19028167.0,11667.0,61,R,19026523,19026683,162,439.1,470.0,4826,left
59,2,binary,11,2,trial,19016500.0,19028167.0,11667.0,61,R,19026749,19026933,186,1385.3,475.5,4638,right
59,2,binary,11,2,trial,19016500.0,19028167.0,11667.0,61,R,19026947,19027443,498,1341.4,467.4,4636,right
59,2,binary,11,2,trial,19016500.0,19028167.0,11667.0,61,R,19027509,19027753,246,463.1,503.7,5081,left
59,2,binary,11,2,trial,19016500.0,19028167.0,11667.0,61,R,19027819,19028041,224,1380.3,480.2,4413,right
59,2,binary,11,2,trial,19016500.0,19028167.0,11667.0,61,R,19028055,19028187,134,1329.9,479.2,4264,right
59,2,binary,11,2,postResponse,19016500.0,19028167.0,11667.0,61,R,19028249,19028501,254,483.0,549.9,4602,left
59,2,binary,12,2,fixationCross,19029200.0,19037601.0,8401.0,62,R,19028613,19028895,284,715.3,520.8,5003,left
59,2,binary,12,2,fixationCross,19029200.0,19037601.0,8401.0,62,R,19028923,19029029,108,894.7,530.0,5132,NA
59,2,binary,12,2,trial,19029200.0,19037601.0,8401.0,62,R,19029043,19029341,300,934.9,550.8,5290,NA
59,2,binary,12,2,trial,19029200.0,19037601.0,8401.0,62,R,19029385,19029581,198,584.5,482.2,5272,left
59,2,binary,12,2,trial,19029200.0,19037601.0,8401.0,62,R,19029607,19030045,440,441.8,477.6,4565,left
59,2,binary,12,2,trial,19029200.0,19037601.0,8401.0,62,R,19030113,19030279,168,1366.7,504.4,4490,right
59,2,binary,12,2,trial,19029200.0,19037601.0,8401.0,62,R,19030297,19030525,230,1422.4,466.9,4402,right
59,2,binary,12,2,trial,19029200.0,19037601.0,8401.0,62,R,19030543,19030743,202,1359.4,475.8,4549,right
59,2,binary,12,2,trial,19029200.0,19037601.0,8401.0,62,R,19030809,19031061,254,517.1,475.0,4993,left
59,2,binary,12,2,trial,19029200.0,19037601.0,8401.0,62,R,19031077,19031755,680,450.5,473.0,4859,left
59,2,binary,12,2,trial,19029200.0,19037601.0,8401.0,62,R,19031825,19032245,422,1407.9,521.9,4659,right
59,2,binary,12,2,trial,19029200.0,19037601.0,8401.0,62,R,19032261,19036409,4150,1330.3,499.9,5678,right
59,2,binary,12,2,trial,19029200.0,19037601.0,8401.0,62,R,19036421,19037119,700,1359.9,492.3,6219,right
