participantNo,block,task,blockTrial,response,trialStage,trialStartTime,trialFinishTime,rt,trial,eye,fixStart,fixEnd,fixLength,fixPosX,fixPosY,dilation,aoi
40,1,binary,1,2,fixationCross,1117822.0,1125756.0,7934.0,1,R,1116932,1117084,154,1231.1,546.4,7316,right
40,1,binary,1,2,fixationCross,1117822.0,1125756.0,7934.0,1,R,1117132,1117184,54,710.9,561.1,7357,left
40,1,binary,1,2,fixationCross,1117822.0,1125756.0,7934.0,1,R,1117334,1117442,110,731.0,552.2,7352,left
40,1,binary,1,2,trial,1117822.0,1125756.0,7934.0,1,R,1117472,1117920,450,935.5,525.7,7498,NA
40,1,binary,1,2,trial,1117822.0,1125756.0,7934.0,1,R,1118088,1118246,160,438.7,524.5,8068,left
40,1,binary,1,2,trial,1117822.0,1125756.0,7934.0,1,R,1118300,1118492,194,489.1,1006.5,8184,NA
40,1,binary,1,2,trial,1117822.0,1125756.0,7934.0,1,R,1118554,1118896,344,1404.0,914.4,7721,NA
40,1,binary,1,2,trial,1117822.0,1125756.0,7934.0,1,R,1118944,1119086,144,1409.1,532.6,7716,right
40,1,binary,1,2,trial,1117822.0,1125756.0,7934.0,1,R,1119150,1119308,160,462.5,487.2,8018,left
40,1,binary,1,2,trial,1117822.0,1125756.0,7934.0,1,R,1119328,1119554,228,408.8,451.7,7708,left
40,1,binary,1,2,trial,1117822.0,1125756.0,7934.0,1,R,1119686,1119818,134,1315.5,604.2,7327,right
40,1,binary,1,2,trial,1117822.0,1125756.0,7934.0,1,R,1120366,1120510,146,982.0,690.9,8024,NA
40,1,binary,1,2,trial,1117822.0,1125756.0,7934.0,1,R,1120554,1120716,164,523.4,585.8,8005,left
40,1,binary,1,2,trial,1117822.0,1125756.0,7934.0,1,R,1120772,1120922,152,1358.3,928.7,8038,NA
40,1,binary,1,2,trial,1117822.0,1125756.0,7934.0,1,R,1120944,1121084,142,1432.7,973.4,7890,NA
40,1,binary,1,2,trial,1117822.0,1125756.0,7934.0,1,R,1121130,1121378,250,1425.2,500.8,7665,right
40,1,binary,1,2,trial,1117822.0,1125756.0,7934.0,1,R,1121446,1121800,356,404.7,558.8,7566,left
40,1,binary,1,2,trial,1117822.0,1125756.0,7934.0,1,R,1121852,1122018,168,765.9,910.0,7657,likertHorizontal
40,1,binary,1,2,trial,1117822.0,1125756.0,7934.0,1,R,1122054,1122200,148,502.5,1009.0,7812,NA
40,1,binary,1,2,trial,1117822.0,1125756.0,7934.0,1,R,1122258,1122450,194,1318.8,934.2,7846,NA
40,1,binary,1,2,trial,1117822.0,1125756.0,7934.0,1,R,1122514,1122756,244,652.1,499.0,8046,left
40,1,binary,1,2,trial,1117822.0,1125756.0,7934.0,1,R,1122814,1123018,206,1448.6,980.4,8154,NA
40,1,binary,1,2,trial,1117822.0,1125756.0,7934.0,1,R,1123030,1123426,398,1416.8,950.0,8213,NA
40,1,binary,1,2,trial,1117822.0,1125756.0,7934.0,1,R,1123488,1123774,288,571.1,967.1,8599,NA
40,1,binary,1,2,trial,1117822.0,1125756.0,7934.0,1,R,1123792,1123910,120,494.0,973.1,8634,NA
40,1,binary,1,2,trial,1117822.0,1125756.0,7934.0,1,R,1124048,1124242,196,415.9,484.0,8068,left
40,1,binary,1,2,trial,1117822.0,1125756.0,7934.0,1,R,1124254,1124662,410,416.9,455.9,7700,left
40,1,binary,1,2,trial,1117822.0,1125756.0,7934.0,1,R,1124726,1124992,268,1384.7,554.3,6880,right
40,1,binary,1,2,trial,1117822.0,1125756.0,7934.0,1,R,1125004,1125380,378,1415.8,559.5,6585,right
40,1,binary,1,2,trial,1117822.0,1125756.0,7934.0,1,R,1125428,1125778,352,1433.7,961.2,6522,NA
40,1,binary,1,2,trial,1117822.0,1125756.0,7934.0,1,R,1125824,1126008,186,1367.5,513.8,6715,right
40,1,binary,2,1,fixationCross,1126905.0,1129105.0,2200.0,2,R,1126194,1126362,170,653.9,488.8,7436,left
40,1,binary,2,1,fixationCross,1126905.0,1129105.0,2200.0,2,R,1126386,1126570,186,802.1,483.5,7631,NA
40,1,binary,2,1,trial,1126905.0,1129105.0,2200.0,2,R,1126594,1127056,464,933.0,530.7,7708,NA
40,1,binary,2,1,trial,1126905.0,1129105.0,2200.0,2,R,1127102,1127238,138,482.8,564.9,7830,left
40,1,binary,2,1,trial,1126905.0,1129105.0,2200.0,2,R,1127262,1127428,168,389.2,491.1,7542,left
40,1,binary,2,1,trial,1126905.0,1129105.0,2200.0,2,R,1127438,1127700,264,389.9,477.6,7093,left
40,1,binary,2,1,trial,1126905.0,1129105.0,2200.0,2,R,1127764,1128240,478,1397.9,593.1,6539,right
40,1,binary,2,1,trial,1126905.0,1129105.0,2200.0,2,R,1128264,1128398,136,1385.2,690.3,6519,right
40,1,binary,2,1,trial,1126905.0,1129105.0,2200.0,2,R,1128470,1128634,166,365.1,513.8,6660,left
40,1,binary,2,1,trial,1126905.0,1129105.0,2200.0,2,R,1128646,1129390,746,358.0,471.7,6726,left
40,1,binary,3,1,fixationCross,1130155.0,1131822.0,1667.0,3,R,1129542,1129806,266,434.7,489.0,7218,left
40,1,binary,3,1,trial,1130155.0,1131822.0,1667.0,3,R,1129862,1130200,340,889.8,513.5,7571,NA
40,1,binary,3,1,trial,1130155.0,1131822.0,1667.0,3,R,1130214,1130374,162,933.4,515.9,7792,NA
40,1,binary,3,1,trial,1130155.0,1131822.0,1667.0,3,R,1130420,1130640,222,1375.2,521.4,7533,right
40,1,binary,3,1,postResponse,1130155.0,1131822.0,1667.0,3,R,1130706,1132162,1458,444.8,545.3,6828,left
40,1,binary,4,2,fixationCross,1133855.0,1136705.0,2850.0,4,R,1132394,1132398,6,413.8,453.7,7060,left
40,1,binary,4,2,fixationCross,1133855.0,1136705.0,2850.0,4,R,1132418,1132772,356,403.6,500.7,7057,left
40,1,binary,4,2,fixationCross,1133855.0,1136705.0,2850.0,4,R,1132786,1132968,184,371.9,501.3,7372,left
40,1,binary,4,2,fixationCross,1133855.0,1136705.0,2850.0,4,R,1132984,1133536,554,445.7,504.2,7424,left
40,1,binary,4,2,trial,1133855.0,1136705.0,2850.0,4,R,1133580,1134102,524,937.3,527.1,7619,NA
40,1,binary,4,2,trial,1133855.0,1136705.0,2850.0,4,R,1134148,1134660,514,484.4,559.2,7327,left
40,1,binary,4,2,postResponse,1133855.0,1136705.0,2850.0,4,R,1134720,1137032,2314,1336.2,476.5,6704,right
40,1,binary,5,2,fixationCross,1137988.0,1140006.0,2018.0,5,R,1137192,1137192,2,896.3,394.3,8087,NA
40,1,binary,5,2,fixationCross,1137988.0,1140006.0,2018.0,5,R,1137212,1137402,192,868.8,479.3,7882,NA
40,1,binary,5,2,fixationCross,1137988.0,1140006.0,2018.0,5,R,1137420,1137682,264,801.3,479.2,7999,NA
40,1,binary,5,2,trial,1137988.0,1140006.0,2018.0,5,R,1137706,1138142,438,939.5,519.1,7632,NA
40,1,binary,5,2,trial,1137988.0,1140006.0,2018.0,5,R,1138190,1138348,160,468.1,533.6,7447,left
40,1,binary,5,2,trial,1137988.0,1140006.0,2018.0,5,R,1138370,1138488,120,453.6,617.5,7340,left
40,1,binary,5,2,postResponse,1137988.0,1140006.0,2018.0,5,R,1138550,1140346,1798,1341.9,431.2,6774,right
40,1,binary,6,2,fixationCross,1141172.0,1143305.0,2133.0,6,R,1140422,1140716,296,1335.4,424.1,7336,right
40,1,binary,6,2,fixationCross,1141172.0,1143305.0,2133.0,6,R,1140750,1140870,122,1101.9,475.9,7397,NA
40,1,binary,6,2,trial,1141172.0,1143305.0,2133.0,6,R,1140896,1141336,442,948.2,534.5,7582,NA
40,1,binary,6,2,trial,1141172.0,1143305.0,2133.0,6,R,1141384,1141444,62,472.8,521.3,7729,left
40,1,binary,6,2,trial,1141172.0,1143305.0,2133.0,6,R,1141538,1141738,202,421.7,474.1,7401,left
40,1,binary,6,2,trial,1141172.0,1143305.0,2133.0,6,R,1141756,1141844,90,464.8,517.8,7048,left
40,1,binary,6,2,trial,1141172.0,1143305.0,2133.0,6,R,1141860,1142022,164,491.8,551.3,6767,left
40,1,binary,6,2,trial,1141172.0,1143305.0,2133.0,6,R,1142088,1142256,170,1447.2,515.8,6189,right
40,1,binary,6,2,postResponse,1141172.0,1143305.0,2133.0,6,R,1142278,1143642,1366,1425.7,602.2,6444,right
40,1,binary,7,2,fixationCross,1144288.0,1146122.0,1834.0,7,R,1143894,1144000,108,1093.3,529.6,7197,NA
40,1,binary,7,2,trial,1144288.0,1146122.0,1834.0,7,R,1144026,1144432,408,912.3,528.4,7449,NA
40,1,binary,7,2,trial,1144288.0,1146122.0,1834.0,7,R,1144478,1144704,228,498.6,484.2,7532,left
40,1,binary,7,2,trial,1144288.0,1146122.0,1834.0,7,R,1144724,1144878,156,504.6,438.8,7177,left
40,1,binary,7,2,trial,1144288.0,1146122.0,1834.0,7,R,1144938,1145218,282,1363.6,465.1,6532,right
40,1,binary,7,2,trial,1144288.0,1146122.0,1834.0,7,R,1145238,1145926,690,1360.6,515.1,6280,right
40,1,binary,7,2,postResponse,1144288.0,1146122.0,1834.0,7,R,1145938,1146458,522,1394.9,507.6,6530,right
40,1,binary,8,2,fixationCross,1147922.0,1149589.0,1667.0,8,R,1146532,1146690,160,1394.1,503.6,6668,right
40,1,binary,8,2,fixationCross,1147922.0,1149589.0,1667.0,8,R,1146758,1147080,324,697.9,500.6,7143,left
40,1,binary,8,2,fixationCross,1147922.0,1149589.0,1667.0,8,R,1147104,1147678,576,842.0,504.3,7407,NA
40,1,binary,8,2,trial,1147922.0,1149589.0,1667.0,8,R,1147698,1147926,230,922.9,504.5,7504,NA
40,1,binary,8,2,trial,1147922.0,1149589.0,1667.0,8,R,1147936,1148102,168,934.4,528.7,7576,NA
40,1,binary,8,2,trial,1147922.0,1149589.0,1667.0,8,R,1148146,1148462,318,535.6,483.2,7431,left
40,1,binary,8,2,trial,1147922.0,1149589.0,1667.0,8,R,1148522,1148804,284,1403.0,559.7,6690,right
40,1,binary,8,2,trial,1147922.0,1149589.0,1667.0,8,R,1148816,1149880,1066,1405.3,603.6,6432,right
40,1,binary,9,1,fixationCross,1150672.0,1152689.0,2017.0,9,R,1150062,1150070,10,1373.5,465.2,6935,right
40,1,binary,9,1,fixationCross,1150672.0,1152689.0,2017.0,9,R,1150090,1150334,246,1360.8,550.3,6639,right
40,1,binary,9,1,fixationCross,1150672.0,1152689.0,2017.0,9,R,1150376,1150530,156,982.3,535.2,6995,NA
40,1,binary,9,1,trial,1150672.0,1152689.0,2017.0,9,R,1150546,1150816,272,928.3,544.2,7144,NA
40,1,binary,9,1,trial,1150672.0,1152689.0,2017.0,9,R,1150862,1150988,128,491.3,543.6,7108,left
40,1,binary,9,1,trial,1150672.0,1152689.0,2017.0,9,R,1151004,1151402,400,581.8,559.7,6745,left
40,1,binary,9,1,trial,1150672.0,1152689.0,2017.0,9,R,1151458,1151662,206,1420.4,594.0,6180,right
40,1,binary,9,1,trial,1150672.0,1152689.0,2017.0,9,R,1151682,1152174,494,1414.1,660.2,6232,right
40,1,binary,9,1,trial,1150672.0,1152689.0,2017.0,9,R,1152236,1152402,168,678.0,943.6,6757,NA
40,1,binary,9,1,trial,1150672.0,1152689.0,2017.0,9,R,1152436,1152618,184,478.1,1009.2,7050,NA
40,1,binary,9,1,trial,1150672.0,1152689.0,2017.0,9,R,1152666,1152894,230,555.7,538.1,7194,left
40,1,binary,10,1,fixationCross,1153955.0,1155539.0,1584.0,10,R,1153094,1153652,560,595.9,489.1,7297,left
40,1,binary,10,1,trial,1153955.0,1155539.0,1584.0,10,R,1153688,1154128,442,937.7,543.4,7415,NA
40,1,binary,10,1,trial,1153955.0,1155539.0,1584.0,10,R,1154176,1154342,168,417.5,507.8,7392,left
40,1,binary,10,1,trial,1153955.0,1155539.0,1584.0,10,R,1154360,1154594,236,359.4,478.1,7099,left
40,1,binary,10,1,trial,1153955.0,1155539.0,1584.0,10,R,1154658,1154934,278,1354.8,517.9,6439,right
40,1,binary,10,1,trial,1153955.0,1155539.0,1584.0,10,R,1154948,1155088,142,1375.0,561.0,6290,right
40,1,binary,10,1,trial,1153955.0,1155539.0,1584.0,10,R,1155156,1155408,254,499.1,971.9,6728,NA
40,1,binary,10,1,postResponse,1153955.0,1155539.0,1584.0,10,R,1155456,1155872,418,354.7,498.0,6980,left
40,1,binary,11,2,fixationCross,1158055.0,1159855.0,1800.0,11,R,1155946,1156102,158,368.6,503.1,6906,left
40,1,binary,11,2,fixationCross,1158055.0,1159855.0,1800.0,11,R,1156114,1156464,352,392.9,460.6,6984,left
40,1,binary,11,2,fixationCross,1158055.0,1159855.0,1800.0,11,R,1156476,1157736,1262,454.5,471.8,7485,left
40,1,binary,11,2,trial,1158055.0,1159855.0,1800.0,11,R,1157780,1158308,530,941.8,526.8,7557,NA
40,1,binary,11,2,trial,1158055.0,1159855.0,1800.0,11,R,1158358,1158612,256,483.2,537.8,7481,left
40,1,binary,11,2,trial,1158055.0,1159855.0,1800.0,11,R,1158624,1158722,100,438.5,557.8,7102,left
40,1,binary,11,2,trial,1158055.0,1159855.0,1800.0,11,R,1158788,1158966,180,1472.3,476.8,6383,right
40,1,binary,11,2,trial,1158055.0,1159855.0,1800.0,11,R,1158982,1159382,402,1494.0,432.3,5924,right
40,1,binary,11,2,trial,1158055.0,1159855.0,1800.0,11,R,1159444,1159626,184,1101.0,929.4,6300,likertHorizontal
40,1,binary,11,2,trial,1158055.0,1159855.0,1800.0,11,R,1159662,1159766,106,1390.8,952.8,6481,NA
40,1,binary,11,2,postResponse,1158055.0,1159855.0,1800.0,11,R,1159816,1160190,376,1490.0,407.2,6643,right
40,1,binary,12,2,fixationCross,1160989.0,1162806.0,1817.0,12,R,1160264,1160542,280,1494.8,416.8,6845,right
40,1,binary,12,2,fixationCross,1160989.0,1162806.0,1817.0,12,R,1160622,1160710,90,971.5,600.5,7280,NA
40,1,binary,12,2,trial,1160989.0,1162806.0,1817.0,12,R,1160914,1161150,238,938.1,519.8,7565,NA
40,1,binary,12,2,trial,1160989.0,1162806.0,1817.0,12,R,1161194,1161376,184,493.0,491.1,7756,left
40,1,binary,12,2,trial,1160989.0,1162806.0,1817.0,12,R,1161396,1161540,146,473.6,462.6,7546,left
40,1,binary,12,2,trial,1160989.0,1162806.0,1817.0,12,R,1161556,1161756,202,531.5,459.7,7127,left
40,1,binary,12,2,trial,1160989.0,1162806.0,1817.0,12,R,1161818,1162408,592,1407.3,500.6,6539,right
40,1,binary,12,2,trial,1160989.0,1162806.0,1817.0,12,R,1162464,1162678,216,1343.3,952.8,6885,NA
40,1,binary,12,2,postResponse,1160989.0,1162806.0,1817.0,12,R,1162724,1163144,422,1409.4,464.9,6957,right
40,1,binary,13,2,fixationCross,1163922.0,1165456.0,1534.0,13,R,1163218,1163490,274,1410.7,465.5,7132,right
40,1,binary,13,2,trial,1163922.0,1165456.0,1534.0,13,R,1163656,1163964,310,881.0,538.8,7498,NA
40,1,binary,13,2,trial,1163922.0,1165456.0,1534.0,13,R,1164004,1164288,286,602.0,515.5,7681,left
40,1,binary,13,2,trial,1163922.0,1165456.0,1534.0,13,R,1164344,1164574,232,1396.4,534.3,7323,right
40,1,binary,13,2,trial,1163922.0,1165456.0,1534.0,13,R,1164590,1165048,460,1359.7,588.4,6836,right
40,1,binary,13,2,trial,1163922.0,1165456.0,1534.0,13,R,1165094,1165308,216,1362.7,939.8,6509,NA
40,1,binary,13,2,trial,1163922.0,1165456.0,1534.0,13,R,1165354,1165662,310,1406.8,471.0,6412,right
40,1,binary,14,2,fixationCross,1166372.0,1168038.0,1666.0,14,R,1165890,1166010,122,606.8,543.8,6913,left
40,1,binary,14,2,trial,1166372.0,1168038.0,1666.0,14,R,1166044,1166524,482,883.7,508.6,7292,NA
40,1,binary,14,2,trial,1166372.0,1168038.0,1666.0,14,R,1166568,1166746,180,491.2,499.4,7728,left
40,1,binary,14,2,trial,1166372.0,1168038.0,1666.0,14,R,1166802,1166968,168,1363.7,496.7,7366,right
40,1,binary,14,2,trial,1166372.0,1168038.0,1666.0,14,R,1166980,1167208,230,1390.2,500.2,6970,right
40,1,binary,14,2,trial,1166372.0,1168038.0,1666.0,14,R,1167234,1167822,590,1532.9,536.6,6627,right
40,1,binary,14,2,trial,1166372.0,1168038.0,1666.0,14,R,1167848,1168278,432,1374.1,495.8,6709,right
40,1,binary,15,2,fixationCross,1169989.0,1171555.0,1566.0,15,R,1168482,1168684,204,1196.5,461.4,6879,right
40,1,binary,15,2,fixationCross,1169989.0,1171555.0,1566.0,15,R,1168736,1168950,216,691.5,474.5,7243,left
40,1,binary,15,2,fixationCross,1169989.0,1171555.0,1566.0,15,R,1168976,1169714,740,555.5,511.0,7408,left
40,1,binary,15,2,trial,1169989.0,1171555.0,1566.0,15,R,1169752,1170198,448,943.0,533.4,7401,NA
40,1,binary,15,2,trial,1169989.0,1171555.0,1566.0,15,R,1170244,1170460,218,496.4,516.6,7452,left
40,1,binary,15,2,trial,1169989.0,1171555.0,1566.0,15,R,1170524,1170704,182,1473.7,518.5,6860,right
40,1,binary,15,2,trial,1169989.0,1171555.0,1566.0,15,R,1170722,1171072,352,1553.0,489.7,6553,right
40,1,binary,15,2,trial,1169989.0,1171555.0,1566.0,15,R,1171092,1171238,148,1462.5,525.2,6409,right
40,1,binary,15,2,postResponse,1169989.0,1171555.0,1566.0,15,R,1171258,1171890,634,1540.2,500.1,6491,right
40,1,binary,16,1,fixationCross,1174522.0,1175922.0,1400.0,16,R,1172112,1172292,182,621.3,482.3,7109,left
40,1,binary,16,1,fixationCross,1174522.0,1175922.0,1400.0,16,R,1172324,1172484,162,849.5,487.8,7332,NA
40,1,binary,16,1,fixationCross,1174522.0,1175922.0,1400.0,16,R,1172506,1174208,1704,776.2,455.5,7699,NA
40,1,binary,16,1,trial,1174522.0,1175922.0,1400.0,16,R,1174240,1174694,456,953.5,539.8,7726,NA
40,1,binary,16,1,trial,1174522.0,1175922.0,1400.0,16,R,1174742,1175048,308,486.8,563.1,7493,left
40,1,binary,16,1,trial,1174522.0,1175922.0,1400.0,16,R,1175106,1175412,308,1325.6,562.3,6406,right
40,1,binary,16,1,trial,1174522.0,1175922.0,1400.0,16,R,1175428,1175580,154,1323.1,513.8,6037,right
40,1,binary,16,1,trial,1174522.0,1175922.0,1400.0,16,R,1175644,1176146,504,458.2,531.8,6082,left
40,1,binary,17,1,fixationCross,1177255.0,1179039.0,1784.0,17,R,1176384,1176660,278,352.1,510.2,5947,left
40,1,binary,17,1,fixationCross,1177255.0,1179039.0,1784.0,17,R,1176698,1176934,238,698.7,523.0,6342,left
40,1,binary,17,1,trial,1177255.0,1179039.0,1784.0,17,R,1176966,1177452,488,917.9,524.5,6630,NA
40,1,binary,17,1,trial,1177255.0,1179039.0,1784.0,17,R,1177496,1177690,196,483.9,590.6,7014,left
40,1,binary,17,1,trial,1177255.0,1179039.0,1784.0,17,R,1177720,1178178,460,311.5,604.0,6605,left
40,1,binary,17,1,trial,1177255.0,1179039.0,1784.0,17,R,1178244,1178560,318,1336.1,553.8,6144,right
40,1,binary,17,1,trial,1177255.0,1179039.0,1784.0,17,R,1178586,1178894,310,1417.4,447.1,6093,right
40,1,binary,17,1,trial,1177255.0,1179039.0,1784.0,17,R,1178910,1179020,112,1396.6,481.7,6023,right
40,1,binary,17,1,postResponse,1177255.0,1179039.0,1784.0,17,R,1179092,1179372,282,356.9,598.5,6243,left
40,1,binary,18,1,fixationCross,1180356.0,1181722.0,1366.0,18,R,1179448,1179658,212,368.6,592.7,6300,left
40,1,binary,18,1,fixationCross,1180356.0,1181722.0,1366.0,18,R,1179830,1180022,194,592.4,527.9,6599,left
40,1,binary,18,1,trial,1180356.0,1181722.0,1366.0,18,R,1180058,1180496,440,896.0,522.3,6882,NA
40,1,binary,18,1,trial,1180356.0,1181722.0,1366.0,18,R,1180540,1180804,266,449.5,514.2,7144,left
40,1,binary,18,1,trial,1180356.0,1181722.0,1366.0,18,R,1180864,1181274,412,1354.9,535.5,6362,right
40,1,binary,18,1,trial,1180356.0,1181722.0,1366.0,18,R,1181344,1181482,140,535.8,967.8,6538,NA
40,1,binary,18,1,trial,1180356.0,1181722.0,1366.0,18,R,1181508,1181646,140,428.5,1025.2,6670,NA
40,1,binary,18,1,trial,1180356.0,1181722.0,1366.0,18,R,1181696,1181938,244,402.9,496.5,6704,left
40,1,binary,19,1,fixationCross,1184088.0,1185705.0,1617.0,19,R,1182134,1182154,22,499.8,411.8,6870,left
40,1,binary,19,1,fixationCross,1184088.0,1185705.0,1617.0,19,R,1182166,1182512,348,491.6,473.0,6677,left
40,1,binary,19,1,fixationCross,1184088.0,1185705.0,1617.0,19,R,1182528,1182870,344,483.2,510.2,7027,left
40,1,binary,19,1,fixationCross,1184088.0,1185705.0,1617.0,19,R,1182880,1183538,660,449.4,516.6,7111,left
40,1,binary,19,1,fixationCross,1184088.0,1185705.0,1617.0,19,R,1183580,1183650,72,845.8,539.9,7054,NA
40,1,binary,19,1,fixationCross,1184088.0,1185705.0,1617.0,19,R,1183820,1183970,152,890.9,531.4,7089,NA
40,1,binary,19,1,trial,1184088.0,1185705.0,1617.0,19,R,1183980,1184232,254,928.6,531.0,7266,NA
40,1,binary,19,1,trial,1184088.0,1185705.0,1617.0,19,R,1184276,1184592,318,486.7,495.7,7403,left
40,1,binary,19,1,trial,1184088.0,1185705.0,1617.0,19,R,1184652,1184938,288,1418.1,556.4,6615,right
40,1,binary,19,1,trial,1184088.0,1185705.0,1617.0,19,R,1185012,1185206,196,482.3,979.9,6640,NA
40,1,binary,19,1,trial,1184088.0,1185705.0,1617.0,19,R,1185258,1185910,654,486.0,506.8,6617,left
40,1,binary,20,1,fixationCross,1186855.0,1188423.0,1568.0,20,R,1186352,1186522,172,704.6,525.4,7225,left
40,1,binary,20,1,trial,1186855.0,1188423.0,1568.0,20,R,1186548,1186922,376,869.3,516.3,7473,NA
40,1,binary,20,1,trial,1186855.0,1188423.0,1568.0,20,R,1186960,1187122,164,589.5,527.1,7456,left
40,1,binary,20,1,trial,1186855.0,1188423.0,1568.0,20,R,1187152,1187274,124,426.6,523.8,7329,left
40,1,binary,20,1,trial,1186855.0,1188423.0,1568.0,20,R,1187338,1187956,620,1427.3,513.5,6416,right
40,1,binary,20,1,trial,1186855.0,1188423.0,1568.0,20,R,1188024,1188654,632,450.9,549.0,6193,left
40,1,binary,21,2,fixationCross,1191555.0,1192723.0,1168.0,21,R,1188866,1189180,316,634.4,547.7,6370,left
40,1,binary,21,2,fixationCross,1191555.0,1192723.0,1168.0,21,R,1189204,1189640,438,779.2,522.1,6851,NA
40,1,binary,21,2,fixationCross,1191555.0,1192723.0,1168.0,21,R,1189680,1189936,258,529.4,519.7,7115,left
40,1,binary,21,2,fixationCross,1191555.0,1192723.0,1168.0,21,R,1189950,1190398,450,590.6,529.6,7279,left
40,1,binary,21,2,fixationCross,1191555.0,1192723.0,1168.0,21,R,1190418,1190758,342,516.6,534.2,7411,left
40,1,binary,21,2,fixationCross,1191555.0,1192723.0,1168.0,21,R,1190968,1191236,270,487.5,503.7,7570,left
40,1,binary,21,2,trial,1191555.0,1192723.0,1168.0,21,R,1191278,1191694,418,935.8,535.3,7683,NA
40,1,binary,21,2,trial,1191555.0,1192723.0,1168.0,21,R,1191746,1191996,252,501.7,517.2,7688,left
40,1,binary,21,2,trial,1191555.0,1192723.0,1168.0,21,R,1192054,1192558,506,1339.2,518.9,7294,right
40,1,binary,21,2,trial,1191555.0,1192723.0,1168.0,21,R,1192620,1192934,316,512.9,494.5,7300,left
40,1,binary,22,2,fixationCross,1194006.0,1195256.0,1250.0,22,R,1193156,1193592,438,605.3,563.6,7481,left
40,1,binary,22,2,fixationCross,1194006.0,1195256.0,1250.0,22,R,1193628,1193714,88,878.7,510.0,7751,NA
40,1,binary,22,2,trial,1194006.0,1195256.0,1250.0,22,R,1193942,1194096,156,900.6,512.1,7734,NA
40,1,binary,22,2,trial,1194006.0,1195256.0,1250.0,22,R,1194106,1194166,62,925.4,519.9,7791,NA
40,1,binary,22,2,trial,1194006.0,1195256.0,1250.0,22,R,1194212,1194398,188,450.0,514.3,7988,left
40,1,binary,22,2,trial,1194006.0,1195256.0,1250.0,22,R,1194460,1194718,260,1416.2,494.8,7431,right
40,1,binary,22,2,trial,1194006.0,1195256.0,1250.0,22,R,1194744,1195444,702,1584.8,520.1,6676,right
40,1,binary,23,2,fixationCross,1196455.0,1197755.0,1300.0,23,R,1195664,1195884,222,654.0,536.8,7349,left
40,1,binary,23,2,fixationCross,1196455.0,1197755.0,1300.0,23,R,1195900,1196132,234,720.0,545.9,7585,left
40,1,binary,23,2,trial,1196455.0,1197755.0,1300.0,23,R,1196158,1196480,324,904.4,545.5,7563,NA
40,1,binary,23,2,trial,1196455.0,1197755.0,1300.0,23,R,1196524,1196738,216,562.9,553.0,7509,left
40,1,binary,23,2,trial,1196455.0,1197755.0,1300.0,23,R,1196796,1197248,454,1393.4,544.1,6646,right
40,1,binary,23,2,trial,1196455.0,1197755.0,1300.0,23,R,1197300,1197410,112,1109.6,866.2,6520,likertHorizontal
40,1,binary,23,2,trial,1196455.0,1197755.0,1300.0,23,R,1197468,1197988,522,472.5,548.2,6681,left
40,1,binary,24,1,fixationCross,1198639.0,1200339.0,1700.0,24,R,1198204,1198206,4,921.0,464.1,6519,NA
40,1,binary,24,1,trial,1198639.0,1200339.0,1700.0,24,R,1198226,1198776,552,901.5,530.8,6544,NA
40,1,binary,24,1,trial,1198639.0,1200339.0,1700.0,24,R,1198820,1199050,232,490.2,497.8,6984,left
40,1,binary,24,1,trial,1198639.0,1200339.0,1700.0,24,R,1199066,1199288,224,564.9,496.4,6781,left
40,1,binary,24,1,trial,1198639.0,1200339.0,1700.0,24,R,1199346,1199670,326,1382.0,482.1,6365,right
40,1,binary,24,1,trial,1198639.0,1200339.0,1700.0,24,R,1199692,1199820,130,1494.9,546.0,6297,right
40,1,binary,24,1,trial,1198639.0,1200339.0,1700.0,24,R,1199890,1200036,148,462.8,510.8,6668,left
40,1,binary,24,1,trial,1198639.0,1200339.0,1700.0,24,R,1200054,1200442,390,560.1,499.5,6599,left
40,1,binary,24,1,trial,1198639.0,1200339.0,1700.0,24,R,1200472,1200544,74,432.8,572.4,6474,left
40,1,binary,25,2,fixationCross,1202189.0,1203556.0,1367.0,25,R,1200752,1200924,174,467.5,550.1,6496,left
40,1,binary,25,2,fixationCross,1202189.0,1203556.0,1367.0,25,R,1200956,1201204,250,696.5,517.9,6751,left
40,1,binary,25,2,fixationCross,1202189.0,1203556.0,1367.0,25,R,1201228,1201586,360,839.2,513.4,7055,NA
40,1,binary,25,2,fixationCross,1202189.0,1203556.0,1367.0,25,R,1201608,1201878,272,722.3,533.2,7270,left
40,1,binary,25,2,trial,1202189.0,1203556.0,1367.0,25,R,1201910,1202354,446,944.3,533.4,7303,NA
40,1,binary,25,2,trial,1202189.0,1203556.0,1367.0,25,R,1202400,1202544,146,447.8,476.8,7285,left
40,1,binary,25,2,trial,1202189.0,1203556.0,1367.0,25,R,1202558,1202834,278,455.1,438.1,6975,left
40,1,binary,25,2,trial,1202189.0,1203556.0,1367.0,25,R,1202894,1203104,212,1377.7,467.7,6411,right
40,1,binary,25,2,trial,1202189.0,1203556.0,1367.0,25,R,1203128,1203318,192,1441.9,392.8,6215,right
40,1,binary,25,2,trial,1202189.0,1203556.0,1367.0,25,R,1203376,1203584,210,1344.9,872.5,6315,NA
40,1,binary,25,2,trial,1202189.0,1203556.0,1367.0,25,R,1203634,1203816,184,1376.1,428.7,6270,right
40,1,binary,26,1,fixationCross,1232773.0,1234240.0,1467.0,26,R,1232100,1232290,192,29.6,4.8,7126,NA
40,1,binary,26,1,fixationCross,1232773.0,1234240.0,1467.0,26,R,1232326,1232448,124,241.7,125.3,6747,NA
40,1,binary,26,1,fixationCross,1232773.0,1234240.0,1467.0,26,R,1232504,1232656,154,911.6,578.8,6633,NA
40,1,binary,26,1,trial,1232773.0,1234240.0,1467.0,26,R,1232670,1232940,272,945.2,562.4,6647,NA
40,1,binary,26,1,trial,1232773.0,1234240.0,1467.0,26,R,1232984,1233168,186,513.7,574.7,7078,left
40,1,binary,26,1,trial,1232773.0,1234240.0,1467.0,26,R,1233184,1233284,102,573.3,596.2,7156,left
40,1,binary,26,1,trial,1232773.0,1234240.0,1467.0,26,R,1233332,1233426,96,480.7,995.6,7210,NA
40,1,binary,26,1,trial,1232773.0,1234240.0,1467.0,26,R,1233488,1233646,160,1415.7,599.6,6799,right
40,1,binary,26,1,trial,1232773.0,1234240.0,1467.0,26,R,1233680,1233810,132,1435.4,462.5,6749,right
40,1,binary,26,1,trial,1232773.0,1234240.0,1467.0,26,R,1233870,1234430,562,556.5,568.1,6992,left
40,1,binary,27,2,fixationCross,1235390.0,1236440.0,1050.0,27,R,1234684,1234882,200,530.0,488.7,6665,left
40,1,binary,27,2,fixationCross,1235390.0,1236440.0,1050.0,27,R,1234908,1235082,176,696.4,529.4,6878,left
40,1,binary,27,2,trial,1235390.0,1236440.0,1050.0,27,R,1235110,1235392,284,930.0,524.7,7119,NA
40,1,binary,27,2,trial,1235390.0,1236440.0,1050.0,27,R,1235414,1235542,130,820.5,533.7,7250,NA
40,1,binary,27,2,trial,1235390.0,1236440.0,1050.0,27,R,1235582,1235710,130,487.9,504.1,7324,left
40,1,binary,27,2,trial,1235390.0,1236440.0,1050.0,27,R,1235768,1236136,370,1390.9,536.4,6766,right
40,1,binary,27,2,trial,1235390.0,1236440.0,1050.0,27,R,1236160,1236624,466,1513.7,524.5,6439,right
40,1,binary,28,2,fixationCross,1237673.0,1239006.0,1333.0,28,R,1236880,1237118,240,879.5,438.8,6994,NA
40,1,binary,28,2,fixationCross,1237673.0,1239006.0,1333.0,28,R,1237162,1237350,190,567.6,530.0,7391,left
40,1,binary,28,2,trial,1237673.0,1239006.0,1333.0,28,R,1237388,1237724,338,907.1,521.6,7503,NA
40,1,binary,28,2,trial,1237673.0,1239006.0,1333.0,28,R,1237746,1237834,90,786.6,551.3,7506,NA
40,1,binary,28,2,trial,1237673.0,1239006.0,1333.0,28,R,1237870,1238052,184,546.1,510.8,7471,left
40,1,binary,28,2,trial,1237673.0,1239006.0,1333.0,28,R,1238066,1238190,126,564.1,480.3,7272,left
40,1,binary,28,2,trial,1237673.0,1239006.0,1333.0,28,R,1238250,1238498,250,1431.5,550.1,6701,right
40,1,binary,28,2,trial,1237673.0,1239006.0,1333.0,28,R,1238512,1239198,688,1462.3,579.8,6341,right
40,1,binary,29,1,fixationCross,1240340.0,1241956.0,1616.0,29,R,1239456,1239668,214,511.4,484.7,6624,left
40,1,binary,29,1,fixationCross,1240340.0,1241956.0,1616.0,29,R,1239694,1240026,334,667.6,503.9,7027,left
40,1,binary,29,1,trial,1240340.0,1241956.0,1616.0,29,R,1240060,1240510,452,903.4,528.7,7170,NA
40,1,binary,29,1,trial,1240340.0,1241956.0,1616.0,29,R,1240556,1240820,266,481.3,497.1,7290,left
40,1,binary,29,1,trial,1240340.0,1241956.0,1616.0,29,R,1240844,1241002,160,484.4,399.5,7010,left
40,1,binary,29,1,trial,1240340.0,1241956.0,1616.0,29,R,1241018,1241148,132,443.0,405.9,6887,left
40,1,binary,29,1,trial,1240340.0,1241956.0,1616.0,29,R,1241170,1241288,120,556.1,425.0,6775,left
40,1,binary,29,1,trial,1240340.0,1241956.0,1616.0,29,R,1241350,1241584,236,1457.5,519.3,6559,right
40,1,binary,29,1,trial,1240340.0,1241956.0,1616.0,29,R,1241598,1242146,550,1442.9,484.1,6693,right
40,1,binary,30,1,fixationCross,1243889.0,1245539.0,1650.0,30,R,1242378,1242630,254,661.1,578.9,7024,left
40,1,binary,30,1,fixationCross,1243889.0,1245539.0,1650.0,30,R,1242652,1242894,244,756.0,510.1,7280,NA
40,1,binary,30,1,fixationCross,1243889.0,1245539.0,1650.0,30,R,1242910,1243104,196,817.3,522.0,7355,NA
40,1,binary,30,1,fixationCross,1243889.0,1245539.0,1650.0,30,R,1243128,1243340,214,675.7,526.8,7401,left
40,1,binary,30,1,fixationCross,1243889.0,1245539.0,1650.0,30,R,1243360,1243564,206,598.3,532.8,7516,left
40,1,binary,30,1,fixationCross,1243889.0,1245539.0,1650.0,30,R,1243602,1243774,174,905.1,518.3,7550,NA
40,1,binary,30,1,trial,1243889.0,1245539.0,1650.0,30,R,1243956,1244036,82,908.1,533.2,7497,NA
40,1,binary,30,1,trial,1243889.0,1245539.0,1650.0,30,R,1244080,1244310,232,504.2,534.3,7632,left
40,1,binary,30,1,trial,1243889.0,1245539.0,1650.0,30,R,1244334,1244524,192,464.1,445.8,7426,left
40,1,binary,30,1,trial,1243889.0,1245539.0,1650.0,30,R,1244584,1245188,606,1339.2,474.6,6520,right
40,1,binary,30,1,trial,1243889.0,1245539.0,1650.0,30,R,1245250,1245386,138,473.1,452.2,6520,left
40,1,binary,30,1,trial,1243889.0,1245539.0,1650.0,30,R,1245400,1245734,336,440.1,440.0,6553,left
40,1,binary,31,1,fixationCross,1246739.0,1247706.0,967.0,31,R,1245950,1246220,272,555.1,523.7,6537,left
40,1,binary,31,1,fixationCross,1246739.0,1247706.0,967.0,31,R,1246248,1246428,182,769.1,525.5,6776,NA
40,1,binary,31,1,fixationCross,1246739.0,1247706.0,967.0,31,R,1246454,1246690,238,927.5,524.1,6810,NA
40,1,binary,31,1,trial,1246739.0,1247706.0,967.0,31,R,1246738,1246920,184,523.3,508.3,6935,left
40,1,binary,31,1,trial,1246739.0,1247706.0,967.0,31,R,1246944,1247168,226,580.9,429.5,6921,left
40,1,binary,31,1,trial,1246739.0,1247706.0,967.0,31,R,1247226,1247442,218,1417.3,459.2,6195,right
40,1,binary,31,1,trial,1246739.0,1247706.0,967.0,31,R,1247500,1247650,152,567.3,424.8,6148,left
40,1,binary,31,1,trial,1246739.0,1247706.0,967.0,31,R,1247662,1247928,268,538.7,405.7,6117,left
40,1,binary,32,2,fixationCross,1248856.0,1250340.0,1484.0,32,R,1248118,1248300,184,506.4,463.6,6178,left
40,1,binary,32,2,fixationCross,1248856.0,1250340.0,1484.0,32,R,1248324,1248546,224,617.9,527.6,6469,left
40,1,binary,32,2,trial,1248856.0,1250340.0,1484.0,32,R,1248584,1248880,298,913.4,507.6,6757,NA
40,1,binary,32,2,trial,1248856.0,1250340.0,1484.0,32,R,1248916,1249050,136,662.8,500.9,6949,left
40,1,binary,32,2,trial,1248856.0,1250340.0,1484.0,32,R,1249084,1249250,168,460.7,399.3,7023,left
40,1,binary,32,2,trial,1248856.0,1250340.0,1484.0,32,R,1249264,1249342,80,444.3,375.8,6979,left
40,1,binary,32,2,trial,1248856.0,1250340.0,1484.0,32,R,1249404,1249684,282,1365.4,506.2,6675,right
40,1,binary,32,2,trial,1248856.0,1250340.0,1484.0,32,R,1249700,1250314,616,1348.3,549.4,6787,right
40,1,binary,32,2,trial,1248856.0,1250340.0,1484.0,32,R,1250376,1250548,174,496.1,428.3,7114,left
40,1,binary,33,2,fixationCross,1251490.0,1252656.0,1166.0,33,R,1250760,1250948,190,548.3,445.3,7056,left
40,1,binary,33,2,fixationCross,1251490.0,1252656.0,1166.0,33,R,1250984,1251178,196,778.5,509.9,7222,NA
40,1,binary,33,2,fixationCross,1251490.0,1252656.0,1166.0,33,R,1251202,1251474,274,928.4,517.3,7355,NA
40,1,binary,33,2,trial,1251490.0,1252656.0,1166.0,33,R,1251512,1251686,176,663.6,496.7,7366,left
40,1,binary,33,2,trial,1251490.0,1252656.0,1166.0,33,R,1251724,1251836,114,394.0,484.5,7366,left
40,1,binary,33,2,trial,1251490.0,1252656.0,1166.0,33,R,1251898,1252152,256,1412.7,449.5,6673,right
40,1,binary,33,2,trial,1251490.0,1252656.0,1166.0,33,R,1252162,1252872,712,1383.4,478.9,6228,right
40,1,binary,34,2,fixationCross,1254773.0,1255973.0,1200.0,34,R,1253086,1253296,212,428.2,419.5,6377,left
40,1,binary,34,2,fixationCross,1254773.0,1255973.0,1200.0,34,R,1253342,1253560,220,826.6,506.3,6723,NA
40,1,binary,34,2,fixationCross,1254773.0,1255973.0,1200.0,34,R,1253588,1253800,214,645.9,504.8,7026,left
40,1,binary,34,2,fixationCross,1254773.0,1255973.0,1200.0,34,R,1253826,1254206,382,495.9,510.6,7163,left
40,1,binary,34,2,fixationCross,1254773.0,1255973.0,1200.0,34,R,1254222,1254454,234,572.1,502.3,7184,left
40,1,binary,34,2,trial,1254773.0,1255973.0,1200.0,34,R,1254492,1254924,434,922.5,544.6,7108,NA
40,1,binary,34,2,trial,1254773.0,1255973.0,1200.0,34,R,1254968,1255118,152,442.5,552.7,7263,left
40,1,binary,34,2,trial,1254773.0,1255973.0,1200.0,34,R,1255174,1255438,266,1276.7,536.2,6732,right
40,1,binary,34,2,trial,1254773.0,1255973.0,1200.0,34,R,1255466,1255890,426,1418.5,649.8,6302,right
40,1,binary,34,2,trial,1254773.0,1255973.0,1200.0,34,R,1255920,1256208,290,1238.9,602.2,6265,right
40,1,binary,35,2,fixationCross,1257040.0,1258406.0,1366.0,35,R,1256384,1256668,286,708.6,420.0,6433,left
40,1,binary,35,2,fixationCross,1257040.0,1258406.0,1366.0,35,R,1256706,1256854,150,870.0,586.3,6859,NA
40,1,binary,35,2,trial,1257040.0,1258406.0,1366.0,35,R,1256872,1257166,296,920.9,539.6,7057,NA
40,1,binary,35,2,trial,1257040.0,1258406.0,1366.0,35,R,1257212,1257400,190,497.8,515.0,7255,left
40,1,binary,35,2,trial,1257040.0,1258406.0,1366.0,35,R,1257474,1257670,198,1491.4,446.7,6566,right
40,1,binary,35,2,trial,1257040.0,1258406.0,1366.0,35,R,1257692,1257958,268,1601.8,461.5,6122,right
40,1,binary,35,2,trial,1257040.0,1258406.0,1366.0,35,R,1258014,1258300,288,1264.7,894.7,6246,NA
40,1,binary,35,2,trial,1257040.0,1258406.0,1366.0,35,R,1258352,1258604,254,1584.8,452.3,6216,right
40,1,binary,36,2,fixationCross,1260423.0,1261473.0,1050.0,36,R,1258832,1259148,318,638.3,488.2,6787,left
40,1,binary,36,2,fixationCross,1260423.0,1261473.0,1050.0,36,R,1259176,1259822,648,850.2,512.3,7355,NA
40,1,binary,36,2,fixationCross,1260423.0,1261473.0,1050.0,36,R,1259866,1260096,232,499.3,464.4,7864,left
40,1,binary,36,2,fixationCross,1260423.0,1261473.0,1050.0,36,R,1260140,1260320,182,932.3,515.0,7990,NA
40,1,binary,36,2,trial,1260423.0,1261473.0,1050.0,36,R,1260508,1260578,72,941.6,505.3,8070,NA
40,1,binary,36,2,trial,1260423.0,1261473.0,1050.0,36,R,1260632,1260890,260,494.9,487.0,8178,left
40,1,binary,36,2,trial,1260423.0,1261473.0,1050.0,36,R,1260948,1261182,236,1302.9,535.6,7364,right
40,1,binary,36,2,trial,1260423.0,1261473.0,1050.0,36,R,1261196,1261690,496,1294.3,594.9,6821,right
40,1,binary,37,2,fixationCross,1262656.0,1263573.0,917.0,37,R,1261890,1262070,182,429.2,486.2,7132,left
40,1,binary,37,2,fixationCross,1262656.0,1263573.0,917.0,37,R,1262104,1262350,248,667.7,475.9,7418,left
40,1,binary,37,2,trial,1262656.0,1263573.0,917.0,37,R,1262380,1262794,416,906.3,518.0,7717,NA
40,1,binary,37,2,trial,1262656.0,1263573.0,917.0,37,R,1262846,1263028,184,474.3,475.9,7888,left
40,1,binary,37,2,trial,1262656.0,1263573.0,917.0,37,R,1263086,1263396,312,1355.2,510.3,7228,right
40,1,binary,37,2,trial,1262656.0,1263573.0,917.0,37,R,1263414,1263780,368,1313.5,477.8,6897,right
40,1,binary,38,1,fixationCross,1264739.0,1266273.0,1534.0,38,R,1264004,1264178,176,571.9,471.1,7098,left
40,1,binary,38,1,fixationCross,1264739.0,1266273.0,1534.0,38,R,1264204,1264420,218,743.5,488.2,7329,NA
40,1,binary,38,1,trial,1264739.0,1266273.0,1534.0,38,R,1264446,1264880,436,910.9,518.1,7596,NA
40,1,binary,38,1,trial,1264739.0,1266273.0,1534.0,38,R,1264924,1265064,142,510.7,497.4,7647,left
40,1,binary,38,1,trial,1264739.0,1266273.0,1534.0,38,R,1265122,1265834,714,1377.7,519.3,6706,right
40,1,binary,38,1,postResponse,1264739.0,1266273.0,1534.0,38,R,1265902,1266608,708,438.5,544.6,6662,left
40,1,binary,39,2,fixationCross,1267457.0,1268806.0,1349.0,39,R,1266684,1267128,446,441.5,528.5,6324,left
40,1,binary,39,2,trial,1267457.0,1268806.0,1349.0,39,R,1267172,1267654,484,939.7,525.9,6815,NA
40,1,binary,39,2,trial,1267457.0,1268806.0,1349.0,39,R,1267700,1268142,444,491.0,522.7,6966,left
40,1,binary,39,2,trial,1267457.0,1268806.0,1349.0,39,R,1268202,1268380,180,1328.3,510.1,6334,right
40,1,binary,39,2,postResponse,1267457.0,1268806.0,1349.0,39,R,1268406,1269142,738,1288.4,419.3,5841,right
40,1,binary,40,1,fixationCross,1269873.0,1271606.0,1733.0,40,R,1269394,1269552,160,826.6,527.3,6269,NA
40,1,binary,40,1,trial,1269873.0,1271606.0,1733.0,40,R,1269576,1270078,504,939.9,532.2,6704,NA
40,1,binary,40,1,trial,1269873.0,1271606.0,1733.0,40,R,1270126,1270286,162,441.9,578.2,6838,left
40,1,binary,40,1,trial,1269873.0,1271606.0,1733.0,40,R,1270306,1270456,152,384.7,653.1,6639,left
40,1,binary,40,1,trial,1269873.0,1271606.0,1733.0,40,R,1270518,1270772,256,1345.1,578.7,6211,right
40,1,binary,40,1,trial,1269873.0,1271606.0,1733.0,40,R,1270788,1271098,312,1405.2,593.3,5944,right
40,1,binary,40,1,trial,1269873.0,1271606.0,1733.0,40,R,1271122,1271260,140,1289.3,614.5,5815,right
40,1,binary,40,1,trial,1269873.0,1271606.0,1733.0,40,R,1271326,1271818,494,435.6,648.2,6009,left
40,1,binary,41,2,fixationCross,1272523.0,1273440.0,917.0,41,R,1272048,1272204,158,581.1,499.5,6144,left
40,1,binary,41,2,fixationCross,1272523.0,1273440.0,917.0,41,R,1272242,1272384,144,894.9,511.1,6358,NA
40,1,binary,41,2,trial,1272523.0,1273440.0,917.0,41,R,1272398,1272700,304,939.5,521.7,6672,NA
40,1,binary,41,2,trial,1272523.0,1273440.0,917.0,41,R,1272746,1272944,200,514.2,514.4,6944,left
40,1,binary,41,2,postResponse,1272523.0,1273440.0,917.0,41,R,1273002,1273776,776,1347.2,576.1,6504,right
40,1,binary,42,1,fixationCross,1274523.0,1275540.0,1017.0,42,R,1273850,1274216,368,731.5,516.7,6592,left
40,1,binary,42,1,trial,1274523.0,1275540.0,1017.0,42,R,1274240,1274584,346,879.2,520.9,6977,NA
40,1,binary,42,1,trial,1274523.0,1275540.0,1017.0,42,R,1274604,1274734,132,770.0,532.0,7188,NA
40,1,binary,42,1,trial,1274523.0,1275540.0,1017.0,42,R,1274770,1274946,178,519.7,503.5,7287,left
40,1,binary,42,1,trial,1274523.0,1275540.0,1017.0,42,R,1275002,1275232,232,1304.4,533.5,6793,right
40,1,binary,42,1,trial,1274523.0,1275540.0,1017.0,42,R,1275290,1275726,438,512.7,533.1,6684,left
40,1,binary,43,2,fixationCross,1276623.0,1278224.0,1601.0,43,R,1275964,1276162,200,554.4,493.2,7084,left
40,1,binary,43,2,fixationCross,1276623.0,1278224.0,1601.0,43,R,1276184,1276320,138,654.1,484.3,7273,left
40,1,binary,43,2,trial,1276623.0,1278224.0,1601.0,43,R,1276352,1276650,300,925.6,511.8,7408,NA
40,1,binary,43,2,trial,1276623.0,1278224.0,1601.0,43,R,1276676,1276810,136,769.9,523.4,7475,NA
40,1,binary,43,2,trial,1276623.0,1278224.0,1601.0,43,R,1276848,1277190,344,447.9,487.7,7611,left
40,1,binary,43,2,trial,1276623.0,1278224.0,1601.0,43,R,1277390,1277670,282,1378.5,489.4,7199,right
40,1,binary,43,2,trial,1276623.0,1278224.0,1601.0,43,R,1277688,1278088,402,1396.6,442.7,7408,right
40,1,binary,43,2,postResponse,1276623.0,1278224.0,1601.0,43,R,1278152,1278558,408,515.3,486.8,7528,left
40,1,binary,44,2,fixationCross,1279273.0,1280790.0,1517.0,44,R,1278632,1278962,332,747.8,521.6,7275,NA
40,1,binary,44,2,trial,1279273.0,1280790.0,1517.0,44,R,1278988,1279352,366,916.7,520.4,7476,NA
40,1,binary,44,2,trial,1279273.0,1280790.0,1517.0,44,R,1279386,1279604,220,708.6,484.7,7771,left
40,1,binary,44,2,trial,1279273.0,1280790.0,1517.0,44,R,1279654,1279850,198,1377.7,513.9,7383,right
40,1,binary,44,2,trial,1279273.0,1280790.0,1517.0,44,R,1279876,1280012,138,1224.6,602.6,7150,right
40,1,binary,44,2,trial,1279273.0,1280790.0,1517.0,44,R,1280070,1280452,384,463.7,575.6,6852,left
40,1,binary,44,2,trial,1279273.0,1280790.0,1517.0,44,R,1280506,1280986,482,1196.9,559.3,6714,right
40,1,binary,45,1,fixationCross,1282039.0,1283224.0,1185.0,45,R,1281230,1281712,484,736.5,504.9,7469,left
40,1,binary,45,1,trial,1282039.0,1283224.0,1185.0,45,R,1281740,1282198,460,908.7,510.8,7777,NA
40,1,binary,45,1,trial,1282039.0,1283224.0,1185.0,45,R,1282244,1282368,126,458.0,492.0,7792,left
40,1,binary,45,1,trial,1282039.0,1283224.0,1185.0,45,R,1282428,1282650,224,1341.6,542.1,7489,right
40,1,binary,45,1,trial,1282039.0,1283224.0,1185.0,45,R,1282672,1282824,154,1338.2,644.8,7409,right
40,1,binary,45,1,trial,1282039.0,1283224.0,1185.0,45,R,1282888,1283146,260,451.4,702.3,7637,left
40,1,binary,45,1,trial,1282039.0,1283224.0,1185.0,45,R,1283176,1283424,250,379.2,536.0,7543,left
40,1,binary,46,2,fixationCross,1284140.0,1285640.0,1500.0,46,R,1283656,1283764,110,658.2,504.6,7386,left
40,1,binary,46,2,fixationCross,1284140.0,1285640.0,1500.0,46,R,1283792,1284036,246,879.4,510.9,7427,NA
40,1,binary,46,2,trial,1284140.0,1285640.0,1500.0,46,R,1284050,1284288,240,934.9,516.7,7602,NA
40,1,binary,46,2,trial,1284140.0,1285640.0,1500.0,46,R,1284334,1284474,142,493.9,514.2,7699,left
40,1,binary,46,2,trial,1284140.0,1285640.0,1500.0,46,R,1284494,1284700,208,451.1,454.8,7346,left
40,1,binary,46,2,trial,1284140.0,1285640.0,1500.0,46,R,1284760,1284968,210,1314.1,551.9,6612,right
40,1,binary,46,2,postResponse,1284140.0,1285640.0,1500.0,46,R,1284980,1285988,1010,1339.5,561.0,6255,right
40,1,binary,47,2,fixationCross,1286757.0,1288107.0,1350.0,47,R,1286064,1286284,222,1303.4,536.2,6478,right
40,1,binary,47,2,fixationCross,1286757.0,1288107.0,1350.0,47,R,1286336,1286508,174,746.8,517.3,6825,NA
40,1,binary,47,2,trial,1286757.0,1288107.0,1350.0,47,R,1286536,1286924,390,937.8,529.1,6950,NA
40,1,binary,47,2,trial,1286757.0,1288107.0,1350.0,47,R,1286970,1287152,184,466.3,528.6,6987,left
40,1,binary,47,2,trial,1286757.0,1288107.0,1350.0,47,R,1287170,1287428,260,449.5,491.6,6723,left
40,1,binary,47,2,trial,1286757.0,1288107.0,1350.0,47,R,1287492,1288322,832,1408.7,530.3,6049,right
40,1,binary,48,1,fixationCross,1289274.0,1291023.0,1749.0,48,R,1288636,1288768,134,554.8,556.2,6118,left
40,1,binary,48,1,fixationCross,1289274.0,1291023.0,1749.0,48,R,1288796,1288964,170,739.4,524.1,6332,NA
40,1,binary,48,1,trial,1289274.0,1291023.0,1749.0,48,R,1288996,1289560,566,954.7,536.1,6668,NA
40,1,binary,48,1,trial,1289274.0,1291023.0,1749.0,48,R,1289608,1289904,298,413.4,568.3,6745,left
40,1,binary,48,1,trial,1289274.0,1291023.0,1749.0,48,R,1289918,1290082,166,461.6,569.8,6595,left
40,1,binary,48,1,trial,1289274.0,1291023.0,1749.0,48,R,1290142,1290528,388,1333.6,443.1,6108,right
40,1,binary,48,1,trial,1289274.0,1291023.0,1749.0,48,R,1290550,1290792,244,1373.2,361.8,5933,right
40,1,binary,48,1,trial,1289274.0,1291023.0,1749.0,48,R,1290866,1291026,162,475.8,718.6,6221,left
40,1,binary,48,1,trial,1289274.0,1291023.0,1749.0,48,R,1291056,1291230,176,448.3,557.0,6181,left
40,1,binary,49,2,fixationCross,1292007.0,1293673.0,1666.0,49,R,1291460,1291680,222,609.7,508.5,6372,left
40,1,binary,49,2,trial,1292007.0,1293673.0,1666.0,49,R,1291718,1292170,454,935.8,532.6,6791,NA
40,1,binary,49,2,trial,1292007.0,1293673.0,1666.0,49,R,1292214,1292718,506,522.6,534.6,6813,left
40,1,binary,49,2,trial,1292007.0,1293673.0,1666.0,49,R,1292776,1292950,176,1346.9,428.3,6469,right
40,1,binary,49,2,trial,1292007.0,1293673.0,1666.0,49,R,1292962,1293292,332,1342.7,399.3,6376,right
40,1,binary,49,2,trial,1292007.0,1293673.0,1666.0,49,R,1293326,1293550,226,1297.3,574.7,6473,right
40,1,binary,49,2,trial,1292007.0,1293673.0,1666.0,49,R,1293612,1293884,274,470.9,573.8,6844,left
40,1,binary,50,2,fixationCross,1295457.0,1296440.0,983.0,50,R,1294090,1294280,192,539.9,517.2,6609,left
40,1,binary,50,2,fixationCross,1295457.0,1296440.0,983.0,50,R,1294318,1294584,268,814.6,508.8,6746,NA
40,1,binary,50,2,fixationCross,1295457.0,1296440.0,983.0,50,R,1294594,1294772,180,847.9,524.2,6863,NA
40,1,binary,50,2,fixationCross,1295457.0,1296440.0,983.0,50,R,1294798,1295152,356,672.8,539.9,6989,left
40,1,binary,50,2,fixationCross,1295457.0,1296440.0,983.0,50,R,1295186,1295402,218,891.2,532.9,7061,NA
40,1,binary,50,2,trial,1295457.0,1296440.0,983.0,50,R,1295412,1295606,196,924.6,533.2,7129,NA
40,1,binary,50,2,trial,1295457.0,1296440.0,983.0,50,R,1295652,1295804,154,454.3,543.5,7238,left
40,1,binary,50,2,trial,1295457.0,1296440.0,983.0,50,R,1295860,1296086,228,1304.3,518.3,6772,right
40,1,binary,50,2,trial,1295457.0,1296440.0,983.0,50,R,1296098,1296460,364,1259.0,548.7,6427,right
40,1,binary,50,2,postResponse,1295457.0,1296440.0,983.0,50,R,1296484,1296776,294,1395.5,540.8,6264,right
40,2,continuous,1,14,fixationCross,1370258.0,1379441.0,9183.0,51,R,1369664,1369820,158,957.2,544.1,8034,NA
40,2,continuous,1,14,fixationCross,1370258.0,1379441.0,9183.0,51,R,1370008,1370172,166,970.9,582.4,7776,NA
40,2,continuous,1,14,trial,1370258.0,1379441.0,9183.0,51,R,1370188,1370428,242,959.3,540.3,7816,NA
40,2,continuous,1,14,trial,1370258.0,1379441.0,9183.0,51,R,1370472,1370808,338,496.3,501.3,7726,left
40,2,continuous,1,14,trial,1370258.0,1379441.0,9183.0,51,R,1370860,1371102,244,543.2,1024.3,7217,NA
40,2,continuous,1,14,trial,1370258.0,1379441.0,9183.0,51,R,1371160,1371270,112,1342.5,1035.8,6856,NA
40,2,continuous,1,14,trial,1370258.0,1379441.0,9183.0,51,R,1371294,1371446,154,1454.5,1001.7,6796,NA
40,2,continuous,1,14,trial,1370258.0,1379441.0,9183.0,51,R,1371490,1371830,342,1465.7,544.5,6823,right
40,2,continuous,1,14,trial,1370258.0,1379441.0,9183.0,51,R,1371846,1371968,124,1529.0,566.7,6815,right
40,2,continuous,1,14,trial,1370258.0,1379441.0,9183.0,51,R,1372034,1372174,142,563.8,472.1,6875,left
40,2,continuous,1,14,trial,1370258.0,1379441.0,9183.0,51,R,1372194,1372384,192,537.8,408.7,6757,left
40,2,continuous,1,14,trial,1370258.0,1379441.0,9183.0,51,R,1372408,1373090,684,458.5,507.8,6601,left
40,2,continuous,1,14,trial,1370258.0,1379441.0,9183.0,51,R,1373230,1373568,340,451.7,501.2,6685,left
40,2,continuous,1,14,trial,1370258.0,1379441.0,9183.0,51,R,1373594,1373690,98,549.2,395.2,6735,left
40,2,continuous,1,14,trial,1370258.0,1379441.0,9183.0,51,R,1373752,1374016,266,567.8,1042.7,6864,NA
40,2,continuous,1,14,trial,1370258.0,1379441.0,9183.0,51,R,1374032,1374262,232,576.7,975.0,7024,NA
40,2,continuous,1,14,trial,1370258.0,1379441.0,9183.0,51,R,1374424,1374570,148,558.2,441.1,6988,left
40,2,continuous,1,14,trial,1370258.0,1379441.0,9183.0,51,R,1374588,1374782,196,548.4,389.3,7017,left
40,2,continuous,1,14,trial,1370258.0,1379441.0,9183.0,51,R,1374806,1375188,384,459.9,483.3,6895,left
40,2,continuous,1,14,trial,1370258.0,1379441.0,9183.0,51,R,1375254,1375518,266,1431.1,514.2,6484,right
40,2,continuous,1,14,trial,1370258.0,1379441.0,9183.0,51,R,1375546,1376184,640,1460.5,614.2,6506,right
40,2,continuous,1,14,trial,1370258.0,1379441.0,9183.0,51,R,1376254,1376404,152,622.8,985.6,7134,NA
40,2,continuous,1,14,trial,1370258.0,1379441.0,9183.0,51,R,1376424,1376518,96,545.9,1015.0,7183,NA
40,2,continuous,1,14,trial,1370258.0,1379441.0,9183.0,51,R,1376660,1376842,184,520.9,501.2,6855,left
40,2,continuous,1,14,trial,1370258.0,1379441.0,9183.0,51,R,1376858,1377144,288,456.9,502.9,6885,left
40,2,continuous,1,14,trial,1370258.0,1379441.0,9183.0,51,R,1377196,1377412,218,576.2,1003.9,7224,NA
40,2,continuous,1,14,trial,1370258.0,1379441.0,9183.0,51,R,1377426,1378112,688,618.2,985.0,7400,NA
40,2,continuous,1,14,trial,1370258.0,1379441.0,9183.0,51,R,1378296,1378554,260,601.8,975.8,7806,NA
40,2,continuous,1,14,trial,1370258.0,1379441.0,9183.0,51,R,1378614,1378784,172,1371.6,940.2,7726,NA
40,2,continuous,1,14,trial,1370258.0,1379441.0,9183.0,51,R,1378804,1378976,174,1443.7,983.7,7733,NA
40,2,continuous,1,14,trial,1370258.0,1379441.0,9183.0,51,R,1379040,1379152,114,561.5,713.1,7989,left
40,2,continuous,1,14,trial,1370258.0,1379441.0,9183.0,51,R,1379304,1379518,216,546.8,681.1,8052,left
40,2,continuous,1,14,postResponse,1370258.0,1379441.0,9183.0,51,R,1379544,1379778,236,646.8,572.1,8081,left
40,2,continuous,2,85,fixationCross,1380891.0,1382991.0,2100.0,52,R,1379852,1380076,226,941.7,529.9,7904,NA
40,2,continuous,2,85,fixationCross,1380891.0,1382991.0,2100.0,52,R,1380114,1380388,276,676.5,468.7,7868,left
40,2,continuous,2,85,fixationCross,1380891.0,1382991.0,2100.0,52,R,1380414,1380524,112,552.2,471.5,7917,left
40,2,continuous,2,85,trial,1380891.0,1382991.0,2100.0,52,R,1380706,1381048,344,982.7,534.3,7809,NA
40,2,continuous,2,85,trial,1380891.0,1382991.0,2100.0,52,R,1381106,1381222,118,498.7,495.7,7922,left
40,2,continuous,2,85,trial,1380891.0,1382991.0,2100.0,52,R,1381248,1381382,136,517.3,618.9,7827,left
40,2,continuous,2,85,trial,1380891.0,1382991.0,2100.0,52,R,1381442,1381648,208,1416.7,556.7,7342,right
40,2,continuous,2,85,trial,1380891.0,1382991.0,2100.0,52,R,1381674,1381838,166,1568.1,521.7,7032,right
40,2,continuous,2,85,trial,1380891.0,1382991.0,2100.0,52,R,1381856,1382050,196,1637.5,495.0,6793,right
40,2,continuous,2,85,trial,1380891.0,1382991.0,2100.0,52,R,1382120,1382246,128,1053.3,977.3,6879,likertHorizontal
40,2,continuous,2,85,trial,1380891.0,1382991.0,2100.0,52,R,1382260,1382374,116,1033.7,1002.9,6790,likertHorizontal
40,2,continuous,2,85,trial,1380891.0,1382991.0,2100.0,52,R,1382402,1382564,164,1226.7,992.9,6793,NA
40,2,continuous,2,85,trial,1380891.0,1382991.0,2100.0,52,R,1382590,1382804,216,1392.3,986.8,6974,NA
40,2,continuous,2,85,trial,1380891.0,1382991.0,2100.0,52,R,1382824,1382952,130,1298.7,966.3,7222,NA
40,2,continuous,2,85,trial,1380891.0,1382991.0,2100.0,52,R,1383002,1383142,142,1523.0,461.4,7124,right
40,2,continuous,3,100,fixationCross,1384141.0,1386574.0,2433.0,53,R,1383416,1383594,180,716.2,541.3,7164,left
40,2,continuous,3,100,fixationCross,1384141.0,1386574.0,2433.0,53,R,1383618,1383840,224,853.6,518.6,7295,NA
40,2,continuous,3,100,trial,1384141.0,1386574.0,2433.0,53,R,1383860,1384302,444,934.3,555.0,7380,NA
40,2,continuous,3,100,trial,1384141.0,1386574.0,2433.0,53,R,1384346,1384558,214,486.5,546.1,7282,left
40,2,continuous,3,100,trial,1384141.0,1386574.0,2433.0,53,R,1384616,1384924,310,1370.6,599.9,6559,right
40,2,continuous,3,100,trial,1384141.0,1386574.0,2433.0,53,R,1384962,1385198,238,1547.3,452.6,6123,right
40,2,continuous,3,100,trial,1384141.0,1386574.0,2433.0,53,R,1385260,1385482,224,1187.4,931.2,6553,NA
40,2,continuous,3,100,trial,1384141.0,1386574.0,2433.0,53,R,1385530,1385692,164,1408.4,524.5,6579,right
40,2,continuous,3,100,trial,1384141.0,1386574.0,2433.0,53,R,1385714,1385910,198,1324.2,572.6,6895,right
40,2,continuous,3,100,trial,1384141.0,1386574.0,2433.0,53,R,1385944,1386208,266,1534.5,451.7,6940,right
40,2,continuous,3,100,trial,1384141.0,1386574.0,2433.0,53,R,1386270,1386750,482,1461.5,978.6,7152,NA
40,2,continuous,4,89,fixationCross,1388174.0,1393091.0,4917.0,54,R,1387016,1387270,256,592.7,420.7,7171,left
40,2,continuous,4,89,fixationCross,1388174.0,1393091.0,4917.0,54,R,1387308,1387594,288,849.3,476.7,7350,NA
40,2,continuous,4,89,fixationCross,1388174.0,1393091.0,4917.0,54,R,1387616,1387858,244,757.4,491.5,7211,NA
40,2,continuous,4,89,fixationCross,1388174.0,1393091.0,4917.0,54,R,1387882,1388142,262,873.6,528.1,7148,NA
40,2,continuous,4,89,trial,1388174.0,1393091.0,4917.0,54,R,1388162,1388282,122,965.5,551.2,7178,NA
40,2,continuous,4,89,trial,1388174.0,1393091.0,4917.0,54,R,1388398,1388540,144,493.0,532.4,7229,left
40,2,continuous,4,89,trial,1388174.0,1393091.0,4917.0,54,R,1388690,1388882,194,1436.8,518.3,6681,right
40,2,continuous,4,89,trial,1388174.0,1393091.0,4917.0,54,R,1388900,1389294,396,1448.9,463.0,6423,right
40,2,continuous,4,89,trial,1388174.0,1393091.0,4917.0,54,R,1389364,1389536,174,475.9,584.8,6309,left
40,2,continuous,4,89,trial,1388174.0,1393091.0,4917.0,54,R,1389554,1389864,312,411.0,561.5,6213,left
40,2,continuous,4,89,trial,1388174.0,1393091.0,4917.0,54,R,1389932,1390102,172,1464.3,496.7,5918,right
40,2,continuous,4,89,trial,1388174.0,1393091.0,4917.0,54,R,1390156,1390350,196,1482.7,992.3,6069,NA
40,2,continuous,4,89,trial,1388174.0,1393091.0,4917.0,54,R,1390368,1390646,280,1418.1,997.3,6260,NA
40,2,continuous,4,89,trial,1388174.0,1393091.0,4917.0,54,R,1390656,1390864,210,1424.3,965.2,6551,NA
40,2,continuous,4,89,trial,1388174.0,1393091.0,4917.0,54,R,1390880,1391070,192,1361.7,956.5,6765,NA
40,2,continuous,4,89,trial,1388174.0,1393091.0,4917.0,54,R,1391122,1391506,386,1445.0,466.9,6737,right
40,2,continuous,4,89,trial,1388174.0,1393091.0,4917.0,54,R,1391532,1391616,86,1403.1,581.7,6572,right
40,2,continuous,4,89,trial,1388174.0,1393091.0,4917.0,54,R,1391682,1391868,188,472.7,560.6,6554,left
40,2,continuous,4,89,trial,1388174.0,1393091.0,4917.0,54,R,1391886,1392344,460,406.5,553.5,6483,left
40,2,continuous,4,89,trial,1388174.0,1393091.0,4917.0,54,R,1392420,1392570,152,1509.4,1013.2,6495,NA
40,2,continuous,4,89,trial,1388174.0,1393091.0,4917.0,54,R,1392590,1392836,248,1425.8,950.5,6557,NA
40,2,continuous,4,89,trial,1388174.0,1393091.0,4917.0,54,R,1392852,1393272,422,1341.2,965.4,6786,NA
40,2,continuous,5,100,fixationCross,1394258.0,1396324.0,2066.0,55,R,1393532,1393744,214,592.2,419.8,7128,left
40,2,continuous,5,100,fixationCross,1394258.0,1396324.0,2066.0,55,R,1393772,1393958,188,803.1,441.3,7249,NA
40,2,continuous,5,100,trial,1394258.0,1396324.0,2066.0,55,R,1393978,1394396,420,890.9,497.5,6871,NA
40,2,continuous,5,100,trial,1394258.0,1396324.0,2066.0,55,R,1394440,1394580,142,465.8,488.7,6745,left
40,2,continuous,5,100,trial,1394258.0,1396324.0,2066.0,55,R,1394594,1394966,374,512.4,514.1,6570,left
40,2,continuous,5,100,trial,1394258.0,1396324.0,2066.0,55,R,1395030,1395298,270,1469.1,552.8,5918,right
40,2,continuous,5,100,trial,1394258.0,1396324.0,2066.0,55,R,1395314,1395460,148,1466.6,587.9,5854,right
40,2,continuous,5,100,trial,1394258.0,1396324.0,2066.0,55,R,1395516,1395928,414,1303.0,975.8,6402,NA
40,2,continuous,5,100,trial,1394258.0,1396324.0,2066.0,55,R,1395950,1396198,250,1421.2,967.5,6734,NA
40,2,continuous,5,100,trial,1394258.0,1396324.0,2066.0,55,R,1396268,1396622,356,518.2,514.8,7013,left
40,2,continuous,6,21,fixationCross,1397641.0,1400558.0,2917.0,56,R,1396798,1397020,224,710.4,497.2,6413,left
40,2,continuous,6,21,fixationCross,1397641.0,1400558.0,2917.0,56,R,1397042,1397344,304,842.0,525.0,6664,NA
40,2,continuous,6,21,trial,1397641.0,1400558.0,2917.0,56,R,1397366,1397798,434,941.9,539.5,6935,NA
40,2,continuous,6,21,trial,1397641.0,1400558.0,2917.0,56,R,1397844,1398016,174,519.7,531.8,7024,left
40,2,continuous,6,21,trial,1397641.0,1400558.0,2917.0,56,R,1398076,1398380,306,1431.3,507.1,6502,right
40,2,continuous,6,21,trial,1397641.0,1400558.0,2917.0,56,R,1398400,1398558,160,1429.0,458.7,6234,right
40,2,continuous,6,21,trial,1397641.0,1400558.0,2917.0,56,R,1398626,1398914,290,471.4,538.0,6300,left
40,2,continuous,6,21,trial,1397641.0,1400558.0,2917.0,56,R,1398934,1399172,240,437.6,595.8,6493,left
40,2,continuous,6,21,trial,1397641.0,1400558.0,2917.0,56,R,1399222,1399488,268,605.7,992.6,7012,NA
40,2,continuous,6,21,trial,1397641.0,1400558.0,2917.0,56,R,1399540,1400748,1210,450.2,515.8,7168,left
40,2,continuous,7,49,fixationCross,1401775.0,1404425.0,2650.0,57,R,1400994,1401272,280,630.3,516.1,7229,left
40,2,continuous,7,49,fixationCross,1401775.0,1404425.0,2650.0,57,R,1401290,1401460,172,556.5,505.3,7453,left
40,2,continuous,7,49,trial,1401775.0,1404425.0,2650.0,57,R,1401502,1401788,288,905.4,542.9,7485,NA
40,2,continuous,7,49,trial,1401775.0,1404425.0,2650.0,57,R,1401828,1401972,146,605.8,546.1,7457,left
40,2,continuous,7,49,trial,1401775.0,1404425.0,2650.0,57,R,1401998,1402216,220,555.9,423.9,7334,left
40,2,continuous,7,49,trial,1401775.0,1404425.0,2650.0,57,R,1402228,1402394,168,577.2,404.3,7027,left
40,2,continuous,7,49,trial,1401775.0,1404425.0,2650.0,57,R,1402458,1402674,218,1507.5,493.7,6546,right
40,2,continuous,7,49,trial,1401775.0,1404425.0,2650.0,57,R,1402694,1403100,408,1501.5,429.5,6416,right
40,2,continuous,7,49,trial,1401775.0,1404425.0,2650.0,57,R,1403180,1403404,226,691.7,1011.5,6898,NA
40,2,continuous,7,49,trial,1401775.0,1404425.0,2650.0,57,R,1403422,1403756,336,791.8,996.5,6948,likertHorizontal
40,2,continuous,7,49,trial,1401775.0,1404425.0,2650.0,57,R,1403776,1404604,830,912.5,964.5,7378,likertHorizontal
40,2,continuous,8,1,fixationCross,1405441.0,1407608.0,2167.0,58,R,1404838,1405128,292,830.3,494.4,7541,NA
40,2,continuous,8,1,trial,1405441.0,1407608.0,2167.0,58,R,1405142,1405592,452,885.4,509.9,7431,NA
40,2,continuous,8,1,trial,1405441.0,1407608.0,2167.0,58,R,1405634,1405830,198,535.0,524.3,7218,left
40,2,continuous,8,1,trial,1405441.0,1407608.0,2167.0,58,R,1405864,1406122,260,351.4,616.6,6768,left
40,2,continuous,8,1,trial,1405441.0,1407608.0,2167.0,58,R,1406188,1406406,220,1328.9,560.3,6262,right
40,2,continuous,8,1,trial,1405441.0,1407608.0,2167.0,58,R,1406430,1406582,154,1429.4,504.0,6069,right
40,2,continuous,8,1,trial,1405441.0,1407608.0,2167.0,58,R,1406614,1406756,144,1236.9,584.7,6012,right
40,2,continuous,8,1,trial,1405441.0,1407608.0,2167.0,58,R,1406818,1407058,242,445.1,642.0,6061,left
40,2,continuous,8,1,trial,1405441.0,1407608.0,2167.0,58,R,1407112,1407276,166,610.9,1043.2,6304,NA
40,2,continuous,8,1,trial,1405441.0,1407608.0,2167.0,58,R,1407298,1407490,194,501.2,1020.7,6445,NA
40,2,continuous,8,1,trial,1405441.0,1407608.0,2167.0,58,R,1407498,1407702,206,470.7,1004.8,6512,NA
40,2,continuous,8,1,trial,1405441.0,1407608.0,2167.0,58,R,1407748,1407824,78,405.4,647.3,6454,left
40,2,continuous,9,1,fixationCross,1408842.0,1411075.0,2233.0,59,R,1408036,1408314,280,793.9,493.7,6600,NA
40,2,continuous,9,1,fixationCross,1408842.0,1411075.0,2233.0,59,R,1408340,1408526,188,712.8,553.1,6911,left
40,2,continuous,9,1,trial,1408842.0,1411075.0,2233.0,59,R,1408556,1409080,526,928.7,553.6,6988,NA
40,2,continuous,9,1,trial,1408842.0,1411075.0,2233.0,59,R,1409122,1409302,182,1389.9,511.6,6757,right
40,2,continuous,9,1,trial,1408842.0,1411075.0,2233.0,59,R,1409318,1409458,142,1440.5,551.6,6468,right
40,2,continuous,9,1,trial,1408842.0,1411075.0,2233.0,59,R,1409520,1409758,240,517.4,558.6,6432,left
40,2,continuous,9,1,trial,1408842.0,1411075.0,2233.0,59,R,1409784,1409954,172,535.7,447.2,6309,left
40,2,continuous,9,1,trial,1408842.0,1411075.0,2233.0,59,R,1409976,1410400,426,522.9,526.6,6430,left
40,2,continuous,9,1,trial,1408842.0,1411075.0,2233.0,59,R,1410418,1410602,186,441.6,503.7,6542,left
40,2,continuous,9,1,trial,1408842.0,1411075.0,2233.0,59,R,1410662,1410806,146,513.6,1035.9,6727,NA
40,2,continuous,9,1,trial,1408842.0,1411075.0,2233.0,59,R,1410824,1410988,166,493.2,986.8,6731,NA
40,2,continuous,9,1,trial,1408842.0,1411075.0,2233.0,59,R,1411118,1411260,144,478.5,513.1,6690,left
40,2,continuous,10,99,fixationCross,1412208.0,1414842.0,2634.0,60,R,1411486,1411658,174,641.6,472.8,7021,left
40,2,continuous,10,99,fixationCross,1412208.0,1414842.0,2634.0,60,R,1411684,1411902,220,796.0,502.6,7254,NA
40,2,continuous,10,99,fixationCross,1412208.0,1414842.0,2634.0,60,R,1411930,1412174,246,937.1,529.4,7359,NA
40,2,continuous,10,99,trial,1412208.0,1414842.0,2634.0,60,R,1412188,1412438,252,890.6,548.1,7286,NA
40,2,continuous,10,99,trial,1412208.0,1414842.0,2634.0,60,R,1412486,1412702,218,1354.7,572.4,7020,right
40,2,continuous,10,99,trial,1412208.0,1414842.0,2634.0,60,R,1412728,1412958,232,1509.0,585.2,6824,right
40,2,continuous,10,99,trial,1412208.0,1414842.0,2634.0,60,R,1413032,1413278,248,451.3,504.7,6760,left
40,2,continuous,10,99,trial,1412208.0,1414842.0,2634.0,60,R,1413300,1413532,234,370.0,565.0,6565,left
40,2,continuous,10,99,trial,1412208.0,1414842.0,2634.0,60,R,1413600,1413862,264,1380.3,588.3,6377,right
40,2,continuous,10,99,trial,1412208.0,1414842.0,2634.0,60,R,1413888,1414174,288,1531.6,610.1,6279,right
40,2,continuous,10,99,trial,1412208.0,1414842.0,2634.0,60,R,1414226,1414480,256,1383.1,979.8,6283,NA
40,2,continuous,10,99,trial,1412208.0,1414842.0,2634.0,60,R,1414496,1414702,208,1450.2,966.0,6319,NA
40,2,continuous,10,99,trial,1412208.0,1414842.0,2634.0,60,R,1414750,1414956,208,1400.4,576.9,6380,right
40,2,continuous,11,64,fixationCross,1415741.0,1418208.0,2467.0,61,R,1415266,1415414,150,618.9,385.6,6669,left
40,2,continuous,11,64,fixationCross,1415741.0,1418208.0,2467.0,61,R,1415454,1415686,234,866.6,545.2,6911,NA
40,2,continuous,11,64,trial,1415741.0,1418208.0,2467.0,61,R,1415704,1415904,202,944.2,543.9,6953,NA
40,2,continuous,11,64,trial,1415741.0,1418208.0,2467.0,61,R,1415946,1416154,210,550.3,496.9,7015,left
40,2,continuous,11,64,trial,1415741.0,1418208.0,2467.0,61,R,1416174,1416506,334,470.8,555.4,6643,left
40,2,continuous,11,64,trial,1415741.0,1418208.0,2467.0,61,R,1416550,1416660,112,872.1,576.3,6333,NA
40,2,continuous,11,64,trial,1415741.0,1418208.0,2467.0,61,R,1416704,1416846,144,1305.5,583.9,6089,right
40,2,continuous,11,64,trial,1415741.0,1418208.0,2467.0,61,R,1416904,1417100,198,865.0,981.4,6332,likertHorizontal
40,2,continuous,11,64,trial,1415741.0,1418208.0,2467.0,61,R,1417118,1417482,366,942.3,1001.1,6438,likertHorizontal
40,2,continuous,11,64,trial,1415741.0,1418208.0,2467.0,61,R,1417498,1417770,274,1023.4,991.3,6700,likertHorizontal
40,2,continuous,11,64,trial,1415741.0,1418208.0,2467.0,61,R,1417818,1418074,258,1334.6,579.3,6774,right
40,2,continuous,11,64,trial,1415741.0,1418208.0,2467.0,61,R,1418096,1418452,358,1336.7,518.0,6426,right
40,2,continuous,12,27,fixationCross,1419475.0,1421875.0,2400.0,62,R,1418724,1418898,176,560.2,493.8,6425,left
40,2,continuous,12,27,fixationCross,1419475.0,1421875.0,2400.0,62,R,1418932,1419188,258,786.0,519.4,6770,NA
40,2,continuous,12,27,trial,1419475.0,1421875.0,2400.0,62,R,1419208,1419610,404,892.1,521.1,6848,NA
40,2,continuous,12,27,trial,1419475.0,1421875.0,2400.0,62,R,1419654,1419788,136,510.5,503.0,6782,left
40,2,continuous,12,27,trial,1419475.0,1421875.0,2400.0,62,R,1419802,1419978,178,481.4,536.7,6662,left
40,2,continuous,12,27,trial,1419475.0,1421875.0,2400.0,62,R,1420044,1420304,262,1504.7,536.0,6174,right
40,2,continuous,12,27,trial,1419475.0,1421875.0,2400.0,62,R,1420316,1420554,240,1474.6,511.0,6041,right
40,2,continuous,12,27,trial,1419475.0,1421875.0,2400.0,62,R,1420640,1420782,144,488.6,565.3,6256,left
40,2,continuous,12,27,trial,1419475.0,1421875.0,2400.0,62,R,1420798,1421038,242,457.7,539.7,6352,left
40,2,continuous,12,27,trial,1419475.0,1421875.0,2400.0,62,R,1421098,1421268,172,761.8,1064.0,6541,likertHorizontal
40,2,continuous,12,27,trial,1419475.0,1421875.0,2400.0,62,R,1421288,1421440,154,721.7,998.5,6619,NA
40,2,continuous,12,27,trial,1419475.0,1421875.0,2400.0,62,R,1421492,1421606,116,518.2,513.8,6626,left
40,2,continuous,12,27,trial,1419475.0,1421875.0,2400.0,62,R,1421668,1421926,260,1451.0,541.0,6598,right
40,2,continuous,12,27,postResponse,1419475.0,1421875.0,2400.0,62,R,1421940,1422212,274,1448.9,513.0,6672,right
40,2,continuous,13,83,fixationCross,1423075.0,1424942.0,1867.0,63,R,1422312,1422404,94,1450.0,516.2,6589,right
40,2,continuous,13,83,fixationCross,1423075.0,1424942.0,1867.0,63,R,1422580,1422772,194,739.4,529.5,6947,NA
40,2,continuous,13,83,trial,1423075.0,1424942.0,1867.0,63,R,1422800,1423248,450,916.6,536.4,7186,NA
40,2,continuous,13,83,trial,1423075.0,1424942.0,1867.0,63,R,1423292,1423568,278,546.4,543.6,7186,left
40,2,continuous,13,83,trial,1423075.0,1424942.0,1867.0,63,R,1423628,1423892,266,1407.6,536.4,6536,right
40,2,continuous,13,83,trial,1423075.0,1424942.0,1867.0,63,R,1423950,1424252,304,1202.1,962.3,6699,NA
40,2,continuous,13,83,trial,1423075.0,1424942.0,1867.0,63,R,1424304,1424598,296,1402.8,513.3,6916,right
40,2,continuous,13,83,trial,1423075.0,1424942.0,1867.0,63,R,1424618,1424742,126,1359.1,457.9,7116,right
40,2,continuous,13,83,trial,1423075.0,1424942.0,1867.0,63,R,1424940,1424996,58,1376.7,484.4,7261,right
40,2,continuous,13,83,postResponse,1423075.0,1424942.0,1867.0,63,R,1425060,1425290,232,499.5,499.0,7551,left
40,2,continuous,14,26,fixationCross,1426208.0,1428542.0,2334.0,64,R,1425390,1425572,184,801.3,479.3,7646,NA
40,2,continuous,14,26,fixationCross,1426208.0,1428542.0,2334.0,64,R,1425586,1425920,336,848.4,503.9,7632,NA
40,2,continuous,14,26,trial,1426208.0,1428542.0,2334.0,64,R,1425942,1426450,510,932.4,540.0,7639,NA
40,2,continuous,14,26,trial,1426208.0,1428542.0,2334.0,64,R,1426496,1426706,212,492.4,479.3,7347,left
40,2,continuous,14,26,trial,1426208.0,1428542.0,2334.0,64,R,1426714,1426846,134,514.3,471.7,7108,left
40,2,continuous,14,26,trial,1426208.0,1428542.0,2334.0,64,R,1426908,1427112,206,1450.8,517.9,6658,right
40,2,continuous,14,26,trial,1426208.0,1428542.0,2334.0,64,R,1427124,1427406,284,1413.4,488.9,6540,right
40,2,continuous,14,26,trial,1426208.0,1428542.0,2334.0,64,R,1427470,1427638,170,528.5,448.3,6845,left
40,2,continuous,14,26,trial,1426208.0,1428542.0,2334.0,64,R,1427806,1427938,134,536.0,874.4,7360,NA
40,2,continuous,14,26,trial,1426208.0,1428542.0,2334.0,64,R,1427958,1428116,160,574.6,961.3,7557,NA
40,2,continuous,14,26,postResponse,1426208.0,1428542.0,2334.0,64,R,1428166,1428890,726,540.7,456.1,7318,left
40,2,continuous,15,50,fixationCross,1429824.0,1432508.0,2684.0,65,R,1428964,1429218,256,533.1,476.0,6857,left
40,2,continuous,15,50,fixationCross,1429824.0,1432508.0,2684.0,65,R,1429402,1429514,114,610.9,546.6,7091,left
40,2,continuous,15,50,trial,1429824.0,1432508.0,2684.0,65,R,1429552,1429980,430,936.7,545.6,7466,NA
40,2,continuous,15,50,trial,1429824.0,1432508.0,2684.0,65,R,1430024,1430190,168,510.2,478.4,7801,left
40,2,continuous,15,50,trial,1429824.0,1432508.0,2684.0,65,R,1430222,1430604,384,371.1,539.1,7352,left
40,2,continuous,15,50,trial,1429824.0,1432508.0,2684.0,65,R,1430626,1430806,182,305.5,481.3,7050,left
40,2,continuous,15,50,trial,1429824.0,1432508.0,2684.0,65,R,1430874,1431106,234,1326.9,592.5,6707,right
40,2,continuous,15,50,trial,1429824.0,1432508.0,2684.0,65,R,1431132,1431556,426,1459.3,647.2,6537,right
40,2,continuous,15,50,trial,1429824.0,1432508.0,2684.0,65,R,1431612,1431738,128,1271.8,991.7,6780,NA
40,2,continuous,15,50,trial,1429824.0,1432508.0,2684.0,65,R,1431756,1431904,150,1183.6,992.9,6863,NA
40,2,continuous,15,50,trial,1429824.0,1432508.0,2684.0,65,R,1431932,1432190,260,974.6,989.9,6998,likertHorizontal
40,2,continuous,15,50,trial,1429824.0,1432508.0,2684.0,65,R,1432344,1432756,414,735.4,456.6,7163,left
40,2,continuous,15,50,postResponse,1429824.0,1432508.0,2684.0,65,R,1432778,1432844,68,843.6,470.7,7296,NA
40,2,continuous,16,77,fixationCross,1433409.0,1435992.0,2583.0,66,R,1432920,1433024,106,846.0,473.8,7271,NA
40,2,continuous,16,77,trial,1433409.0,1435992.0,2583.0,66,R,1433042,1433776,736,915.9,478.7,7460,NA
40,2,continuous,16,77,trial,1433409.0,1435992.0,2583.0,66,R,1433820,1434042,224,1361.0,492.1,7298,right
40,2,continuous,16,77,trial,1433409.0,1435992.0,2583.0,66,R,1434072,1434256,186,1540.4,528.8,7168,right
40,2,continuous,16,77,trial,1433409.0,1435992.0,2583.0,66,R,1434272,1434582,312,1480.0,521.3,7057,right
40,2,continuous,16,77,trial,1433409.0,1435992.0,2583.0,66,R,1434648,1435000,354,558.1,510.4,7044,left
40,2,continuous,16,77,trial,1433409.0,1435992.0,2583.0,66,R,1435060,1435558,500,1332.1,492.3,6624,right
40,2,continuous,16,77,trial,1433409.0,1435992.0,2583.0,66,R,1435588,1435740,154,1499.9,515.7,6667,right
40,2,continuous,16,77,trial,1433409.0,1435992.0,2583.0,66,R,1435754,1436190,438,1446.8,522.4,6787,right
40,2,continuous,17,22,fixationCross,1437208.0,1438958.0,1750.0,67,R,1436490,1436880,392,755.9,506.1,7064,NA
40,2,continuous,17,22,trial,1437208.0,1438958.0,1750.0,67,R,1436900,1437394,496,887.8,516.9,7249,NA
40,2,continuous,17,22,trial,1437208.0,1438958.0,1750.0,67,R,1437442,1437596,156,443.3,473.4,7298,left
40,2,continuous,17,22,trial,1437208.0,1438958.0,1750.0,67,R,1437612,1437738,128,406.4,431.9,6990,left
40,2,continuous,17,22,trial,1437208.0,1438958.0,1750.0,67,R,1437802,1438112,312,1384.3,560.0,6425,right
40,2,continuous,17,22,trial,1437208.0,1438958.0,1750.0,67,R,1438128,1438282,156,1401.4,593.1,6282,right
40,2,continuous,17,22,trial,1437208.0,1438958.0,1750.0,67,R,1438352,1438496,146,440.1,492.3,6559,left
40,2,continuous,17,22,trial,1437208.0,1438958.0,1750.0,67,R,1438516,1439204,690,373.6,449.6,6457,left
40,2,continuous,18,51,fixationCross,1439941.0,1443125.0,3184.0,68,R,1439414,1439418,6,659.8,413.0,6887,left
40,2,continuous,18,51,fixationCross,1439941.0,1443125.0,3184.0,68,R,1439454,1439612,160,635.5,500.3,6735,left
40,2,continuous,18,51,fixationCross,1439941.0,1443125.0,3184.0,68,R,1439648,1439840,194,879.8,553.0,6994,NA
40,2,continuous,18,51,trial,1439941.0,1443125.0,3184.0,68,R,1439854,1440116,264,927.0,540.7,7205,NA
40,2,continuous,18,51,trial,1439941.0,1443125.0,3184.0,68,R,1440164,1440328,166,407.1,463.5,7242,left
40,2,continuous,18,51,trial,1439941.0,1443125.0,3184.0,68,R,1440344,1440540,198,360.6,467.1,6830,left
40,2,continuous,18,51,trial,1439941.0,1443125.0,3184.0,68,R,1440604,1440904,302,1282.3,521.2,6122,right
40,2,continuous,18,51,trial,1439941.0,1443125.0,3184.0,68,R,1440932,1441166,236,1446.4,498.7,5883,right
40,2,continuous,18,51,trial,1439941.0,1443125.0,3184.0,68,R,1441228,1441348,122,1290.4,982.9,6080,NA
40,2,continuous,18,51,trial,1439941.0,1443125.0,3184.0,68,R,1441362,1441494,134,1243.6,992.5,6119,NA
40,2,continuous,18,51,trial,1439941.0,1443125.0,3184.0,68,R,1441548,1441862,316,1443.6,478.5,6130,right
40,2,continuous,18,51,trial,1439941.0,1443125.0,3184.0,68,R,1441888,1442070,184,1596.4,510.0,6169,right
40,2,continuous,18,51,trial,1439941.0,1443125.0,3184.0,68,R,1442138,1443240,1104,935.8,961.6,6849,likertHorizontal
40,2,continuous,19,68,fixationCross,1444025.0,1448376.0,4351.0,69,R,1443534,1443930,398,901.3,490.5,7243,NA
40,2,continuous,19,68,trial,1444025.0,1448376.0,4351.0,69,R,1443944,1444186,244,929.3,537.2,7181,NA
40,2,continuous,19,68,trial,1444025.0,1448376.0,4351.0,69,R,1444228,1444432,206,555.8,471.3,6883,left
40,2,continuous,19,68,trial,1444025.0,1448376.0,4351.0,69,R,1444454,1444710,258,515.7,539.8,6376,left
40,2,continuous,19,68,trial,1444025.0,1448376.0,4351.0,69,R,1444748,1444976,230,289.0,616.2,5950,left
40,2,continuous,19,68,trial,1444025.0,1448376.0,4351.0,69,R,1445012,1445080,70,526.7,498.3,5767,left
40,2,continuous,19,68,trial,1444025.0,1448376.0,4351.0,69,R,1445138,1445446,310,1362.4,548.9,5470,right
40,2,continuous,19,68,trial,1444025.0,1448376.0,4351.0,69,R,1445530,1445684,156,589.1,953.2,5938,NA
40,2,continuous,19,68,trial,1444025.0,1448376.0,4351.0,69,R,1445746,1445956,212,1440.4,659.3,6032,right
40,2,continuous,19,68,trial,1444025.0,1448376.0,4351.0,69,R,1445980,1446140,162,1436.8,584.5,6175,right
40,2,continuous,19,68,trial,1444025.0,1448376.0,4351.0,69,R,1446152,1446264,114,1401.5,597.5,6251,right
40,2,continuous,19,68,trial,1444025.0,1448376.0,4351.0,69,R,1446328,1446698,372,494.5,496.5,6453,left
40,2,continuous,19,68,trial,1444025.0,1448376.0,4351.0,69,R,1446712,1447074,364,517.0,523.2,6062,left
40,2,continuous,19,68,trial,1444025.0,1448376.0,4351.0,69,R,1447134,1447426,294,943.6,993.6,6031,likertHorizontal
40,2,continuous,19,68,trial,1444025.0,1448376.0,4351.0,69,R,1447436,1447582,148,907.6,1001.4,6157,likertHorizontal
40,2,continuous,19,68,trial,1444025.0,1448376.0,4351.0,69,R,1447606,1447732,128,1046.6,982.3,6361,likertHorizontal
40,2,continuous,19,68,trial,1444025.0,1448376.0,4351.0,69,R,1447778,1448204,428,1406.5,615.0,6556,right
40,2,continuous,19,68,trial,1444025.0,1448376.0,4351.0,69,R,1448226,1448548,324,1479.9,594.1,6686,right
40,2,continuous,20,17,fixationCross,1449358.0,1451642.0,2284.0,70,R,1448784,1449032,250,689.5,422.2,6621,left
40,2,continuous,20,17,fixationCross,1449358.0,1451642.0,2284.0,70,R,1449066,1449348,284,885.7,479.0,6867,NA
40,2,continuous,20,17,trial,1449358.0,1451642.0,2284.0,70,R,1449368,1449514,148,897.4,525.5,6762,NA
40,2,continuous,20,17,trial,1449358.0,1451642.0,2284.0,70,R,1449556,1449822,268,518.2,535.3,6729,left
40,2,continuous,20,17,trial,1449358.0,1451642.0,2284.0,70,R,1449856,1450140,286,357.1,415.3,6354,left
40,2,continuous,20,17,trial,1449358.0,1451642.0,2284.0,70,R,1450152,1450336,186,398.0,419.5,6120,left
40,2,continuous,20,17,trial,1449358.0,1451642.0,2284.0,70,R,1450400,1450748,350,1353.9,522.2,5887,right
40,2,continuous,20,17,trial,1449358.0,1451642.0,2284.0,70,R,1450812,1450938,128,715.4,971.9,6205,NA
40,2,continuous,20,17,trial,1449358.0,1451642.0,2284.0,70,R,1450964,1451064,102,573.4,990.1,6258,NA
40,2,continuous,20,17,trial,1449358.0,1451642.0,2284.0,70,R,1451118,1451322,206,365.2,404.3,6214,left
40,2,continuous,20,17,trial,1449358.0,1451642.0,2284.0,70,R,1451342,1451604,264,286.7,410.7,6377,left
40,2,continuous,20,17,trial,1449358.0,1451642.0,2284.0,70,R,1451634,1451806,174,525.2,397.7,6457,left
40,2,continuous,21,54,fixationCross,1452908.0,1455859.0,2951.0,71,R,1452052,1452292,242,651.2,567.4,6882,left
40,2,continuous,21,54,fixationCross,1452908.0,1455859.0,2951.0,71,R,1452314,1452616,304,755.3,537.8,7206,NA
40,2,continuous,21,54,trial,1452908.0,1455859.0,2951.0,71,R,1452646,1453062,418,926.4,523.7,7471,NA
40,2,continuous,21,54,trial,1452908.0,1455859.0,2951.0,71,R,1453106,1453318,214,488.2,467.5,7600,left
40,2,continuous,21,54,trial,1452908.0,1455859.0,2951.0,71,R,1453382,1453606,226,1438.5,534.6,6873,right
40,2,continuous,21,54,trial,1452908.0,1455859.0,2951.0,71,R,1453620,1453992,374,1455.6,494.4,6344,right
40,2,continuous,21,54,trial,1452908.0,1455859.0,2951.0,71,R,1454048,1454170,124,1233.2,904.6,6272,NA
40,2,continuous,21,54,trial,1452908.0,1455859.0,2951.0,71,R,1454188,1454292,106,1266.0,965.2,6270,NA
40,2,continuous,21,54,trial,1452908.0,1455859.0,2951.0,71,R,1454356,1454958,604,439.7,557.0,6478,left
40,2,continuous,21,54,trial,1452908.0,1455859.0,2951.0,71,R,1454976,1455264,290,494.7,534.3,6593,left
40,2,continuous,21,54,trial,1452908.0,1455859.0,2951.0,71,R,1455324,1455614,292,962.1,946.3,6739,likertHorizontal
40,2,continuous,21,54,trial,1452908.0,1455859.0,2951.0,71,R,1455624,1455898,276,968.3,967.6,7028,likertHorizontal
40,2,continuous,21,54,trial,1452908.0,1455859.0,2951.0,71,R,1456054,1456108,56,632.5,554.7,7189,left
40,2,continuous,22,20,fixationCross,1458642.0,1459825.0,1183.0,72,R,1456274,1456596,324,670.0,530.7,7298,left
40,2,continuous,22,20,fixationCross,1458642.0,1459825.0,1183.0,72,R,1456622,1457196,576,840.9,517.7,7637,NA
40,2,continuous,22,20,fixationCross,1458642.0,1459825.0,1183.0,72,R,1457356,1457670,316,857.3,498.7,7985,NA
40,2,continuous,22,20,trial,1458642.0,1459825.0,1183.0,72,R,1457680,1458890,1212,866.5,484.7,8116,NA
40,2,continuous,22,20,trial,1458642.0,1459825.0,1183.0,72,R,1458936,1459206,272,469.1,482.4,7864,left
40,2,continuous,22,20,trial,1458642.0,1459825.0,1183.0,72,R,1459270,1459416,148,1297.8,541.9,7185,right
40,2,continuous,22,20,trial,1458642.0,1459825.0,1183.0,72,R,1459476,1460026,552,445.1,525.4,6952,left
40,2,continuous,23,27,fixationCross,1461342.0,1462892.0,1550.0,73,R,1460248,1460258,12,510.4,456.4,6943,left
40,2,continuous,23,27,fixationCross,1461342.0,1462892.0,1550.0,73,R,1460274,1460872,600,501.1,492.5,6987,left
40,2,continuous,23,27,fixationCross,1461342.0,1462892.0,1550.0,73,R,1460886,1461034,150,448.3,491.0,7135,left
40,2,continuous,23,27,trial,1461342.0,1462892.0,1550.0,73,R,1461078,1461526,450,941.8,539.0,6955,NA
40,2,continuous,23,27,trial,1461342.0,1462892.0,1550.0,73,R,1461574,1461704,132,446.3,484.9,7063,left
40,2,continuous,23,27,trial,1461342.0,1462892.0,1550.0,73,R,1461720,1461944,226,444.0,437.5,6766,left
40,2,continuous,23,27,trial,1461342.0,1462892.0,1550.0,73,R,1462010,1462308,300,1434.8,552.0,5979,right
40,2,continuous,23,27,trial,1461342.0,1462892.0,1550.0,73,R,1462376,1462522,148,442.3,468.9,6015,left
40,2,continuous,23,27,postResponse,1461342.0,1462892.0,1550.0,73,R,1462538,1463228,692,417.4,437.3,6003,left
40,2,continuous,24,81,fixationCross,1464125.0,1466558.0,2433.0,74,R,1463328,1463496,170,414.4,431.6,5733,left
40,2,continuous,24,81,fixationCross,1464125.0,1466558.0,2433.0,74,R,1463512,1463802,292,470.1,423.5,5970,left
40,2,continuous,24,81,trial,1464125.0,1466558.0,2433.0,74,R,1463850,1464126,278,923.3,533.9,6309,NA
40,2,continuous,24,81,trial,1464125.0,1466558.0,2433.0,74,R,1464144,1464274,132,874.9,536.6,6444,NA
40,2,continuous,24,81,trial,1464125.0,1466558.0,2433.0,74,R,1464314,1464472,160,522.2,500.1,6501,left
40,2,continuous,24,81,trial,1464125.0,1466558.0,2433.0,74,R,1464490,1464686,198,592.2,465.3,6180,left
40,2,continuous,24,81,trial,1464125.0,1466558.0,2433.0,74,R,1464746,1464948,204,1410.8,572.5,5673,right
40,2,continuous,24,81,trial,1464125.0,1466558.0,2433.0,74,R,1464960,1465638,680,1404.2,537.0,5385,right
40,2,continuous,24,81,trial,1464125.0,1466558.0,2433.0,74,R,1465700,1465874,176,614.8,495.2,5551,left
40,2,continuous,24,81,trial,1464125.0,1466558.0,2433.0,74,R,1465892,1466036,146,566.8,500.0,5662,left
40,2,continuous,24,81,trial,1464125.0,1466558.0,2433.0,74,R,1466068,1466266,200,420.0,608.5,5769,left
40,2,continuous,24,81,trial,1464125.0,1466558.0,2433.0,74,R,1466336,1466526,192,1288.1,983.0,6011,NA
40,2,continuous,24,81,trial,1464125.0,1466558.0,2433.0,74,R,1466674,1466748,76,541.9,518.2,6222,left
40,2,continuous,25,99,fixationCross,1467659.0,1470443.0,2784.0,75,R,1466986,1467206,222,1036.3,600.1,6427,NA
40,2,continuous,25,99,fixationCross,1467659.0,1470443.0,2784.0,75,R,1467242,1467458,218,817.5,515.4,6754,NA
40,2,continuous,25,99,trial,1467659.0,1470443.0,2784.0,75,R,1467484,1467826,344,934.2,534.4,6844,NA
40,2,continuous,25,99,trial,1467659.0,1470443.0,2784.0,75,R,1467876,1468044,170,384.7,466.2,6858,left
40,2,continuous,25,99,trial,1467659.0,1470443.0,2784.0,75,R,1468058,1468268,212,355.8,443.4,6486,left
40,2,continuous,25,99,trial,1467659.0,1470443.0,2784.0,75,R,1468332,1468552,222,1361.5,491.1,5879,right
40,2,continuous,25,99,trial,1467659.0,1470443.0,2784.0,75,R,1468568,1468918,352,1391.7,529.7,5810,right
40,2,continuous,25,99,trial,1467659.0,1470443.0,2784.0,75,R,1468974,1469128,156,1138.4,884.1,6396,likertHorizontal
40,2,continuous,25,99,trial,1467659.0,1470443.0,2784.0,75,R,1469148,1469298,152,1084.4,950.9,6618,likertHorizontal
40,2,continuous,25,99,trial,1467659.0,1470443.0,2784.0,75,R,1469324,1469516,194,1226.2,955.1,6780,NA
40,2,continuous,25,99,trial,1467659.0,1470443.0,2784.0,75,R,1469578,1469850,274,430.0,629.0,7038,left
40,2,continuous,25,99,trial,1467659.0,1470443.0,2784.0,75,R,1469880,1470052,174,409.6,505.5,6805,left
40,2,continuous,25,99,trial,1467659.0,1470443.0,2784.0,75,R,1470126,1470244,120,1357.2,1034.8,6504,NA
40,2,continuous,25,99,trial,1467659.0,1470443.0,2784.0,75,R,1470262,1470478,218,1427.6,991.0,6271,NA
40,2,continuous,25,99,postResponse,1467659.0,1470443.0,2784.0,75,R,1470618,1470776,160,298.1,440.4,6444,left
40,2,continuous,26,79,fixationCross,1491659.0,1493993.0,2334.0,76,R,1490938,1491184,248,122.5,29.8,6808,NA
40,2,continuous,26,79,fixationCross,1491659.0,1493993.0,2334.0,76,R,1491220,1491328,110,289.0,140.5,6437,NA
40,2,continuous,26,79,fixationCross,1491659.0,1493993.0,2334.0,76,R,1491386,1491558,174,971.2,597.0,6521,NA
40,2,continuous,26,79,trial,1491659.0,1493993.0,2334.0,76,R,1491570,1491812,244,932.8,556.0,6721,NA
40,2,continuous,26,79,trial,1491659.0,1493993.0,2334.0,76,R,1491866,1492042,178,482.1,531.4,7141,left
40,2,continuous,26,79,trial,1491659.0,1493993.0,2334.0,76,R,1492094,1492186,94,529.2,869.7,7270,NA
40,2,continuous,26,79,trial,1491659.0,1493993.0,2334.0,76,R,1492248,1492506,260,1455.2,536.6,6722,right
40,2,continuous,26,79,trial,1491659.0,1493993.0,2334.0,76,R,1492528,1492784,258,1415.5,611.1,6698,right
40,2,continuous,26,79,trial,1491659.0,1493993.0,2334.0,76,R,1492850,1493064,216,469.1,513.3,6977,left
40,2,continuous,26,79,trial,1491659.0,1493993.0,2334.0,76,R,1493118,1493282,166,999.3,937.9,7061,likertHorizontal
40,2,continuous,26,79,trial,1491659.0,1493993.0,2334.0,76,R,1493296,1493574,280,986.7,988.4,6921,likertHorizontal
40,2,continuous,26,79,trial,1491659.0,1493993.0,2334.0,76,R,1493600,1493748,150,1152.7,976.6,6918,likertHorizontal
40,2,continuous,26,79,trial,1491659.0,1493993.0,2334.0,76,R,1493800,1493876,78,1439.4,601.3,6774,right
40,2,continuous,26,79,trial,1491659.0,1493993.0,2334.0,76,R,1494002,1494168,168,1449.6,549.5,6765,right
40,2,continuous,27,60,fixationCross,1495209.0,1497609.0,2400.0,77,R,1494440,1494656,218,609.4,446.5,6952,left
40,2,continuous,27,60,fixationCross,1495209.0,1497609.0,2400.0,77,R,1494678,1494900,224,698.1,488.5,7203,left
40,2,continuous,27,60,fixationCross,1495209.0,1497609.0,2400.0,77,R,1494926,1495056,132,883.7,536.3,7328,NA
40,2,continuous,27,60,trial,1495209.0,1497609.0,2400.0,77,R,1495070,1495352,284,931.7,550.6,7385,NA
40,2,continuous,27,60,trial,1495209.0,1497609.0,2400.0,77,R,1495396,1495560,166,494.0,544.9,7491,left
40,2,continuous,27,60,trial,1495209.0,1497609.0,2400.0,77,R,1495582,1495686,106,482.3,627.1,7402,left
40,2,continuous,27,60,trial,1495209.0,1497609.0,2400.0,77,R,1495746,1496022,278,1389.5,590.8,6846,right
40,2,continuous,27,60,trial,1495209.0,1497609.0,2400.0,77,R,1496034,1496614,582,1409.7,608.0,6453,right
40,2,continuous,27,60,trial,1495209.0,1497609.0,2400.0,77,R,1496684,1497046,364,421.0,587.3,6403,left
40,2,continuous,27,60,trial,1495209.0,1497609.0,2400.0,77,R,1497106,1497320,216,1080.2,941.5,6291,likertHorizontal
40,2,continuous,27,60,trial,1495209.0,1497609.0,2400.0,77,R,1497440,1497796,358,480.3,648.0,6393,left
40,2,continuous,28,20,fixationCross,1498509.0,1502776.0,4267.0,78,R,1498022,1498170,150,765.6,400.8,6312,NA
40,2,continuous,28,20,trial,1498509.0,1502776.0,4267.0,78,R,1498208,1498664,458,944.1,541.9,6760,NA
40,2,continuous,28,20,trial,1498509.0,1502776.0,4267.0,78,R,1498704,1498912,210,576.1,536.8,7040,left
40,2,continuous,28,20,trial,1498509.0,1502776.0,4267.0,78,R,1498928,1499106,180,577.3,490.4,6682,left
40,2,continuous,28,20,trial,1498509.0,1502776.0,4267.0,78,R,1499160,1499404,246,1307.9,540.8,5981,right
40,2,continuous,28,20,trial,1498509.0,1502776.0,4267.0,78,R,1499432,1499664,234,1517.4,552.3,5635,right
40,2,continuous,28,20,trial,1498509.0,1502776.0,4267.0,78,R,1499730,1499904,176,602.5,524.0,5923,left
40,2,continuous,28,20,trial,1498509.0,1502776.0,4267.0,78,R,1499920,1500094,176,553.8,493.0,5989,left
40,2,continuous,28,20,trial,1498509.0,1502776.0,4267.0,78,R,1500150,1500266,118,898.5,946.1,6088,likertHorizontal
40,2,continuous,28,20,trial,1498509.0,1502776.0,4267.0,78,R,1500282,1500546,266,901.1,988.2,6111,likertHorizontal
40,2,continuous,28,20,trial,1498509.0,1502776.0,4267.0,78,R,1500558,1500892,336,940.1,983.1,6469,likertHorizontal
40,2,continuous,28,20,trial,1498509.0,1502776.0,4267.0,78,R,1501042,1501340,300,1324.5,560.4,6614,right
40,2,continuous,28,20,trial,1498509.0,1502776.0,4267.0,78,R,1501364,1501452,90,1248.1,494.5,6742,right
40,2,continuous,28,20,trial,1498509.0,1502776.0,4267.0,78,R,1501512,1501688,178,538.4,468.3,6820,left
40,2,continuous,28,20,trial,1498509.0,1502776.0,4267.0,78,R,1501702,1501912,212,577.5,486.2,6595,left
40,2,continuous,28,20,trial,1498509.0,1502776.0,4267.0,78,R,1501928,1502318,392,613.3,526.4,6185,left
40,2,continuous,28,20,trial,1498509.0,1502776.0,4267.0,78,R,1502370,1502538,170,582.1,945.2,6214,NA
40,2,continuous,28,20,trial,1498509.0,1502776.0,4267.0,78,R,1502554,1502770,218,626.7,988.4,6410,NA
40,2,continuous,28,20,trial,1498509.0,1502776.0,4267.0,78,R,1502824,1502854,32,721.3,508.6,6514,left
40,2,continuous,28,20,trial,1498509.0,1502776.0,4267.0,78,R,1502896,1502952,58,1195.4,543.7,6514,right
40,2,continuous,29,77,fixationCross,1504693.0,1506309.0,1616.0,79,R,1503188,1503340,154,974.5,490.1,6769,NA
40,2,continuous,29,77,fixationCross,1504693.0,1506309.0,1616.0,79,R,1503402,1503586,186,408.5,510.0,7045,left
40,2,continuous,29,77,fixationCross,1504693.0,1506309.0,1616.0,79,R,1503628,1503976,350,858.6,531.0,7252,NA
40,2,continuous,29,77,fixationCross,1504693.0,1506309.0,1616.0,79,R,1504018,1504166,150,571.5,482.6,7300,left
40,2,continuous,29,77,fixationCross,1504693.0,1506309.0,1616.0,79,R,1504380,1504532,154,658.7,498.1,7414,left
40,2,continuous,29,77,trial,1504693.0,1506309.0,1616.0,79,R,1504566,1504854,290,920.0,515.9,7510,NA
40,2,continuous,29,77,trial,1504693.0,1506309.0,1616.0,79,R,1504900,1505348,450,477.5,513.7,7105,left
40,2,continuous,29,77,trial,1504693.0,1506309.0,1616.0,79,R,1505414,1505592,180,1333.1,554.1,6184,right
40,2,continuous,29,77,trial,1504693.0,1506309.0,1616.0,79,R,1505644,1505946,304,1180.5,954.6,6199,likertHorizontal
40,2,continuous,29,77,trial,1504693.0,1506309.0,1616.0,79,R,1506008,1506230,224,412.6,581.3,6440,left
40,2,continuous,29,77,postResponse,1504693.0,1506309.0,1616.0,79,R,1506294,1506644,352,1376.2,549.5,6499,right
40,2,continuous,30,16,fixationCross,1507609.0,1509643.0,2034.0,80,R,1506876,1507284,410,762.8,469.4,7060,NA
40,2,continuous,30,16,trial,1507609.0,1509643.0,2034.0,80,R,1507312,1507796,486,923.6,528.8,7326,NA
40,2,continuous,30,16,trial,1507609.0,1509643.0,2034.0,80,R,1507844,1507974,132,428.2,477.2,7229,left
40,2,continuous,30,16,trial,1507609.0,1509643.0,2034.0,80,R,1508000,1508208,210,334.4,399.1,6798,left
40,2,continuous,30,16,trial,1507609.0,1509643.0,2034.0,80,R,1508246,1508414,170,480.7,578.8,6467,left
40,2,continuous,30,16,trial,1507609.0,1509643.0,2034.0,80,R,1508430,1508608,180,518.7,619.4,6310,left
40,2,continuous,30,16,trial,1507609.0,1509643.0,2034.0,80,R,1508650,1508870,222,322.0,398.0,6222,left
40,2,continuous,30,16,trial,1507609.0,1509643.0,2034.0,80,R,1508934,1509298,366,1349.4,503.6,6185,right
40,2,continuous,30,16,trial,1507609.0,1509643.0,2034.0,80,R,1509368,1509498,132,355.9,408.1,6458,left
40,2,continuous,30,16,trial,1507609.0,1509643.0,2034.0,80,R,1509512,1509854,344,329.5,399.3,6467,left
40,2,continuous,31,96,fixationCross,1510826.0,1513093.0,2267.0,81,R,1510072,1510244,174,349.1,423.9,6365,left
40,2,continuous,31,96,fixationCross,1510826.0,1513093.0,2267.0,81,R,1510286,1510508,224,612.6,507.7,6684,left
40,2,continuous,31,96,trial,1510826.0,1513093.0,2267.0,81,R,1510542,1510960,420,916.5,522.1,7044,NA
40,2,continuous,31,96,trial,1510826.0,1513093.0,2267.0,81,R,1511016,1511256,242,435.7,505.0,7175,left
40,2,continuous,31,96,trial,1510826.0,1513093.0,2267.0,81,R,1511268,1511524,258,446.4,565.7,6586,left
40,2,continuous,31,96,trial,1510826.0,1513093.0,2267.0,81,R,1511540,1511692,154,514.7,582.0,6222,left
40,2,continuous,31,96,trial,1510826.0,1513093.0,2267.0,81,R,1511752,1511972,222,1352.8,590.9,5785,right
40,2,continuous,31,96,trial,1510826.0,1513093.0,2267.0,81,R,1511988,1512518,532,1391.0,626.3,5792,right
40,2,continuous,31,96,trial,1510826.0,1513093.0,2267.0,81,R,1512568,1512744,178,1461.8,950.8,6138,NA
40,2,continuous,31,96,trial,1510826.0,1513093.0,2267.0,81,R,1512758,1513056,300,1399.5,966.6,6477,NA
40,2,continuous,31,96,trial,1510826.0,1513093.0,2267.0,81,R,1513110,1513290,182,1348.8,515.5,6661,right
40,2,continuous,32,28,fixationCross,1514626.0,1518059.0,3433.0,82,R,1513514,1513716,204,935.8,423.6,6678,NA
40,2,continuous,32,28,fixationCross,1514626.0,1518059.0,3433.0,82,R,1513754,1513976,224,694.5,485.0,6969,left
40,2,continuous,32,28,fixationCross,1514626.0,1518059.0,3433.0,82,R,1514002,1514534,534,864.1,543.0,6916,NA
40,2,continuous,32,28,trial,1514626.0,1518059.0,3433.0,82,R,1514546,1514772,228,926.4,546.0,6724,NA
40,2,continuous,32,28,trial,1514626.0,1518059.0,3433.0,82,R,1514818,1514978,162,450.9,529.1,6717,left
40,2,continuous,32,28,trial,1514626.0,1518059.0,3433.0,82,R,1514996,1515168,174,502.8,571.2,6448,left
40,2,continuous,32,28,trial,1514626.0,1518059.0,3433.0,82,R,1515190,1515632,444,425.8,641.2,6094,left
40,2,continuous,32,28,trial,1514626.0,1518059.0,3433.0,82,R,1515700,1515836,138,1497.6,429.7,5770,right
40,2,continuous,32,28,trial,1514626.0,1518059.0,3433.0,82,R,1515852,1516352,502,1414.5,446.8,5951,right
40,2,continuous,32,28,trial,1514626.0,1518059.0,3433.0,82,R,1516424,1516604,182,897.0,1012.7,6649,likertHorizontal
40,2,continuous,32,28,trial,1514626.0,1518059.0,3433.0,82,R,1516618,1516938,322,941.3,980.6,6712,likertHorizontal
40,2,continuous,32,28,trial,1514626.0,1518059.0,3433.0,82,R,1516956,1517154,200,868.8,974.8,6873,likertHorizontal
40,2,continuous,32,28,trial,1514626.0,1518059.0,3433.0,82,R,1517204,1517452,250,464.8,603.3,7056,left
40,2,continuous,32,28,trial,1514626.0,1518059.0,3433.0,82,R,1517472,1517678,208,515.2,546.4,7030,left
40,2,continuous,32,28,trial,1514626.0,1518059.0,3433.0,82,R,1517698,1517850,154,441.7,599.3,6839,left
40,2,continuous,32,28,trial,1514626.0,1518059.0,3433.0,82,R,1517874,1518262,390,471.5,663.7,6752,left
40,2,continuous,33,4,fixationCross,1519676.0,1521942.0,2266.0,83,R,1518480,1518784,306,630.9,499.3,6837,left
40,2,continuous,33,4,fixationCross,1519676.0,1521942.0,2266.0,83,R,1518818,1519068,252,811.3,507.5,7059,NA
40,2,continuous,33,4,fixationCross,1519676.0,1521942.0,2266.0,83,R,1519102,1519326,226,604.3,513.7,6945,left
40,2,continuous,33,4,fixationCross,1519676.0,1521942.0,2266.0,83,R,1519366,1519630,266,884.3,540.3,6908,NA
40,2,continuous,33,4,trial,1519676.0,1521942.0,2266.0,83,R,1519674,1519922,250,577.3,529.0,6883,left
40,2,continuous,33,4,trial,1519676.0,1521942.0,2266.0,83,R,1519940,1520086,148,501.6,537.8,6723,left
40,2,continuous,33,4,trial,1519676.0,1521942.0,2266.0,83,R,1520146,1520348,204,1385.0,553.5,6097,right
40,2,continuous,33,4,trial,1519676.0,1521942.0,2266.0,83,R,1520366,1520738,374,1438.1,567.4,5816,right
40,2,continuous,33,4,postResponse,1519676.0,1521942.0,2266.0,83,R,1520808,1522286,1480,494.7,540.9,5826,left
40,2,continuous,34,90,fixationCross,1523759.0,1525877.0,2118.0,84,R,1522552,1522704,154,485.7,505.5,6616,left
40,2,continuous,34,90,fixationCross,1523759.0,1525877.0,2118.0,84,R,1522744,1523014,272,846.9,530.6,6858,NA
40,2,continuous,34,90,fixationCross,1523759.0,1525877.0,2118.0,84,R,1523060,1523298,240,497.1,524.8,7005,left
40,2,continuous,34,90,fixationCross,1523759.0,1525877.0,2118.0,84,R,1523312,1523434,124,514.1,512.3,6853,left
40,2,continuous,34,90,trial,1523759.0,1525877.0,2118.0,84,R,1523476,1523902,428,920.7,545.2,6792,NA
40,2,continuous,34,90,trial,1523759.0,1525877.0,2118.0,84,R,1523948,1524232,286,455.2,538.8,6839,left
40,2,continuous,34,90,trial,1523759.0,1525877.0,2118.0,84,R,1524292,1524622,332,1363.2,535.0,6089,right
40,2,continuous,34,90,trial,1523759.0,1525877.0,2118.0,84,R,1524632,1524668,38,1383.3,548.5,5872,right
40,2,continuous,34,90,trial,1523759.0,1525877.0,2118.0,84,R,1524732,1525106,376,497.6,558.4,6034,left
40,2,continuous,34,90,trial,1523759.0,1525877.0,2118.0,84,R,1525126,1525294,170,405.7,529.1,5984,left
40,2,continuous,34,90,trial,1523759.0,1525877.0,2118.0,84,R,1525368,1525554,188,1331.3,938.2,5908,NA
40,2,continuous,34,90,trial,1523759.0,1525877.0,2118.0,84,R,1525602,1525818,218,1454.8,533.2,5849,right
40,2,continuous,34,90,trial,1523759.0,1525877.0,2118.0,84,R,1525890,1526112,224,383.2,558.1,6461,left
40,2,continuous,35,4,fixationCross,1527143.0,1529043.0,1900.0,85,R,1526310,1526466,158,327.1,452.8,6455,left
40,2,continuous,35,4,fixationCross,1527143.0,1529043.0,1900.0,85,R,1526490,1526646,158,214.1,481.7,6556,NA
40,2,continuous,35,4,fixationCross,1527143.0,1529043.0,1900.0,85,R,1526698,1526832,136,822.5,549.6,6803,NA
40,2,continuous,35,4,trial,1527143.0,1529043.0,1900.0,85,R,1526856,1527300,446,904.1,540.5,6804,NA
40,2,continuous,35,4,trial,1527143.0,1529043.0,1900.0,85,R,1527346,1527810,466,454.0,529.6,6703,left
40,2,continuous,35,4,trial,1527143.0,1529043.0,1900.0,85,R,1527870,1528168,300,1321.7,588.5,5909,right
40,2,continuous,35,4,trial,1527143.0,1529043.0,1900.0,85,R,1528182,1528420,240,1283.8,622.4,5768,right
40,2,continuous,35,4,trial,1527143.0,1529043.0,1900.0,85,R,1528486,1528664,180,547.9,951.3,6072,NA
40,2,continuous,35,4,trial,1527143.0,1529043.0,1900.0,85,R,1528710,1529250,542,439.5,518.4,6132,left
40,2,continuous,36,91,fixationCross,1530260.0,1532026.0,1766.0,86,R,1529650,1529694,46,689.7,582.8,6173,left
40,2,continuous,36,91,fixationCross,1530260.0,1532026.0,1766.0,86,R,1529836,1529944,110,707.3,536.6,6527,left
40,2,continuous,36,91,trial,1530260.0,1532026.0,1766.0,86,R,1529974,1530400,428,922.0,540.8,6853,NA
40,2,continuous,36,91,trial,1530260.0,1532026.0,1766.0,86,R,1530454,1530636,184,493.8,504.0,6864,left
40,2,continuous,36,91,trial,1530260.0,1532026.0,1766.0,86,R,1530694,1530954,262,1374.4,567.4,6245,right
40,2,continuous,36,91,trial,1530260.0,1532026.0,1766.0,86,R,1530974,1531320,348,1445.1,566.0,5891,right
40,2,continuous,36,91,trial,1530260.0,1532026.0,1766.0,86,R,1531340,1531490,152,1460.9,638.3,5827,right
40,2,continuous,36,91,trial,1530260.0,1532026.0,1766.0,86,R,1531536,1531732,198,1326.3,952.3,6039,NA
40,2,continuous,36,91,trial,1530260.0,1532026.0,1766.0,86,R,1531746,1531922,178,1356.6,965.7,6283,NA
40,2,continuous,36,91,trial,1530260.0,1532026.0,1766.0,86,R,1531972,1532094,124,1101.0,671.8,6604,NA
40,2,continuous,36,91,postResponse,1530260.0,1532026.0,1766.0,86,R,1532130,1532362,234,1345.3,560.6,6746,right
40,2,continuous,37,50,fixationCross,1533226.0,1536510.0,3284.0,87,R,1532470,1532656,188,655.7,505.0,7245,left
40,2,continuous,37,50,fixationCross,1533226.0,1536510.0,3284.0,87,R,1532808,1532938,132,847.8,515.4,7385,NA
40,2,continuous,37,50,trial,1533226.0,1536510.0,3284.0,87,R,1532960,1533268,310,937.2,519.9,7312,NA
40,2,continuous,37,50,trial,1533226.0,1536510.0,3284.0,87,R,1533292,1533440,150,813.7,536.0,7367,NA
40,2,continuous,37,50,trial,1533226.0,1536510.0,3284.0,87,R,1533480,1533622,144,537.4,511.6,7251,left
40,2,continuous,37,50,trial,1533226.0,1536510.0,3284.0,87,R,1533684,1533968,286,1353.6,519.2,6580,right
40,2,continuous,37,50,trial,1533226.0,1536510.0,3284.0,87,R,1533986,1534102,118,1280.8,514.0,6322,right
40,2,continuous,37,50,trial,1533226.0,1536510.0,3284.0,87,R,1534142,1534376,236,1615.6,639.8,6188,right
40,2,continuous,37,50,trial,1533226.0,1536510.0,3284.0,87,R,1534394,1534476,84,1547.7,592.0,6227,right
40,2,continuous,37,50,trial,1533226.0,1536510.0,3284.0,87,R,1534550,1534924,376,427.4,568.8,6561,left
40,2,continuous,37,50,trial,1533226.0,1536510.0,3284.0,87,R,1534948,1535224,278,590.9,523.8,6523,left
40,2,continuous,37,50,trial,1533226.0,1536510.0,3284.0,87,R,1535280,1535590,312,896.2,982.6,6506,likertHorizontal
40,2,continuous,37,50,trial,1533226.0,1536510.0,3284.0,87,R,1535606,1536680,1076,951.9,958.4,6993,likertHorizontal
40,2,continuous,38,63,fixationCross,1537726.0,1541026.0,3300.0,88,R,1536918,1537158,242,591.4,461.0,7396,left
40,2,continuous,38,63,fixationCross,1537726.0,1541026.0,3300.0,88,R,1537182,1537424,244,754.1,459.5,7446,NA
40,2,continuous,38,63,trial,1537726.0,1541026.0,3300.0,88,R,1537452,1537866,416,929.9,549.2,7145,NA
40,2,continuous,38,63,trial,1537726.0,1541026.0,3300.0,88,R,1537912,1538156,246,500.6,527.7,7069,left
40,2,continuous,38,63,trial,1537726.0,1541026.0,3300.0,88,R,1538222,1538400,180,1395.4,543.6,6606,right
40,2,continuous,38,63,trial,1537726.0,1541026.0,3300.0,88,R,1538422,1538630,210,1462.6,559.2,6354,right
40,2,continuous,38,63,trial,1537726.0,1541026.0,3300.0,88,R,1538652,1538898,248,1352.0,589.8,6481,right
40,2,continuous,38,63,trial,1537726.0,1541026.0,3300.0,88,R,1538960,1539170,212,534.4,516.4,6897,left
40,2,continuous,38,63,trial,1537726.0,1541026.0,3300.0,88,R,1539186,1539844,660,533.1,473.3,6834,left
40,2,continuous,38,63,trial,1537726.0,1541026.0,3300.0,88,R,1540024,1540094,72,934.2,1030.2,7193,likertHorizontal
40,2,continuous,38,63,trial,1537726.0,1541026.0,3300.0,88,R,1540110,1540450,342,935.6,985.5,7410,likertHorizontal
40,2,continuous,38,63,trial,1537726.0,1541026.0,3300.0,88,R,1540466,1540814,350,997.3,951.8,7675,likertHorizontal
40,2,continuous,38,63,trial,1537726.0,1541026.0,3300.0,88,R,1540830,1541008,180,1070.8,945.4,7802,likertHorizontal
40,2,continuous,38,63,trial,1537726.0,1541026.0,3300.0,88,R,1541058,1541238,182,1405.7,516.5,7659,right
40,2,continuous,39,49,fixationCross,1542226.0,1544626.0,2400.0,89,R,1541434,1541630,198,512.0,491.3,7580,left
40,2,continuous,39,49,fixationCross,1542226.0,1544626.0,2400.0,89,R,1541658,1541896,240,689.7,504.8,7592,left
40,2,continuous,39,49,trial,1542226.0,1544626.0,2400.0,89,R,1541926,1542248,324,911.4,528.5,7415,NA
40,2,continuous,39,49,trial,1542226.0,1544626.0,2400.0,89,R,1542438,1542588,152,563.2,503.9,7502,left
40,2,continuous,39,49,trial,1542226.0,1544626.0,2400.0,89,R,1542610,1542858,250,479.0,466.9,7407,left
40,2,continuous,39,49,trial,1542226.0,1544626.0,2400.0,89,R,1542874,1543018,146,531.3,522.8,6982,left
40,2,continuous,39,49,trial,1542226.0,1544626.0,2400.0,89,R,1543080,1543236,158,1403.0,498.5,6364,right
40,2,continuous,39,49,trial,1542226.0,1544626.0,2400.0,89,R,1543252,1543492,242,1418.2,445.9,6051,right
40,2,continuous,39,49,trial,1542226.0,1544626.0,2400.0,89,R,1543516,1543706,192,1547.5,471.8,5880,right
40,2,continuous,39,49,trial,1542226.0,1544626.0,2400.0,89,R,1543774,1544024,252,950.3,1020.2,6268,likertHorizontal
40,2,continuous,39,49,trial,1542226.0,1544626.0,2400.0,89,R,1544036,1544280,246,907.5,999.4,6462,likertHorizontal
40,2,continuous,39,49,trial,1542226.0,1544626.0,2400.0,89,R,1544290,1544548,260,938.5,979.4,6746,likertHorizontal
40,2,continuous,39,49,postResponse,1542226.0,1544626.0,2400.0,89,R,1544708,1544960,254,746.9,501.6,7069,NA
40,2,continuous,40,5,fixationCross,1545910.0,1547510.0,1600.0,90,R,1545034,1545056,24,744.3,504.2,7199,NA
40,2,continuous,40,5,fixationCross,1545910.0,1547510.0,1600.0,90,R,1545072,1545602,532,834.7,478.8,7026,NA
40,2,continuous,40,5,trial,1545910.0,1547510.0,1600.0,90,R,1545628,1546302,676,934.3,556.8,6867,NA
40,2,continuous,40,5,trial,1545910.0,1547510.0,1600.0,90,R,1546342,1546576,236,1308.0,531.3,6334,right
40,2,continuous,40,5,postResponse,1545910.0,1547510.0,1600.0,90,R,1546638,1547844,1208,470.8,531.1,5908,left
40,2,continuous,41,15,fixationCross,1548593.0,1550110.0,1517.0,91,R,1547952,1548302,352,814.6,534.5,6279,NA
40,2,continuous,41,15,fixationCross,1548593.0,1550110.0,1517.0,91,R,1548322,1548482,162,886.4,528.1,6592,NA
40,2,continuous,41,15,trial,1548593.0,1550110.0,1517.0,91,R,1548492,1548734,244,916.8,544.7,6745,NA
40,2,continuous,41,15,trial,1548593.0,1550110.0,1517.0,91,R,1548782,1549246,466,418.4,560.7,6708,left
40,2,continuous,41,15,trial,1548593.0,1550110.0,1517.0,91,R,1549316,1549476,162,1412.5,579.1,5995,right
40,2,continuous,41,15,postResponse,1548593.0,1550110.0,1517.0,91,R,1549622,1550444,824,389.8,552.1,6243,left
40,2,continuous,42,3,fixationCross,1551276.0,1553226.0,1950.0,92,R,1550518,1550788,272,755.5,534.7,6300,NA
40,2,continuous,42,3,fixationCross,1551276.0,1553226.0,1950.0,92,R,1550806,1550984,180,831.1,528.6,6523,NA
40,2,continuous,42,3,trial,1551276.0,1553226.0,1950.0,92,R,1551006,1551312,308,935.4,543.6,6857,NA
40,2,continuous,42,3,trial,1551276.0,1553226.0,1950.0,92,R,1551326,1551434,110,887.0,537.4,7052,NA
40,2,continuous,42,3,trial,1551276.0,1553226.0,1950.0,92,R,1551482,1551658,178,449.8,512.6,7100,left
40,2,continuous,42,3,trial,1551276.0,1553226.0,1950.0,92,R,1551680,1551868,190,564.8,491.4,6871,left
40,2,continuous,42,3,trial,1551276.0,1553226.0,1950.0,92,R,1551882,1553472,1592,584.9,507.4,6502,left
40,2,continuous,43,92,fixationCross,1554477.0,1557343.0,2866.0,93,R,1553978,1554160,184,584.6,522.7,6674,left
40,2,continuous,43,92,trial,1554477.0,1557343.0,2866.0,93,R,1554198,1554630,434,919.1,536.2,6843,NA
40,2,continuous,43,92,trial,1554477.0,1557343.0,2866.0,93,R,1554676,1554864,190,504.4,520.0,6697,left
40,2,continuous,43,92,trial,1554477.0,1557343.0,2866.0,93,R,1554876,1555074,200,505.8,553.5,6371,left
40,2,continuous,43,92,trial,1554477.0,1557343.0,2866.0,93,R,1555134,1555464,332,1376.8,564.6,5784,right
40,2,continuous,43,92,trial,1554477.0,1557343.0,2866.0,93,R,1555486,1555852,368,1337.5,492.2,5680,right
40,2,continuous,43,92,trial,1554477.0,1557343.0,2866.0,93,R,1555876,1555982,108,1402.2,565.8,5694,right
40,2,continuous,43,92,trial,1554477.0,1557343.0,2866.0,93,R,1556046,1556554,510,491.8,560.2,6017,left
40,2,continuous,43,92,trial,1554477.0,1557343.0,2866.0,93,R,1556616,1556944,330,1366.9,560.1,5648,right
40,2,continuous,43,92,trial,1554477.0,1557343.0,2866.0,93,R,1556998,1557138,142,1261.0,1015.2,5839,NA
40,2,continuous,43,92,trial,1554477.0,1557343.0,2866.0,93,R,1557156,1557388,234,1337.9,974.2,6024,NA
40,2,continuous,43,92,trial,1554477.0,1557343.0,2866.0,93,R,1557434,1557520,88,1299.2,635.5,6172,right
40,2,continuous,44,77,fixationCross,1559110.0,1561493.0,2383.0,94,R,1557752,1558028,278,625.7,460.6,6471,left
40,2,continuous,44,77,fixationCross,1559110.0,1561493.0,2383.0,94,R,1558054,1558326,274,809.6,517.8,6636,NA
40,2,continuous,44,77,fixationCross,1559110.0,1561493.0,2383.0,94,R,1558348,1558564,218,693.7,538.1,6540,left
40,2,continuous,44,77,fixationCross,1559110.0,1561493.0,2383.0,94,R,1558588,1558778,192,576.2,528.7,6639,left
40,2,continuous,44,77,trial,1559110.0,1561493.0,2383.0,94,R,1558814,1559266,454,906.5,531.8,6845,NA
40,2,continuous,44,77,trial,1559110.0,1561493.0,2383.0,94,R,1559312,1559502,192,453.2,492.9,7002,left
40,2,continuous,44,77,trial,1559110.0,1561493.0,2383.0,94,R,1559520,1559672,154,366.8,473.3,6663,left
40,2,continuous,44,77,trial,1559110.0,1561493.0,2383.0,94,R,1559712,1559940,230,512.8,689.9,6246,left
40,2,continuous,44,77,trial,1559110.0,1561493.0,2383.0,94,R,1560002,1560178,178,1367.2,474.8,5766,right
40,2,continuous,44,77,trial,1559110.0,1561493.0,2383.0,94,R,1560194,1560416,224,1424.6,479.6,5712,right
40,2,continuous,44,77,trial,1559110.0,1561493.0,2383.0,94,R,1560450,1560616,168,1633.2,554.6,5852,right
40,2,continuous,44,77,trial,1559110.0,1561493.0,2383.0,94,R,1560628,1560798,172,1608.0,578.4,6071,right
40,2,continuous,44,77,trial,1559110.0,1561493.0,2383.0,94,R,1560856,1561000,146,1145.5,932.9,6513,likertHorizontal
