participantNo,block,task,blockTrial,response,trialStage,trialStartTime,trialFinishTime,rt,trial,eye,fixStart,fixEnd,fixLength,fixPosX,fixPosY,dilation,aoi
32,1,binary,1,2,fixationCross,7171134.0,7174585.0,3451.0,1,R,7170146,7170382,238,1134.9,848.9,6514,likertHorizontal
32,1,binary,1,2,fixationCross,7171134.0,7174585.0,3451.0,1,R,7170446,7170642,198,1782.9,1040.6,6509,NA
32,1,binary,1,2,fixationCross,7171134.0,7174585.0,3451.0,1,R,7170710,7170798,90,1020.6,657.2,6623,NA
32,1,binary,1,2,trial,7171134.0,7174585.0,3451.0,1,R,7170822,7171280,460,955.2,531.3,6551,NA
32,1,binary,1,2,trial,7171134.0,7174585.0,3451.0,1,R,7171326,7171582,258,1318.6,533.5,6476,right
32,1,binary,1,2,trial,7171134.0,7174585.0,3451.0,1,R,7171612,7171760,150,1550.4,523.2,5954,right
32,1,binary,1,2,trial,7171134.0,7174585.0,3451.0,1,R,7171842,7172448,608,506.9,567.1,5909,left
32,1,binary,1,2,trial,7171134.0,7174585.0,3451.0,1,R,7172502,7172712,212,479.6,1049.2,6171,NA
32,1,binary,1,2,trial,7171134.0,7174585.0,3451.0,1,R,7172722,7172840,120,497.7,1039.3,6214,NA
32,1,binary,1,2,trial,7171134.0,7174585.0,3451.0,1,R,7172894,7173154,262,409.6,491.9,6067,left
32,1,binary,1,2,trial,7171134.0,7174585.0,3451.0,1,R,7173176,7173480,306,370.9,417.1,5850,left
32,1,binary,1,2,trial,7171134.0,7174585.0,3451.0,1,R,7173502,7173674,174,490.1,422.2,5750,left
32,1,binary,1,2,trial,7171134.0,7174585.0,3451.0,1,R,7173752,7173882,132,1455.4,604.0,5638,right
32,1,binary,1,2,trial,7171134.0,7174585.0,3451.0,1,R,7173928,7174586,660,1436.0,1003.7,6108,NA
32,1,binary,1,2,trial,7171134.0,7174585.0,3451.0,1,R,7174622,7174890,270,1437.4,616.8,6425,right
32,1,binary,1,2,postResponse,7171134.0,7174585.0,3451.0,1,R,7174924,7174954,32,1215.7,579.9,6340,right
32,1,binary,2,1,fixationCross,7175801.0,7177934.0,2133.0,2,R,7175054,7175480,428,832.2,491.5,6585,NA
32,1,binary,2,1,trial,7175801.0,7177934.0,2133.0,2,R,7175500,7175956,458,916.9,508.3,6852,NA
32,1,binary,2,1,trial,7175801.0,7177934.0,2133.0,2,R,7176004,7176198,196,562.1,543.6,6706,left
32,1,binary,2,1,trial,7175801.0,7177934.0,2133.0,2,R,7176268,7176600,334,1454.5,591.9,5904,right
32,1,binary,2,1,trial,7175801.0,7177934.0,2133.0,2,R,7176624,7176934,312,1438.1,480.2,5591,right
32,1,binary,2,1,trial,7175801.0,7177934.0,2133.0,2,R,7177010,7177298,290,535.0,559.8,5647,left
32,1,binary,2,1,trial,7175801.0,7177934.0,2133.0,2,R,7177320,7177486,168,426.6,513.5,5601,left
32,1,binary,2,1,trial,7175801.0,7177934.0,2133.0,2,R,7177542,7177750,210,463.7,1024.0,5742,NA
32,1,binary,2,1,trial,7175801.0,7177934.0,2133.0,2,R,7177804,7177986,184,598.7,550.8,5570,left
32,1,binary,2,1,trial,7175801.0,7177934.0,2133.0,2,R,7178056,7178192,138,1456.9,543.2,5386,right
32,1,binary,3,1,fixationCross,7178851.0,7180451.0,1600.0,3,R,7178364,7178530,168,1049.8,411.8,5594,NA
32,1,binary,3,1,fixationCross,7178851.0,7180451.0,1600.0,3,R,7178570,7178782,214,949.5,606.7,5980,NA
32,1,binary,3,1,trial,7178851.0,7180451.0,1600.0,3,R,7178802,7179012,212,959.2,527.3,6248,NA
32,1,binary,3,1,trial,7178851.0,7180451.0,1600.0,3,R,7179056,7179300,246,643.2,519.1,6245,left
32,1,binary,3,1,trial,7178851.0,7180451.0,1600.0,3,R,7179368,7179678,312,1403.2,517.1,5576,right
32,1,binary,3,1,trial,7178851.0,7180451.0,1600.0,3,R,7179700,7179952,254,1436.3,459.6,5541,right
32,1,binary,3,1,trial,7178851.0,7180451.0,1600.0,3,R,7179974,7180136,164,1552.9,467.1,5669,right
32,1,binary,3,1,trial,7178851.0,7180451.0,1600.0,3,R,7180218,7180540,324,519.3,519.9,5800,left
32,1,binary,3,1,trial,7178851.0,7180451.0,1600.0,3,R,7180560,7180704,146,409.5,536.3,5592,left
32,1,binary,3,1,trial,7178851.0,7180451.0,1600.0,3,R,7180722,7180744,24,476.7,488.1,5489,left
32,1,binary,4,1,fixationCross,7181468.0,7184035.0,2567.0,4,R,7180870,7181130,262,645.5,493.0,5595,left
32,1,binary,4,1,fixationCross,7181468.0,7184035.0,2567.0,4,R,7181172,7181198,28,901.9,530.9,5795,NA
32,1,binary,4,1,fixationCross,7181468.0,7184035.0,2567.0,4,R,7181214,7181424,212,969.6,538.8,5996,NA
32,1,binary,4,1,trial,7181468.0,7184035.0,2567.0,4,R,7181524,7181702,180,944.6,504.7,6237,NA
32,1,binary,4,1,trial,7181468.0,7184035.0,2567.0,4,R,7181754,7181868,116,519.5,541.7,6279,left
32,1,binary,4,1,trial,7181468.0,7184035.0,2567.0,4,R,7181938,7182242,306,1473.9,490.8,5658,right
32,1,binary,4,1,trial,7181468.0,7184035.0,2567.0,4,R,7182262,7182408,148,1554.5,466.3,5375,right
32,1,binary,4,1,trial,7181468.0,7184035.0,2567.0,4,R,7182486,7182904,420,539.2,537.8,5508,left
32,1,binary,4,1,trial,7181468.0,7184035.0,2567.0,4,R,7182928,7183486,560,437.5,605.3,5553,left
32,1,binary,4,1,trial,7181468.0,7184035.0,2567.0,4,R,7183574,7183950,378,1554.9,487.2,5320,right
32,1,binary,4,1,trial,7181468.0,7184035.0,2567.0,4,R,7184006,7184114,110,1471.5,976.8,5495,NA
32,1,binary,4,1,trial,7181468.0,7184035.0,2567.0,4,R,7184130,7184276,148,1465.7,1012.7,5475,NA
32,1,binary,5,1,fixationCross,7185135.0,7187451.0,2316.0,5,R,7184472,7184804,334,583.6,516.5,5575,left
32,1,binary,5,1,fixationCross,7185135.0,7187451.0,2316.0,5,R,7184848,7185034,188,939.3,514.1,5802,NA
32,1,binary,5,1,trial,7185135.0,7187451.0,2316.0,5,R,7185164,7185336,174,905.9,517.2,5850,NA
32,1,binary,5,1,trial,7185135.0,7187451.0,2316.0,5,R,7185376,7185634,260,626.5,537.8,5806,left
32,1,binary,5,1,trial,7185135.0,7187451.0,2316.0,5,R,7185700,7185856,158,1463.6,484.8,5227,right
32,1,binary,5,1,trial,7185135.0,7187451.0,2316.0,5,R,7185872,7186140,270,1403.6,459.9,4973,right
32,1,binary,5,1,trial,7185135.0,7187451.0,2316.0,5,R,7186152,7186500,350,1367.4,447.3,5013,right
32,1,binary,5,1,trial,7185135.0,7187451.0,2316.0,5,R,7186580,7187100,522,471.5,512.6,5311,left
32,1,binary,5,1,trial,7185135.0,7187451.0,2316.0,5,R,7187156,7187354,200,454.3,998.4,5476,NA
32,1,binary,5,1,trial,7185135.0,7187451.0,2316.0,5,R,7187404,7187678,276,435.0,725.6,5440,left
32,1,binary,6,2,fixationCross,7188434.0,7191418.0,2984.0,6,R,7187870,7188064,196,1412.1,453.6,5398,right
32,1,binary,6,2,trial,7188434.0,7191418.0,2984.0,6,R,7188136,7188474,340,952.3,494.1,5935,NA
32,1,binary,6,2,trial,7188434.0,7191418.0,2984.0,6,R,7188560,7188626,68,903.1,505.2,6261,NA
32,1,binary,6,2,trial,7188434.0,7191418.0,2984.0,6,R,7188666,7188814,150,548.7,537.7,6189,left
32,1,binary,6,2,trial,7188434.0,7191418.0,2984.0,6,R,7188882,7189166,286,1447.8,560.0,5634,right
32,1,binary,6,2,trial,7188434.0,7191418.0,2984.0,6,R,7189188,7189822,636,1326.1,528.2,5285,right
32,1,binary,6,2,trial,7188434.0,7191418.0,2984.0,6,R,7189892,7190228,338,551.6,555.3,5553,left
32,1,binary,6,2,trial,7188434.0,7191418.0,2984.0,6,R,7190252,7190518,268,456.3,476.2,5493,left
32,1,binary,6,2,trial,7188434.0,7191418.0,2984.0,6,R,7190602,7191098,498,1421.7,644.3,5247,right
32,1,binary,6,2,trial,7188434.0,7191418.0,2984.0,6,R,7191112,7191236,126,1441.8,604.0,5325,right
32,1,binary,6,2,trial,7188434.0,7191418.0,2984.0,6,R,7191262,7191614,354,1641.8,546.5,5109,right
32,1,binary,7,1,fixationCross,7192484.0,7195668.0,3184.0,7,R,7191894,7192144,252,763.2,1017.5,5698,likertHorizontal
32,1,binary,7,1,trial,7192484.0,7195668.0,3184.0,7,R,7192206,7192640,436,947.5,556.4,5994,NA
32,1,binary,7,1,trial,7192484.0,7195668.0,3184.0,7,R,7192690,7192840,152,502.7,537.6,5992,left
32,1,binary,7,1,trial,7192484.0,7195668.0,3184.0,7,R,7192860,7193022,164,474.7,476.5,5574,left
32,1,binary,7,1,trial,7192484.0,7195668.0,3184.0,7,R,7193102,7193406,306,1442.9,552.0,5115,right
32,1,binary,7,1,trial,7192484.0,7195668.0,3184.0,7,R,7193424,7193582,160,1433.0,613.3,5291,right
32,1,binary,7,1,trial,7192484.0,7195668.0,3184.0,7,R,7193606,7193908,304,1333.0,515.4,5396,right
32,1,binary,7,1,trial,7192484.0,7195668.0,3184.0,7,R,7193964,7194134,172,1444.5,1031.5,5686,NA
32,1,binary,7,1,trial,7192484.0,7195668.0,3184.0,7,R,7194190,7194384,196,1466.3,580.0,5534,right
32,1,binary,7,1,trial,7192484.0,7195668.0,3184.0,7,R,7194410,7194598,190,1325.8,482.7,5582,right
32,1,binary,7,1,trial,7192484.0,7195668.0,3184.0,7,R,7194670,7195020,352,505.9,538.0,5687,left
32,1,binary,7,1,trial,7192484.0,7195668.0,3184.0,7,R,7195044,7195260,218,644.5,583.7,5612,left
32,1,binary,7,1,trial,7192484.0,7195668.0,3184.0,7,R,7195302,7195484,184,322.3,499.6,5508,left
32,1,binary,7,1,trial,7192484.0,7195668.0,3184.0,7,R,7195500,7195648,150,309.9,446.4,5399,left
32,1,binary,7,1,trial,7192484.0,7195668.0,3184.0,7,R,7195730,7195898,170,1418.8,589.9,5244,right
32,1,binary,8,1,fixationCross,7196585.0,7198868.0,2283.0,8,R,7196078,7196584,508,884.6,541.0,5665,NA
32,1,binary,8,1,trial,7196585.0,7198868.0,2283.0,8,R,7196604,7196740,138,946.3,539.2,5918,NA
32,1,binary,8,1,trial,7196585.0,7198868.0,2283.0,8,R,7196788,7196966,180,1365.4,550.1,5553,right
32,1,binary,8,1,trial,7196585.0,7198868.0,2283.0,8,R,7196984,7197196,214,1457.0,538.8,5239,right
32,1,binary,8,1,trial,7196585.0,7198868.0,2283.0,8,R,7197210,7197844,636,1493.2,516.2,4889,right
32,1,binary,8,1,trial,7196585.0,7198868.0,2283.0,8,R,7197922,7198102,182,561.6,528.2,4942,left
32,1,binary,8,1,trial,7196585.0,7198868.0,2283.0,8,R,7198128,7198922,796,428.6,580.6,5134,left
32,1,binary,8,1,trial,7196585.0,7198868.0,2283.0,8,R,7198938,7199064,128,417.0,551.4,5198,left
32,1,binary,9,1,fixationCross,7199768.0,7201135.0,1367.0,9,R,7199278,7199432,156,560.2,584.2,5315,left
32,1,binary,9,1,trial,7199768.0,7201135.0,1367.0,9,R,7199490,7199928,440,942.2,548.0,5691,NA
32,1,binary,9,1,trial,7199768.0,7201135.0,1367.0,9,R,7199980,7200150,172,504.3,557.7,5932,left
32,1,binary,9,1,trial,7199768.0,7201135.0,1367.0,9,R,7200172,7200326,156,390.3,524.8,5500,left
32,1,binary,9,1,trial,7199768.0,7201135.0,1367.0,9,R,7200402,7200670,270,1393.5,546.0,5083,right
32,1,binary,9,1,trial,7199768.0,7201135.0,1367.0,9,R,7200688,7200980,294,1316.0,543.4,5171,right
32,1,binary,9,1,trial,7199768.0,7201135.0,1367.0,9,R,7201060,7201172,114,491.3,1057.1,5568,NA
32,1,binary,9,1,trial,7199768.0,7201135.0,1367.0,9,R,7201218,7201394,178,421.5,573.9,5464,left
32,1,binary,10,1,fixationCross,7202318.0,7205968.0,3650.0,10,R,7201548,7201994,448,642.4,493.8,5590,left
32,1,binary,10,1,trial,7202318.0,7205968.0,3650.0,10,R,7202026,7202458,434,872.8,522.4,5759,NA
32,1,binary,10,1,trial,7202318.0,7205968.0,3650.0,10,R,7202502,7202768,268,533.3,557.6,5639,left
32,1,binary,10,1,trial,7202318.0,7205968.0,3650.0,10,R,7202794,7202984,192,424.6,434.8,5318,left
32,1,binary,10,1,trial,7202318.0,7205968.0,3650.0,10,R,7203006,7203326,322,331.3,424.2,5118,left
32,1,binary,10,1,trial,7202318.0,7205968.0,3650.0,10,R,7203346,7203592,248,419.9,421.6,5158,left
32,1,binary,10,1,trial,7202318.0,7205968.0,3650.0,10,R,7203606,7203680,76,397.2,460.9,5179,left
32,1,binary,10,1,trial,7202318.0,7205968.0,3650.0,10,R,7203740,7203852,114,1071.3,520.0,5207,NA
32,1,binary,10,1,trial,7202318.0,7205968.0,3650.0,10,R,7203900,7204074,176,1524.5,519.8,5114,right
32,1,binary,10,1,trial,7202318.0,7205968.0,3650.0,10,R,7204090,7204338,250,1449.0,503.5,5153,right
32,1,binary,10,1,trial,7202318.0,7205968.0,3650.0,10,R,7204352,7204546,196,1384.6,497.9,4996,right
32,1,binary,10,1,trial,7202318.0,7205968.0,3650.0,10,R,7204564,7204786,224,1367.0,563.6,5003,right
32,1,binary,10,1,trial,7202318.0,7205968.0,3650.0,10,R,7204814,7205404,592,1542.8,577.3,5135,right
32,1,binary,10,1,trial,7202318.0,7205968.0,3650.0,10,R,7205482,7205636,156,605.4,551.8,5117,left
32,1,binary,10,1,trial,7202318.0,7205968.0,3650.0,10,R,7205652,7206022,372,655.9,537.1,5117,left
32,1,binary,10,1,trial,7202318.0,7205968.0,3650.0,10,R,7206040,7206178,140,635.8,604.8,5218,left
32,1,binary,11,2,fixationCross,7206918.0,7209701.0,2783.0,11,R,7206402,7206580,180,599.0,605.2,5433,left
32,1,binary,11,2,fixationCross,7206918.0,7209701.0,2783.0,11,R,7206622,7206858,238,878.4,552.6,5656,NA
32,1,binary,11,2,trial,7206918.0,7209701.0,2783.0,11,R,7206880,7207076,198,970.5,526.5,5695,NA
32,1,binary,11,2,trial,7206918.0,7209701.0,2783.0,11,R,7207126,7207314,190,547.7,548.5,5647,left
32,1,binary,11,2,trial,7206918.0,7209701.0,2783.0,11,R,7207338,7207640,304,506.2,640.1,5282,left
32,1,binary,11,2,trial,7206918.0,7209701.0,2783.0,11,R,7207652,7207806,156,476.1,662.8,5104,left
32,1,binary,11,2,trial,7206918.0,7209701.0,2783.0,11,R,7207878,7208282,406,1391.5,593.7,4987,right
32,1,binary,11,2,trial,7206918.0,7209701.0,2783.0,11,R,7208354,7208536,184,514.9,517.8,5070,left
32,1,binary,11,2,trial,7206918.0,7209701.0,2783.0,11,R,7208562,7208796,236,360.2,486.6,5016,left
32,1,binary,11,2,trial,7206918.0,7209701.0,2783.0,11,R,7208832,7209042,212,386.6,672.6,5122,left
32,1,binary,11,2,trial,7206918.0,7209701.0,2783.0,11,R,7209060,7209176,118,461.1,663.6,5258,left
32,1,binary,11,2,trial,7206918.0,7209701.0,2783.0,11,R,7209246,7209580,336,1348.8,629.7,5283,right
32,1,binary,11,2,trial,7206918.0,7209701.0,2783.0,11,R,7209626,7209754,130,1453.0,932.3,5433,NA
32,1,binary,11,2,trial,7206918.0,7209701.0,2783.0,11,R,7209776,7209902,128,1467.2,1014.5,5426,NA
32,1,binary,12,1,fixationCross,7210918.0,7214185.0,3267.0,12,R,7210134,7210584,452,734.6,429.4,5712,left
32,1,binary,12,1,trial,7210918.0,7214185.0,3267.0,12,R,7210620,7211056,438,893.1,530.3,5944,NA
32,1,binary,12,1,trial,7210918.0,7214185.0,3267.0,12,R,7211106,7211252,148,566.6,509.2,6002,left
32,1,binary,12,1,trial,7210918.0,7214185.0,3267.0,12,R,7211268,7211382,116,549.8,470.0,5733,left
32,1,binary,12,1,trial,7210918.0,7214185.0,3267.0,12,R,7211418,7211760,344,374.6,589.8,5529,left
32,1,binary,12,1,trial,7210918.0,7214185.0,3267.0,12,R,7211790,7212132,344,565.5,453.1,5427,left
32,1,binary,12,1,trial,7210918.0,7214185.0,3267.0,12,R,7212206,7212476,272,1487.3,533.2,5399,right
32,1,binary,12,1,trial,7210918.0,7214185.0,3267.0,12,R,7212486,7212640,156,1456.1,529.2,5349,right
32,1,binary,12,1,trial,7210918.0,7214185.0,3267.0,12,R,7212714,7213104,392,563.3,466.7,5373,left
32,1,binary,12,1,trial,7210918.0,7214185.0,3267.0,12,R,7213146,7213338,194,376.0,603.2,5522,left
32,1,binary,12,1,trial,7210918.0,7214185.0,3267.0,12,R,7213450,7213590,142,277.5,597.4,5356,left
32,1,binary,12,1,trial,7210918.0,7214185.0,3267.0,12,R,7213678,7213880,204,1508.5,473.1,5133,right
32,1,binary,12,1,trial,7210918.0,7214185.0,3267.0,12,R,7213894,7214104,212,1464.8,493.3,5181,right
32,1,binary,12,1,trial,7210918.0,7214185.0,3267.0,12,R,7214172,7214432,262,595.2,476.4,5515,left
32,1,binary,13,2,fixationCross,7215251.0,7217618.0,2367.0,13,R,7214594,7214938,346,611.8,461.3,5838,left
32,1,binary,13,2,fixationCross,7215251.0,7217618.0,2367.0,13,R,7214982,7215122,142,935.3,514.1,6135,NA
32,1,binary,13,2,trial,7215251.0,7217618.0,2367.0,13,R,7215256,7215392,138,877.7,443.6,6149,NA
32,1,binary,13,2,trial,7215251.0,7217618.0,2367.0,13,R,7215442,7215650,210,438.0,532.6,6229,left
32,1,binary,13,2,trial,7215251.0,7217618.0,2367.0,13,R,7215726,7215888,164,1421.1,652.1,5483,right
32,1,binary,13,2,trial,7215251.0,7217618.0,2367.0,13,R,7215902,7216166,266,1429.5,613.5,5360,right
32,1,binary,13,2,trial,7215251.0,7217618.0,2367.0,13,R,7216186,7216546,362,1491.9,579.0,5597,right
32,1,binary,13,2,trial,7215251.0,7217618.0,2367.0,13,R,7216570,7217044,476,1349.7,553.6,5708,right
32,1,binary,13,2,trial,7215251.0,7217618.0,2367.0,13,R,7217122,7217610,490,417.8,566.8,5939,left
32,1,binary,13,2,trial,7215251.0,7217618.0,2367.0,13,R,7217688,7217844,158,1455.0,525.9,5405,right
32,1,binary,14,2,fixationCross,7218768.0,7221501.0,2733.0,14,R,7218052,7218316,266,1162.2,427.6,5882,NA
32,1,binary,14,2,fixationCross,7218768.0,7221501.0,2733.0,14,R,7218368,7218510,144,945.9,812.1,6470,likertHorizontal
32,1,binary,14,2,trial,7218768.0,7221501.0,2733.0,14,R,7218552,7218956,406,963.3,504.4,6532,NA
32,1,binary,14,2,trial,7218768.0,7221501.0,2733.0,14,R,7219006,7219264,260,488.1,502.2,6482,left
32,1,binary,14,2,trial,7218768.0,7221501.0,2733.0,14,R,7219342,7219536,196,1384.4,531.9,5783,right
32,1,binary,14,2,trial,7218768.0,7221501.0,2733.0,14,R,7219636,7219818,184,1402.3,479.1,5739,right
32,1,binary,14,2,trial,7218768.0,7221501.0,2733.0,14,R,7219840,7220006,168,1285.4,492.6,5759,right
32,1,binary,14,2,trial,7218768.0,7221501.0,2733.0,14,R,7220048,7220356,310,1597.2,612.1,5534,right
32,1,binary,14,2,trial,7218768.0,7221501.0,2733.0,14,R,7220442,7220768,328,470.7,524.9,5441,left
32,1,binary,14,2,trial,7218768.0,7221501.0,2733.0,14,R,7220792,7221070,280,475.8,616.2,5280,left
32,1,binary,14,2,trial,7218768.0,7221501.0,2733.0,14,R,7221196,7221358,164,1458.2,518.0,4938,right
32,1,binary,14,2,trial,7218768.0,7221501.0,2733.0,14,R,7221372,7221760,390,1478.2,495.7,4944,right
32,1,binary,15,1,fixationCross,7222718.0,7224651.0,1933.0,15,R,7221942,7222194,254,877.3,480.0,5267,NA
32,1,binary,15,1,fixationCross,7222718.0,7224651.0,1933.0,15,R,7222222,7222390,170,671.5,546.5,5565,left
32,1,binary,15,1,trial,7222718.0,7224651.0,1933.0,15,R,7222426,7222870,446,965.8,527.6,5791,NA
32,1,binary,15,1,trial,7222718.0,7224651.0,1933.0,15,R,7222916,7223044,130,604.1,509.7,5867,left
32,1,binary,15,1,trial,7222718.0,7224651.0,1933.0,15,R,7223056,7223198,144,619.3,485.7,5661,left
32,1,binary,15,1,trial,7222718.0,7224651.0,1933.0,15,R,7223240,7223630,392,323.3,514.5,5368,left
32,1,binary,15,1,trial,7222718.0,7224651.0,1933.0,15,R,7223656,7224084,430,331.7,630.6,5327,left
32,1,binary,15,1,trial,7222718.0,7224651.0,1933.0,15,R,7224124,7224348,226,601.2,553.4,5217,left
32,1,binary,15,1,trial,7222718.0,7224651.0,1933.0,15,R,7224412,7224594,184,1433.1,543.7,5066,right
32,1,binary,15,1,trial,7222718.0,7224651.0,1933.0,15,R,7224610,7224868,260,1381.4,576.3,5097,right
32,1,binary,16,2,fixationCross,7225768.0,7227334.0,1566.0,16,R,7225084,7225356,274,941.4,515.9,5242,NA
32,1,binary,16,2,fixationCross,7225768.0,7227334.0,1566.0,16,R,7225386,7225570,186,747.3,526.7,5644,NA
32,1,binary,16,2,trial,7225768.0,7227334.0,1566.0,16,R,7225596,7225900,306,906.6,537.0,5709,NA
32,1,binary,16,2,trial,7225768.0,7227334.0,1566.0,16,R,7225954,7226172,220,501.3,531.0,5646,left
32,1,binary,16,2,trial,7225768.0,7227334.0,1566.0,16,R,7226188,7226560,374,517.5,475.2,5134,left
32,1,binary,16,2,trial,7225768.0,7227334.0,1566.0,16,R,7226632,7226862,232,1413.5,508.3,4809,right
32,1,binary,16,2,trial,7225768.0,7227334.0,1566.0,16,R,7226878,7227554,678,1382.8,558.3,4748,right
32,1,binary,17,2,fixationCross,7229134.0,7232302.0,3168.0,17,R,7227774,7227828,56,1222.0,493.6,4990,right
32,1,binary,17,2,fixationCross,7229134.0,7232302.0,3168.0,17,R,7227840,7228248,410,711.6,500.7,5285,left
32,1,binary,17,2,fixationCross,7229134.0,7232302.0,3168.0,17,R,7228272,7228508,238,782.4,492.4,5510,NA
32,1,binary,17,2,fixationCross,7229134.0,7232302.0,3168.0,17,R,7228532,7228804,274,653.2,490.4,5439,left
32,1,binary,17,2,fixationCross,7229134.0,7232302.0,3168.0,17,R,7228834,7229120,288,885.5,491.8,5418,NA
32,1,binary,17,2,trial,7229134.0,7232302.0,3168.0,17,R,7229138,7229288,152,956.9,508.6,5404,NA
32,1,binary,17,2,trial,7229134.0,7232302.0,3168.0,17,R,7229334,7229650,318,599.2,505.0,5575,left
32,1,binary,17,2,trial,7229134.0,7232302.0,3168.0,17,R,7229732,7229906,176,551.7,499.2,5247,left
32,1,binary,17,2,trial,7229134.0,7232302.0,3168.0,17,R,7229982,7230188,208,1526.8,470.3,4951,right
32,1,binary,17,2,trial,7229134.0,7232302.0,3168.0,17,R,7230200,7230370,172,1546.6,491.3,4952,right
32,1,binary,17,2,trial,7229134.0,7232302.0,3168.0,17,R,7230392,7230784,394,1432.3,469.4,4933,right
32,1,binary,17,2,trial,7229134.0,7232302.0,3168.0,17,R,7230860,7231116,258,509.1,516.2,5130,left
32,1,binary,17,2,trial,7229134.0,7232302.0,3168.0,17,R,7231136,7231526,392,608.3,489.4,5156,left
32,1,binary,17,2,trial,7229134.0,7232302.0,3168.0,17,R,7231648,7231816,170,1527.3,475.1,4860,right
32,1,binary,17,2,postResponse,7229134.0,7232302.0,3168.0,17,R,7231830,7232634,806,1552.4,491.5,4968,right
32,1,binary,18,1,fixationCross,7233918.0,7238469.0,4551.0,18,R,7232710,7232738,30,1546.0,491.1,5100,right
32,1,binary,18,1,fixationCross,7233918.0,7238469.0,4551.0,18,R,7232840,7232906,68,1322.8,438.3,5380,right
32,1,binary,18,1,fixationCross,7233918.0,7238469.0,4551.0,18,R,7232952,7233362,412,826.4,459.9,5541,NA
32,1,binary,18,1,fixationCross,7233918.0,7238469.0,4551.0,18,R,7233388,7233622,236,683.5,512.4,5786,left
32,1,binary,18,1,fixationCross,7233918.0,7238469.0,4551.0,18,R,7233644,7233670,28,777.0,519.6,5699,NA
32,1,binary,18,1,fixationCross,7233918.0,7238469.0,4551.0,18,R,7233684,7233870,188,919.9,528.3,5592,NA
32,1,binary,18,1,trial,7233918.0,7238469.0,4551.0,18,R,7233888,7234066,180,971.7,509.8,5507,NA
32,1,binary,18,1,trial,7233918.0,7238469.0,4551.0,18,R,7234118,7234274,158,546.4,515.0,5587,left
32,1,binary,18,1,trial,7233918.0,7238469.0,4551.0,18,R,7234284,7234442,160,577.9,504.1,5355,left
32,1,binary,18,1,trial,7233918.0,7238469.0,4551.0,18,R,7234468,7235108,642,503.9,597.9,5094,left
32,1,binary,18,1,trial,7233918.0,7238469.0,4551.0,18,R,7235134,7235276,144,639.2,482.8,4936,left
32,1,binary,18,1,trial,7233918.0,7238469.0,4551.0,18,R,7235336,7235584,250,1317.3,470.5,4833,right
32,1,binary,18,1,trial,7233918.0,7238469.0,4551.0,18,R,7235644,7235786,144,673.0,463.7,5038,left
32,1,binary,18,1,trial,7233918.0,7238469.0,4551.0,18,R,7235796,7236056,262,631.5,463.2,4991,left
32,1,binary,18,1,trial,7233918.0,7238469.0,4551.0,18,R,7236086,7236414,330,501.1,621.2,5037,left
32,1,binary,18,1,trial,7233918.0,7238469.0,4551.0,18,R,7236490,7236720,232,1384.1,601.5,4842,right
32,1,binary,18,1,trial,7233918.0,7238469.0,4551.0,18,R,7236742,7237042,302,1312.0,501.1,4762,right
32,1,binary,18,1,trial,7233918.0,7238469.0,4551.0,18,R,7237070,7237170,102,1469.6,602.9,4697,right
32,1,binary,18,1,trial,7233918.0,7238469.0,4551.0,18,R,7237208,7237400,194,1292.4,379.2,4701,right
32,1,binary,18,1,trial,7233918.0,7238469.0,4551.0,18,R,7237410,7237776,368,1317.8,396.0,4681,right
32,1,binary,18,1,trial,7233918.0,7238469.0,4551.0,18,R,7237902,7238148,248,543.1,575.8,4940,left
32,1,binary,18,1,trial,7233918.0,7238469.0,4551.0,18,R,7238172,7238444,274,489.9,699.2,5005,left
32,1,binary,18,1,trial,7233918.0,7238469.0,4551.0,18,R,7238468,7238668,202,390.1,677.9,4942,left
32,1,binary,19,2,fixationCross,7239585.0,7241968.0,2383.0,19,R,7239172,7239276,106,827.2,482.6,5165,NA
32,1,binary,19,2,fixationCross,7239585.0,7241968.0,2383.0,19,R,7239300,7239480,182,960.5,515.5,5403,NA
32,1,binary,19,2,trial,7239585.0,7241968.0,2383.0,19,R,7239654,7239774,122,954.6,483.0,5504,NA
32,1,binary,19,2,trial,7239585.0,7241968.0,2383.0,19,R,7239826,7240080,256,1432.0,523.7,5230,right
32,1,binary,19,2,trial,7239585.0,7241968.0,2383.0,19,R,7240150,7240520,372,525.6,587.9,5186,left
32,1,binary,19,2,trial,7239585.0,7241968.0,2383.0,19,R,7240632,7241020,390,492.5,559.0,5695,left
32,1,binary,19,2,trial,7239585.0,7241968.0,2383.0,19,R,7241092,7241428,338,1403.4,528.3,5747,right
32,1,binary,19,2,trial,7239585.0,7241968.0,2383.0,19,R,7241452,7241958,508,1354.6,614.6,5354,right
32,1,binary,19,2,postResponse,7239585.0,7241968.0,2383.0,19,R,7242060,7242286,228,1333.7,539.7,5226,right
32,1,binary,20,1,fixationCross,7243152.0,7246168.0,3016.0,20,R,7242414,7242510,98,543.8,493.5,5550,left
32,1,binary,20,1,fixationCross,7243152.0,7246168.0,3016.0,20,R,7242534,7242576,44,489.2,393.6,5640,left
32,1,binary,20,1,fixationCross,7243152.0,7246168.0,3016.0,20,R,7242806,7243054,250,915.5,590.8,5674,NA
32,1,binary,20,1,trial,7243152.0,7246168.0,3016.0,20,R,7243076,7243174,100,948.1,543.5,5715,NA
32,1,binary,20,1,trial,7243152.0,7246168.0,3016.0,20,R,7243330,7243504,176,548.7,508.5,5842,left
32,1,binary,20,1,trial,7243152.0,7246168.0,3016.0,20,R,7243532,7243782,252,361.3,541.4,5622,left
32,1,binary,20,1,trial,7243152.0,7246168.0,3016.0,20,R,7243864,7244274,412,1484.2,554.7,5072,right
32,1,binary,20,1,trial,7243152.0,7246168.0,3016.0,20,R,7244298,7244632,336,1361.7,639.2,4891,right
32,1,binary,20,1,trial,7243152.0,7246168.0,3016.0,20,R,7244716,7245004,290,501.3,564.4,5063,left
32,1,binary,20,1,trial,7243152.0,7246168.0,3016.0,20,R,7245026,7245192,168,612.5,535.4,5080,left
32,1,binary,20,1,trial,7243152.0,7246168.0,3016.0,20,R,7245220,7245420,202,471.3,401.0,5146,left
32,1,binary,20,1,trial,7243152.0,7246168.0,3016.0,20,R,7245440,7245764,326,399.0,405.5,5160,left
32,1,binary,20,1,trial,7243152.0,7246168.0,3016.0,20,R,7245846,7246364,520,1490.1,554.7,5237,right
32,1,binary,21,2,fixationCross,7247718.0,7250102.0,2384.0,21,R,7246584,7247386,804,722.3,437.3,5513,left
32,1,binary,21,2,fixationCross,7247718.0,7250102.0,2384.0,21,R,7247412,7247610,200,889.5,495.3,5556,NA
32,1,binary,21,2,trial,7247718.0,7250102.0,2384.0,21,R,7247632,7247854,224,956.9,541.6,5528,NA
32,1,binary,21,2,trial,7247718.0,7250102.0,2384.0,21,R,7247900,7248058,160,565.7,559.0,5592,left
32,1,binary,21,2,trial,7247718.0,7250102.0,2384.0,21,R,7248082,7248416,336,428.6,567.8,5168,left
32,1,binary,21,2,trial,7247718.0,7250102.0,2384.0,21,R,7248490,7248772,284,1405.4,503.3,4662,right
32,1,binary,21,2,trial,7247718.0,7250102.0,2384.0,21,R,7248786,7249248,464,1366.9,474.3,4631,right
32,1,binary,21,2,trial,7247718.0,7250102.0,2384.0,21,R,7249322,7249966,646,423.7,548.9,4893,left
32,1,binary,21,2,trial,7247718.0,7250102.0,2384.0,21,R,7250044,7250310,268,1374.6,657.2,4735,right
32,1,binary,22,1,fixationCross,7251302.0,7252985.0,1683.0,22,R,7250542,7251000,460,874.4,468.2,5042,NA
32,1,binary,22,1,fixationCross,7251302.0,7252985.0,1683.0,22,R,7251018,7251264,248,908.6,514.9,5350,NA
32,1,binary,22,1,trial,7251302.0,7252985.0,1683.0,22,R,7251284,7251446,164,986.0,519.7,5319,NA
32,1,binary,22,1,trial,7251302.0,7252985.0,1683.0,22,R,7251498,7251706,210,529.2,539.5,5345,left
32,1,binary,22,1,trial,7251302.0,7252985.0,1683.0,22,R,7251778,7252102,326,1477.5,550.2,4731,right
32,1,binary,22,1,trial,7251302.0,7252985.0,1683.0,22,R,7252120,7252248,130,1392.9,574.2,4624,right
32,1,binary,22,1,trial,7251302.0,7252985.0,1683.0,22,R,7252326,7252568,244,451.0,533.1,4707,left
32,1,binary,22,1,trial,7251302.0,7252985.0,1683.0,22,R,7252590,7252934,346,324.4,547.9,4737,left
32,1,binary,22,1,trial,7251302.0,7252985.0,1683.0,22,R,7252960,7253206,248,263.3,702.5,5050,left
32,1,binary,23,2,fixationCross,7254185.0,7255518.0,1333.0,23,R,7253398,7253858,462,693.1,483.8,5345,left
32,1,binary,23,2,trial,7254185.0,7255518.0,1333.0,23,R,7253888,7254298,412,862.6,512.0,5720,NA
32,1,binary,23,2,trial,7254185.0,7255518.0,1333.0,23,R,7254328,7254356,30,615.7,538.2,5699,left
32,1,binary,23,2,trial,7254185.0,7255518.0,1333.0,23,R,7254366,7254600,236,480.5,548.3,5624,left
32,1,binary,23,2,trial,7254185.0,7255518.0,1333.0,23,R,7254620,7254834,216,552.8,486.8,5243,left
32,1,binary,23,2,trial,7254185.0,7255518.0,1333.0,23,R,7254910,7255212,304,1438.9,547.0,4847,right
32,1,binary,23,2,trial,7254185.0,7255518.0,1333.0,23,R,7255228,7255740,514,1434.6,596.3,4698,right
32,1,binary,24,1,fixationCross,7257035.0,7258618.0,1583.0,24,R,7255952,7256052,102,1133.5,445.6,4738,NA
32,1,binary,24,1,fixationCross,7257035.0,7258618.0,1583.0,24,R,7256072,7256406,336,775.2,509.8,4992,NA
32,1,binary,24,1,fixationCross,7257035.0,7258618.0,1583.0,24,R,7256428,7256610,184,778.2,516.2,5342,NA
32,1,binary,24,1,fixationCross,7257035.0,7258618.0,1583.0,24,R,7256624,7256978,356,852.0,508.2,5369,NA
32,1,binary,24,1,trial,7257035.0,7258618.0,1583.0,24,R,7256992,7257170,180,929.9,514.1,5253,NA
32,1,binary,24,1,trial,7257035.0,7258618.0,1583.0,24,R,7257220,7257382,164,514.3,529.2,5269,left
32,1,binary,24,1,trial,7257035.0,7258618.0,1583.0,24,R,7257402,7257542,142,433.2,505.9,5054,left
32,1,binary,24,1,trial,7257035.0,7258618.0,1583.0,24,R,7257626,7257942,318,1526.7,502.3,4510,right
32,1,binary,24,1,trial,7257035.0,7258618.0,1583.0,24,R,7257962,7258236,276,1537.3,592.9,4570,right
32,1,binary,24,1,trial,7257035.0,7258618.0,1583.0,24,R,7258246,7258786,542,1493.6,621.5,4714,right
32,1,binary,25,2,fixationCross,7260718.0,7262952.0,2234.0,25,R,7259054,7259302,250,748.8,380.4,4981,NA
32,1,binary,25,2,fixationCross,7260718.0,7262952.0,2234.0,25,R,7259328,7259536,210,607.1,486.3,5362,left
32,1,binary,25,2,fixationCross,7260718.0,7262952.0,2234.0,25,R,7259564,7259764,202,818.5,486.0,5581,NA
32,1,binary,25,2,fixationCross,7260718.0,7262952.0,2234.0,25,R,7259786,7260392,608,669.7,494.8,5750,left
32,1,binary,25,2,fixationCross,7260718.0,7262952.0,2234.0,25,R,7260422,7260604,184,909.9,522.3,5810,NA
32,1,binary,25,2,trial,7260718.0,7262952.0,2234.0,25,R,7260782,7260956,176,854.5,498.3,5657,NA
32,1,binary,25,2,trial,7260718.0,7262952.0,2234.0,25,R,7260996,7261204,210,567.5,513.0,5625,left
32,1,binary,25,2,trial,7260718.0,7262952.0,2234.0,25,R,7261282,7261422,142,1462.7,448.1,5118,right
32,1,binary,25,2,trial,7260718.0,7262952.0,2234.0,25,R,7261434,7261786,354,1425.3,434.3,4836,right
32,1,binary,25,2,trial,7260718.0,7262952.0,2234.0,25,R,7261808,7262344,538,1443.1,525.4,4938,right
32,1,binary,25,2,trial,7260718.0,7262952.0,2234.0,25,R,7262362,7262390,30,1405.2,492.5,4991,right
32,1,binary,25,2,trial,7260718.0,7262952.0,2234.0,25,R,7262542,7262964,424,1420.2,428.2,4934,right
32,1,binary,25,2,trial,7260718.0,7262952.0,2234.0,25,R,7263034,7263232,200,650.1,493.1,5229,left
32,1,binary,25,2,postResponse,7260718.0,7262952.0,2234.0,25,R,7263258,7263286,30,525.2,583.4,5301,left
32,1,binary,26,2,fixationCross,7287886.0,7293286.0,5400.0,26,R,7287342,7287544,204,1015.7,-47.8,4890,NA
32,1,binary,26,2,fixationCross,7287886.0,7293286.0,5400.0,26,R,7287624,7287716,94,1022.9,611.4,5232,NA
32,1,binary,26,2,trial,7287886.0,7293286.0,5400.0,26,R,7287736,7288148,414,965.3,527.3,5622,NA
32,1,binary,26,2,trial,7287886.0,7293286.0,5400.0,26,R,7288200,7288324,126,525.9,523.7,6066,left
32,1,binary,26,2,trial,7287886.0,7293286.0,5400.0,26,R,7288464,7288616,154,1456.8,460.5,5451,right
32,1,binary,26,2,trial,7287886.0,7293286.0,5400.0,26,R,7288632,7288708,78,1403.7,439.6,5351,right
32,1,binary,26,2,trial,7287886.0,7293286.0,5400.0,26,R,7288858,7288958,102,1362.2,412.4,5423,right
32,1,binary,26,2,trial,7287886.0,7293286.0,5400.0,26,R,7289032,7289146,116,465.1,545.3,5717,left
32,1,binary,26,2,trial,7287886.0,7293286.0,5400.0,26,R,7289298,7289414,118,444.8,940.0,5814,NA
32,1,binary,26,2,trial,7287886.0,7293286.0,5400.0,26,R,7289430,7289478,50,463.4,1001.5,5762,NA
32,1,binary,26,2,trial,7287886.0,7293286.0,5400.0,26,R,7289592,7289662,72,376.8,594.7,5626,left
32,1,binary,26,2,trial,7287886.0,7293286.0,5400.0,26,R,7289734,7289852,120,1393.3,478.0,5376,right
32,1,binary,26,2,trial,7287886.0,7293286.0,5400.0,26,R,7289964,7290176,214,1362.3,382.4,5257,right
32,1,binary,26,2,trial,7287886.0,7293286.0,5400.0,26,R,7290332,7290544,214,1424.8,480.8,5391,right
32,1,binary,26,2,trial,7287886.0,7293286.0,5400.0,26,R,7290706,7290804,100,1448.5,866.1,5641,NA
32,1,binary,26,2,trial,7287886.0,7293286.0,5400.0,26,R,7290828,7290876,50,1435.9,968.3,5707,NA
32,1,binary,26,2,trial,7287886.0,7293286.0,5400.0,26,R,7291052,7291190,140,1471.5,726.4,5778,right
32,1,binary,26,2,trial,7287886.0,7293286.0,5400.0,26,R,7291338,7291736,400,1503.6,558.0,5910,right
32,1,binary,26,2,trial,7287886.0,7293286.0,5400.0,26,R,7291754,7291828,76,1410.9,535.3,5840,right
32,1,binary,26,2,trial,7287886.0,7293286.0,5400.0,26,R,7291948,7292232,286,1419.2,467.6,5389,right
32,1,binary,26,2,trial,7287886.0,7293286.0,5400.0,26,R,7292352,7292480,130,1455.9,497.5,5417,right
32,1,binary,26,2,trial,7287886.0,7293286.0,5400.0,26,R,7292496,7292772,278,1386.7,519.7,5494,right
32,1,binary,26,2,trial,7287886.0,7293286.0,5400.0,26,R,7292800,7293080,282,1366.4,395.0,5386,right
32,1,binary,26,2,trial,7287886.0,7293286.0,5400.0,26,R,7293158,7293334,178,418.4,533.3,5514,left
32,1,binary,26,2,trial,7287886.0,7293286.0,5400.0,26,R,7293350,7293494,146,376.0,516.4,5481,left
32,1,binary,27,2,fixationCross,7294552.0,7295769.0,1217.0,27,R,7293694,7293758,66,433.3,509.1,5349,left
32,1,binary,27,2,fixationCross,7294552.0,7295769.0,1217.0,27,R,7293964,7294134,172,529.0,587.1,5663,left
32,1,binary,27,2,trial,7294552.0,7295769.0,1217.0,27,R,7294260,7294714,456,920.4,477.9,5916,NA
32,1,binary,27,2,trial,7294552.0,7295769.0,1217.0,27,R,7294766,7295068,304,432.7,503.6,5677,left
32,1,binary,27,2,trial,7294552.0,7295769.0,1217.0,27,R,7295144,7295398,256,1499.3,490.9,4750,right
32,1,binary,27,2,trial,7294552.0,7295769.0,1217.0,27,R,7295412,7295974,564,1436.0,487.9,4791,right
32,1,binary,27,2,postResponse,7294552.0,7295769.0,1217.0,27,R,7296108,7296146,40,1168.6,420.5,5024,NA
32,1,binary,28,2,fixationCross,7298036.0,7300219.0,2183.0,28,R,7296246,7296320,76,1083.6,437.5,5215,NA
32,1,binary,28,2,fixationCross,7298036.0,7300219.0,2183.0,28,R,7296384,7296716,334,636.7,523.3,5698,left
32,1,binary,28,2,fixationCross,7298036.0,7300219.0,2183.0,28,R,7296840,7297118,280,674.5,445.5,5812,left
32,1,binary,28,2,fixationCross,7298036.0,7300219.0,2183.0,28,R,7297152,7297386,236,862.9,475.9,5766,NA
32,1,binary,28,2,fixationCross,7298036.0,7300219.0,2183.0,28,R,7297518,7297700,184,729.9,452.9,5839,left
32,1,binary,28,2,fixationCross,7298036.0,7300219.0,2183.0,28,R,7297732,7297924,194,896.1,507.9,5779,NA
32,1,binary,28,2,trial,7298036.0,7300219.0,2183.0,28,R,7297936,7298178,244,930.5,519.7,5816,NA
32,1,binary,28,2,trial,7298036.0,7300219.0,2183.0,28,R,7298228,7298368,142,549.7,512.2,5898,left
32,1,binary,28,2,trial,7298036.0,7300219.0,2183.0,28,R,7298390,7298622,234,431.6,525.0,5552,left
32,1,binary,28,2,trial,7298036.0,7300219.0,2183.0,28,R,7298694,7298998,306,1358.0,514.1,5002,right
32,1,binary,28,2,trial,7298036.0,7300219.0,2183.0,28,R,7299014,7299226,214,1406.3,540.7,4968,right
32,1,binary,28,2,trial,7298036.0,7300219.0,2183.0,28,R,7299248,7299548,302,1384.4,442.8,4918,right
32,1,binary,28,2,trial,7298036.0,7300219.0,2183.0,28,R,7299572,7299648,78,1420.2,578.2,4952,right
32,1,binary,28,2,trial,7298036.0,7300219.0,2183.0,28,R,7299730,7299966,238,386.7,581.8,5249,left
32,1,binary,28,2,trial,7298036.0,7300219.0,2183.0,28,R,7299986,7300420,436,378.5,667.8,5277,left
32,1,binary,29,2,fixationCross,7301686.0,7303269.0,1583.0,29,R,7300660,7300792,134,995.7,466.8,5110,NA
32,1,binary,29,2,fixationCross,7301686.0,7303269.0,1583.0,29,R,7301052,7301228,178,602.3,671.5,5419,left
32,1,binary,29,2,fixationCross,7301686.0,7303269.0,1583.0,29,R,7301334,7301476,144,852.3,519.5,5583,NA
32,1,binary,29,2,trial,7301686.0,7303269.0,1583.0,29,R,7301492,7301766,276,944.1,504.8,5422,NA
32,1,binary,29,2,trial,7301686.0,7303269.0,1583.0,29,R,7301866,7302068,204,618.5,465.5,5467,left
32,1,binary,29,2,trial,7301686.0,7303269.0,1583.0,29,R,7302136,7302392,258,1432.2,501.2,5086,right
32,1,binary,29,2,trial,7301686.0,7303269.0,1583.0,29,R,7302408,7302692,286,1363.5,500.9,4858,right
32,1,binary,29,2,trial,7301686.0,7303269.0,1583.0,29,R,7302824,7303238,416,588.7,412.7,4898,left
32,1,binary,29,2,trial,7301686.0,7303269.0,1583.0,29,R,7303250,7303478,230,611.8,407.0,4992,left
32,1,binary,30,2,fixationCross,7305202.0,7307269.0,2067.0,30,R,7303704,7303798,96,638.1,395.5,4950,left
32,1,binary,30,2,fixationCross,7305202.0,7307269.0,2067.0,30,R,7303942,7304120,180,651.4,416.2,5113,left
32,1,binary,30,2,fixationCross,7305202.0,7307269.0,2067.0,30,R,7304138,7304252,116,782.6,440.4,5229,NA
32,1,binary,30,2,fixationCross,7305202.0,7307269.0,2067.0,30,R,7304266,7304318,54,848.0,441.7,5289,NA
32,1,binary,30,2,fixationCross,7305202.0,7307269.0,2067.0,30,R,7304446,7304668,224,790.5,425.2,5326,NA
32,1,binary,30,2,fixationCross,7305202.0,7307269.0,2067.0,30,R,7304682,7304896,216,859.0,470.2,5267,NA
32,1,binary,30,2,trial,7305202.0,7307269.0,2067.0,30,R,7304910,7305228,320,919.0,476.8,5264,NA
32,1,binary,30,2,trial,7305202.0,7307269.0,2067.0,30,R,7305240,7305342,104,946.5,498.6,5326,NA
32,1,binary,30,2,trial,7305202.0,7307269.0,2067.0,30,R,7305394,7305514,122,580.9,499.9,5373,left
32,1,binary,30,2,trial,7305202.0,7307269.0,2067.0,30,R,7305536,7305918,384,510.8,449.6,5033,left
32,1,binary,30,2,trial,7305202.0,7307269.0,2067.0,30,R,7305938,7306270,334,484.0,396.8,4817,left
32,1,binary,30,2,trial,7305202.0,7307269.0,2067.0,30,R,7306346,7306580,236,1445.5,514.6,4704,right
32,1,binary,30,2,trial,7305202.0,7307269.0,2067.0,30,R,7306602,7306926,326,1398.0,598.0,4806,right
32,1,binary,30,2,trial,7305202.0,7307269.0,2067.0,30,R,7306948,7307244,298,1518.0,561.8,4893,right
32,1,binary,30,2,trial,7305202.0,7307269.0,2067.0,30,R,7307262,7307442,182,1557.5,618.3,4838,right
32,1,binary,31,1,fixationCross,7308819.0,7311953.0,3134.0,31,R,7307706,7307744,40,681.7,714.0,4840,left
32,1,binary,31,1,fixationCross,7308819.0,7311953.0,3134.0,31,R,7307910,7308092,184,370.3,541.8,5056,left
32,1,binary,31,1,fixationCross,7308819.0,7311953.0,3134.0,31,R,7308134,7308184,52,688.0,540.5,5063,left
32,1,binary,31,1,fixationCross,7308819.0,7311953.0,3134.0,31,R,7308310,7308460,152,779.5,478.7,5143,NA
32,1,binary,31,1,trial,7308819.0,7311953.0,3134.0,31,R,7308474,7308900,428,880.9,501.8,5182,NA
32,1,binary,31,1,trial,7308819.0,7311953.0,3134.0,31,R,7308934,7309134,202,630.6,526.2,5408,left
32,1,binary,31,1,trial,7308819.0,7311953.0,3134.0,31,R,7309148,7309314,168,578.8,511.7,5268,left
32,1,binary,31,1,trial,7308819.0,7311953.0,3134.0,31,R,7309334,7309640,308,520.6,558.1,5070,left
32,1,binary,31,1,trial,7308819.0,7311953.0,3134.0,31,R,7309664,7309720,58,412.9,533.6,5052,left
32,1,binary,31,1,trial,7308819.0,7311953.0,3134.0,31,R,7309796,7310338,544,1454.4,547.3,4985,right
32,1,binary,31,1,trial,7308819.0,7311953.0,3134.0,31,R,7310418,7310756,340,479.4,421.3,5412,left
32,1,binary,31,1,trial,7308819.0,7311953.0,3134.0,31,R,7310780,7311024,246,324.1,458.9,5348,left
32,1,binary,31,1,trial,7308819.0,7311953.0,3134.0,31,R,7311036,7311304,270,336.2,486.6,5315,left
32,1,binary,31,1,trial,7308819.0,7311953.0,3134.0,31,R,7311330,7311530,202,475.1,598.1,5316,left
32,1,binary,31,1,trial,7308819.0,7311953.0,3134.0,31,R,7311544,7311916,374,512.7,615.4,5323,left
32,1,binary,31,1,trial,7308819.0,7311953.0,3134.0,31,R,7311996,7312154,160,1428.3,658.2,5166,right
32,1,binary,32,1,fixationCross,7313286.0,7316036.0,2750.0,32,R,7312390,7312618,230,945.8,441.1,5219,NA
32,1,binary,32,1,fixationCross,7313286.0,7316036.0,2750.0,32,R,7312752,7312932,182,748.6,409.4,5406,NA
32,1,binary,32,1,fixationCross,7313286.0,7316036.0,2750.0,32,R,7312954,7312990,38,851.5,469.0,5377,NA
32,1,binary,32,1,trial,7313286.0,7316036.0,2750.0,32,R,7313004,7313450,448,935.2,512.6,5367,NA
32,1,binary,32,1,trial,7313286.0,7316036.0,2750.0,32,R,7313498,7313790,294,1407.3,514.6,5114,right
32,1,binary,32,1,trial,7313286.0,7316036.0,2750.0,32,R,7313806,7314006,202,1469.9,514.2,4854,right
32,1,binary,32,1,trial,7313286.0,7316036.0,2750.0,32,R,7314020,7314076,58,1507.9,485.1,4760,right
32,1,binary,32,1,trial,7313286.0,7316036.0,2750.0,32,R,7314158,7314538,382,543.7,524.8,4920,left
32,1,binary,32,1,trial,7313286.0,7316036.0,2750.0,32,R,7314558,7314610,54,447.8,507.2,4927,left
32,1,binary,32,1,trial,7313286.0,7316036.0,2750.0,32,R,7314696,7314992,298,1444.9,557.5,4752,right
32,1,binary,32,1,trial,7313286.0,7316036.0,2750.0,32,R,7315008,7315146,140,1371.7,548.7,4741,right
32,1,binary,32,1,trial,7313286.0,7316036.0,2750.0,32,R,7315168,7315428,262,1490.0,514.9,4668,right
32,1,binary,32,1,trial,7313286.0,7316036.0,2750.0,32,R,7315508,7316292,786,555.0,527.8,5106,left
32,1,binary,33,1,fixationCross,7317186.0,7318869.0,1683.0,33,R,7316444,7316664,222,630.2,491.1,5374,left
32,1,binary,33,1,fixationCross,7317186.0,7318869.0,1683.0,33,R,7316682,7316866,186,690.5,541.2,5377,left
32,1,binary,33,1,fixationCross,7317186.0,7318869.0,1683.0,33,R,7316906,7317166,262,939.2,531.5,5529,NA
32,1,binary,33,1,trial,7317186.0,7318869.0,1683.0,33,R,7317300,7317400,102,863.3,495.7,5450,NA
32,1,binary,33,1,trial,7317186.0,7318869.0,1683.0,33,R,7317418,7317456,40,767.7,515.1,5383,NA
32,1,binary,33,1,trial,7317186.0,7318869.0,1683.0,33,R,7317488,7317630,144,561.6,569.5,5362,left
32,1,binary,33,1,trial,7317186.0,7318869.0,1683.0,33,R,7317644,7317740,98,498.1,577.3,5236,left
32,1,binary,33,1,trial,7317186.0,7318869.0,1683.0,33,R,7317822,7318210,390,1489.6,593.5,4649,right
32,1,binary,33,1,trial,7317186.0,7318869.0,1683.0,33,R,7318226,7318306,82,1529.1,551.3,4553,right
32,1,binary,33,1,trial,7317186.0,7318869.0,1683.0,33,R,7318394,7318650,258,472.8,518.6,4671,left
32,1,binary,33,1,trial,7317186.0,7318869.0,1683.0,33,R,7318672,7318836,166,349.8,458.4,4611,left
32,1,binary,33,1,trial,7317186.0,7318869.0,1683.0,33,R,7318848,7319100,254,330.5,434.8,4559,left
32,1,binary,34,2,fixationCross,7319919.0,7320986.0,1067.0,34,R,7319302,7319778,478,860.9,610.7,4742,NA
32,1,binary,34,2,trial,7319919.0,7320986.0,1067.0,34,R,7319794,7320060,268,964.2,510.6,5053,NA
32,1,binary,34,2,trial,7319919.0,7320986.0,1067.0,34,R,7320102,7320370,270,575.1,476.1,5261,left
32,1,binary,34,2,trial,7319919.0,7320986.0,1067.0,34,R,7320434,7320686,254,1306.0,545.8,4703,right
32,1,binary,34,2,trial,7319919.0,7320986.0,1067.0,34,R,7320706,7321288,584,1241.8,621.2,4794,right
32,1,binary,34,2,postResponse,7319919.0,7320986.0,1067.0,34,R,7321308,7321376,70,1159.8,570.6,4936,NA
32,1,binary,35,1,fixationCross,7322236.0,7326136.0,3900.0,35,R,7321456,7321930,476,835.6,508.5,5251,NA
32,1,binary,35,1,fixationCross,7322236.0,7326136.0,3900.0,35,R,7321950,7322226,278,884.8,519.5,5544,NA
32,1,binary,35,1,trial,7322236.0,7326136.0,3900.0,35,R,7322242,7322392,152,818.8,539.7,5521,NA
32,1,binary,35,1,trial,7322236.0,7326136.0,3900.0,35,R,7322434,7322704,272,541.7,537.3,5407,left
32,1,binary,35,1,trial,7322236.0,7326136.0,3900.0,35,R,7322722,7323354,634,477.5,592.0,5251,left
32,1,binary,35,1,trial,7322236.0,7326136.0,3900.0,35,R,7323364,7323392,30,459.9,609.7,5251,left
32,1,binary,35,1,trial,7322236.0,7326136.0,3900.0,35,R,7323460,7323670,212,1311.6,545.9,5060,right
32,1,binary,35,1,trial,7322236.0,7326136.0,3900.0,35,R,7323740,7323902,164,531.6,463.7,5269,left
32,1,binary,35,1,trial,7322236.0,7326136.0,3900.0,35,R,7323916,7324238,324,544.3,434.8,5364,left
32,1,binary,35,1,trial,7322236.0,7326136.0,3900.0,35,R,7324400,7324644,246,1362.3,489.6,5067,right
32,1,binary,35,1,trial,7322236.0,7326136.0,3900.0,35,R,7324664,7324912,250,1429.2,549.9,5046,right
32,1,binary,35,1,trial,7322236.0,7326136.0,3900.0,35,R,7324980,7325252,274,510.0,609.9,5147,left
32,1,binary,35,1,trial,7322236.0,7326136.0,3900.0,35,R,7325268,7325682,416,437.8,627.9,5060,left
32,1,binary,35,1,trial,7322236.0,7326136.0,3900.0,35,R,7325704,7326340,638,398.5,553.7,5191,left
32,1,binary,36,1,fixationCross,7327220.0,7331569.0,4349.0,36,R,7326608,7326880,274,1343.5,585.1,5358,right
32,1,binary,36,1,fixationCross,7327220.0,7331569.0,4349.0,36,R,7326928,7327098,172,974.6,542.5,5773,NA
32,1,binary,36,1,trial,7327220.0,7331569.0,4349.0,36,R,7327120,7327378,260,936.7,490.2,5764,NA
32,1,binary,36,1,trial,7327220.0,7331569.0,4349.0,36,R,7327428,7327810,384,490.2,505.0,5464,left
32,1,binary,36,1,trial,7327220.0,7331569.0,4349.0,36,R,7327828,7328034,208,504.0,567.1,5101,left
32,1,binary,36,1,trial,7327220.0,7331569.0,4349.0,36,R,7328056,7328340,286,633.2,584.1,5049,left
32,1,binary,36,1,trial,7327220.0,7331569.0,4349.0,36,R,7328362,7328516,156,502.7,544.1,5075,left
32,1,binary,36,1,trial,7327220.0,7331569.0,4349.0,36,R,7328538,7328952,416,482.7,464.6,4994,left
32,1,binary,36,1,trial,7327220.0,7331569.0,4349.0,36,R,7328976,7329238,264,462.7,572.9,5183,left
32,1,binary,36,1,trial,7327220.0,7331569.0,4349.0,36,R,7329316,7329582,268,1385.4,566.5,4979,right
32,1,binary,36,1,trial,7327220.0,7331569.0,4349.0,36,R,7329600,7329762,164,1369.6,520.2,5009,right
32,1,binary,36,1,trial,7327220.0,7331569.0,4349.0,36,R,7329786,7330216,432,1491.7,515.3,5075,right
32,1,binary,36,1,trial,7327220.0,7331569.0,4349.0,36,R,7330316,7330488,174,553.1,554.4,5428,left
32,1,binary,36,1,trial,7327220.0,7331569.0,4349.0,36,R,7330506,7330718,214,481.0,549.3,5335,left
32,1,binary,36,1,trial,7327220.0,7331569.0,4349.0,36,R,7330802,7331084,284,1454.2,623.5,5038,right
32,1,binary,36,1,trial,7327220.0,7331569.0,4349.0,36,R,7331106,7331188,84,1435.5,538.2,4968,right
32,1,binary,36,1,trial,7327220.0,7331569.0,4349.0,36,R,7331276,7331544,270,449.7,584.2,5070,left
32,1,binary,36,1,trial,7327220.0,7331569.0,4349.0,36,R,7331568,7331858,292,491.8,482.4,4898,left
32,1,binary,37,1,fixationCross,7332886.0,7334736.0,1850.0,37,R,7331984,7332020,38,501.7,476.2,4882,left
32,1,binary,37,1,fixationCross,7332886.0,7334736.0,1850.0,37,R,7332032,7332324,294,507.3,531.8,4924,left
32,1,binary,37,1,fixationCross,7332886.0,7334736.0,1850.0,37,R,7332346,7332398,54,660.9,552.5,4971,left
32,1,binary,37,1,fixationCross,7332886.0,7334736.0,1850.0,37,R,7332420,7332586,168,809.6,525.4,5044,NA
32,1,binary,37,1,fixationCross,7332886.0,7334736.0,1850.0,37,R,7332598,7332804,208,875.4,520.6,5168,NA
32,1,binary,37,1,trial,7332886.0,7334736.0,1850.0,37,R,7332824,7333024,202,799.0,526.3,5316,NA
32,1,binary,37,1,trial,7332886.0,7334736.0,1850.0,37,R,7333068,7333196,130,489.1,531.1,5370,left
32,1,binary,37,1,trial,7332886.0,7334736.0,1850.0,37,R,7333270,7333544,276,1462.1,569.8,4921,right
32,1,binary,37,1,trial,7332886.0,7334736.0,1850.0,37,R,7333560,7333700,142,1427.6,533.7,4742,right
32,1,binary,37,1,trial,7332886.0,7334736.0,1850.0,37,R,7333718,7333898,182,1480.3,570.8,4664,right
32,1,binary,37,1,trial,7332886.0,7334736.0,1850.0,37,R,7333974,7334330,358,503.0,586.8,4960,left
32,1,binary,37,1,trial,7332886.0,7334736.0,1850.0,37,R,7334352,7334484,134,472.4,549.3,5174,left
32,1,binary,37,1,trial,7332886.0,7334736.0,1850.0,37,R,7334510,7334716,208,469.5,426.6,5263,left
32,1,binary,37,1,trial,7332886.0,7334736.0,1850.0,37,R,7334796,7335004,210,1443.6,564.2,5159,right
32,1,binary,38,2,fixationCross,7335836.0,7338853.0,3017.0,38,R,7335176,7335506,332,1150.4,430.3,5403,NA
32,1,binary,38,2,fixationCross,7335836.0,7338853.0,3017.0,38,R,7335532,7335826,296,967.7,500.0,5658,NA
32,1,binary,38,2,trial,7335836.0,7338853.0,3017.0,38,R,7335840,7336012,174,920.0,520.5,5634,NA
32,1,binary,38,2,trial,7335836.0,7338853.0,3017.0,38,R,7336064,7336328,266,477.5,535.8,5573,left
32,1,binary,38,2,trial,7335836.0,7338853.0,3017.0,38,R,7336414,7336734,322,1510.7,551.0,4958,right
32,1,binary,38,2,trial,7335836.0,7338853.0,3017.0,38,R,7336756,7336934,180,1398.4,500.8,4948,right
32,1,binary,38,2,trial,7335836.0,7338853.0,3017.0,38,R,7336944,7337080,138,1365.7,489.4,5054,right
32,1,binary,38,2,trial,7335836.0,7338853.0,3017.0,38,R,7337108,7337358,252,1569.8,502.3,5080,right
32,1,binary,38,2,trial,7335836.0,7338853.0,3017.0,38,R,7337376,7337802,428,1522.2,517.6,5227,right
32,1,binary,38,2,trial,7335836.0,7338853.0,3017.0,38,R,7337886,7338262,378,561.6,510.9,5449,left
32,1,binary,38,2,trial,7335836.0,7338853.0,3017.0,38,R,7338340,7338718,380,1482.1,562.9,5261,right
32,1,binary,38,2,trial,7335836.0,7338853.0,3017.0,38,R,7338738,7339094,358,1561.9,515.6,5240,right
32,1,binary,39,1,fixationCross,7340036.0,7342119.0,2083.0,39,R,7339268,7339740,474,936.1,438.1,5325,NA
32,1,binary,39,1,trial,7340036.0,7342119.0,2083.0,39,R,7339758,7340188,432,931.9,489.9,5763,NA
32,1,binary,39,1,trial,7340036.0,7342119.0,2083.0,39,R,7340240,7340456,218,499.7,536.3,5951,left
32,1,binary,39,1,trial,7340036.0,7342119.0,2083.0,39,R,7340482,7340686,206,368.2,463.1,5569,left
32,1,binary,39,1,trial,7340036.0,7342119.0,2083.0,39,R,7340770,7341148,380,1346.1,521.7,5577,right
32,1,binary,39,1,trial,7340036.0,7342119.0,2083.0,39,R,7341212,7341902,692,641.2,586.7,6076,left
32,1,binary,39,1,trial,7340036.0,7342119.0,2083.0,39,R,7341932,7342304,374,377.2,497.6,6024,left
32,1,binary,40,2,fixationCross,7343270.0,7344369.0,1099.0,40,R,7342568,7342750,184,569.4,769.1,5910,NA
32,1,binary,40,2,fixationCross,7343270.0,7344369.0,1099.0,40,R,7342824,7343012,190,1127.3,569.2,6088,NA
32,1,binary,40,2,trial,7343270.0,7344369.0,1099.0,40,R,7343036,7343426,392,957.0,538.5,6184,NA
32,1,binary,40,2,trial,7343270.0,7344369.0,1099.0,40,R,7343480,7343746,268,480.6,544.3,6068,left
32,1,binary,40,2,trial,7343270.0,7344369.0,1099.0,40,R,7343816,7344244,430,1332.5,552.7,5478,right
32,1,binary,40,2,trial,7343270.0,7344369.0,1099.0,40,R,7344268,7344422,156,1446.4,509.7,5695,right
32,1,binary,40,2,trial,7343270.0,7344369.0,1099.0,40,R,7344440,7344596,158,1362.8,501.7,5937,right
32,1,binary,41,2,fixationCross,7345636.0,7346987.0,1351.0,41,R,7344802,7345088,288,1068.6,397.4,6419,NA
32,1,binary,41,2,fixationCross,7345636.0,7346987.0,1351.0,41,R,7345122,7345394,274,892.0,460.6,6792,NA
32,1,binary,41,2,trial,7345636.0,7346987.0,1351.0,41,R,7345412,7345796,386,947.1,484.7,6899,NA
32,1,binary,41,2,trial,7345636.0,7346987.0,1351.0,41,R,7345846,7345994,150,557.0,510.5,6976,left
32,1,binary,41,2,trial,7345636.0,7346987.0,1351.0,41,R,7346010,7346150,142,493.4,537.2,6646,left
32,1,binary,41,2,trial,7345636.0,7346987.0,1351.0,41,R,7346224,7346600,378,1395.9,591.7,6031,right
32,1,binary,41,2,trial,7345636.0,7346987.0,1351.0,41,R,7346618,7346792,176,1393.5,660.0,6148,right
32,1,binary,41,2,trial,7345636.0,7346987.0,1351.0,41,R,7346820,7347190,372,1342.7,487.7,5978,right
32,1,binary,41,2,postResponse,7345636.0,7346987.0,1351.0,41,R,7347296,7347332,38,1274.2,471.6,5934,right
32,1,binary,42,2,fixationCross,7348102.0,7349253.0,1151.0,42,R,7347432,7347784,354,1246.7,469.2,6263,right
32,1,binary,42,2,fixationCross,7348102.0,7349253.0,1151.0,42,R,7347814,7348034,222,1004.6,511.3,6707,NA
32,1,binary,42,2,trial,7348102.0,7349253.0,1151.0,42,R,7348048,7348290,244,964.6,517.1,6769,NA
32,1,binary,42,2,trial,7348102.0,7349253.0,1151.0,42,R,7348344,7348534,192,578.1,524.5,6714,left
32,1,binary,42,2,trial,7348102.0,7349253.0,1151.0,42,R,7348600,7349118,520,1342.3,570.7,5822,right
32,1,binary,42,2,trial,7348102.0,7349253.0,1151.0,42,R,7349144,7349494,352,1447.0,465.0,5656,right
32,1,binary,43,2,fixationCross,7350286.0,7352169.0,1883.0,43,R,7349660,7349964,306,1258.8,418.2,5915,right
32,1,binary,43,2,trial,7350286.0,7352169.0,1883.0,43,R,7350006,7350452,448,968.3,488.2,6596,NA
32,1,binary,43,2,trial,7350286.0,7352169.0,1883.0,43,R,7350498,7350690,194,637.6,503.0,6722,left
32,1,binary,43,2,trial,7350286.0,7352169.0,1883.0,43,R,7350714,7350858,146,505.7,530.5,6342,left
32,1,binary,43,2,trial,7350286.0,7352169.0,1883.0,43,R,7350934,7351166,234,1432.6,518.4,5866,right
32,1,binary,43,2,trial,7350286.0,7352169.0,1883.0,43,R,7351186,7351400,216,1349.1,513.8,5819,right
32,1,binary,43,2,trial,7350286.0,7352169.0,1883.0,43,R,7351426,7351688,264,1417.5,601.2,5993,right
32,1,binary,43,2,trial,7350286.0,7352169.0,1883.0,43,R,7351716,7351946,232,1515.3,503.0,5879,right
32,1,binary,43,2,trial,7350286.0,7352169.0,1883.0,43,R,7351972,7352142,172,1357.5,503.0,5809,right
32,1,binary,43,2,trial,7350286.0,7352169.0,1883.0,43,R,7352192,7352400,210,1442.0,902.8,5868,NA
32,1,binary,44,2,fixationCross,7353803.0,7355019.0,1216.0,44,R,7352670,7353000,332,760.3,416.4,5829,NA
32,1,binary,44,2,fixationCross,7353803.0,7355019.0,1216.0,44,R,7353024,7353510,488,854.8,485.3,5934,NA
32,1,binary,44,2,trial,7353803.0,7355019.0,1216.0,44,R,7353530,7353964,436,939.5,505.9,5950,NA
32,1,binary,44,2,trial,7353803.0,7355019.0,1216.0,44,R,7354008,7354158,152,528.5,504.3,6159,left
32,1,binary,44,2,trial,7353803.0,7355019.0,1216.0,44,R,7354232,7354464,234,1394.3,529.2,5659,right
32,1,binary,44,2,trial,7353803.0,7355019.0,1216.0,44,R,7354484,7354870,388,1445.7,475.6,5379,right
32,1,binary,44,2,trial,7353803.0,7355019.0,1216.0,44,R,7354882,7355272,392,1442.4,443.3,5426,right
32,1,binary,45,1,fixationCross,7356103.0,7357353.0,1250.0,45,R,7355454,7355780,328,1297.7,401.2,5756,right
32,1,binary,45,1,fixationCross,7356103.0,7357353.0,1250.0,45,R,7355820,7356000,182,1029.1,479.6,6267,NA
32,1,binary,45,1,trial,7356103.0,7357353.0,1250.0,45,R,7356020,7356244,226,963.6,510.7,6466,NA
32,1,binary,45,1,trial,7356103.0,7357353.0,1250.0,45,R,7356296,7356566,272,1385.7,458.8,6317,right
32,1,binary,45,1,trial,7356103.0,7357353.0,1250.0,45,R,7356640,7356908,270,606.1,541.6,6125,left
32,1,binary,45,1,trial,7356103.0,7357353.0,1250.0,45,R,7356922,7357352,432,563.6,541.9,5917,left
32,1,binary,45,1,trial,7356103.0,7357353.0,1250.0,45,R,7357422,7357592,172,484.5,1018.4,5918,NA
32,1,binary,46,1,fixationCross,7359287.0,7360886.0,1599.0,46,R,7357760,7358010,252,617.4,802.8,6109,NA
32,1,binary,46,1,fixationCross,7359287.0,7360886.0,1599.0,46,R,7358036,7358362,328,604.6,1003.2,6540,NA
32,1,binary,46,1,fixationCross,7359287.0,7360886.0,1599.0,46,R,7358380,7358792,414,528.5,1035.7,6887,NA
32,1,binary,46,1,fixationCross,7359287.0,7360886.0,1599.0,46,R,7358864,7358930,68,865.0,698.5,6809,NA
32,1,binary,46,1,fixationCross,7359287.0,7360886.0,1599.0,46,R,7358956,7359134,180,900.0,582.2,6755,NA
32,1,binary,46,1,trial,7359287.0,7360886.0,1599.0,46,R,7359152,7359438,288,947.3,539.9,6674,NA
32,1,binary,46,1,trial,7359287.0,7360886.0,1599.0,46,R,7359488,7359640,154,558.9,558.3,6639,left
32,1,binary,46,1,trial,7359287.0,7360886.0,1599.0,46,R,7359694,7359808,116,484.5,1019.2,6433,NA
32,1,binary,46,1,trial,7359287.0,7360886.0,1599.0,46,R,7359890,7360150,262,1373.4,540.9,5894,right
32,1,binary,46,1,trial,7359287.0,7360886.0,1599.0,46,R,7360212,7360434,224,561.9,486.4,5729,left
32,1,binary,46,1,trial,7359287.0,7360886.0,1599.0,46,R,7360446,7360584,140,562.1,465.3,5611,left
32,1,binary,46,1,trial,7359287.0,7360886.0,1599.0,46,R,7360608,7361096,490,443.3,445.2,5532,left
32,1,binary,47,2,fixationCross,7362020.0,7364370.0,2350.0,47,R,7361318,7361626,310,811.8,427.1,5376,NA
32,1,binary,47,2,trial,7362020.0,7364370.0,2350.0,47,R,7361646,7362060,416,934.7,488.4,5567,NA
32,1,binary,47,2,trial,7362020.0,7364370.0,2350.0,47,R,7362070,7362170,102,931.3,511.8,5488,NA
32,1,binary,47,2,trial,7362020.0,7364370.0,2350.0,47,R,7362214,7362678,466,521.1,575.1,5475,left
32,1,binary,47,2,trial,7362020.0,7364370.0,2350.0,47,R,7362748,7363024,278,1424.1,500.0,4870,right
32,1,binary,47,2,trial,7362020.0,7364370.0,2350.0,47,R,7363050,7363272,224,1559.4,587.1,4831,right
32,1,binary,47,2,trial,7362020.0,7364370.0,2350.0,47,R,7363288,7363570,284,1498.5,542.6,4915,right
32,1,binary,47,2,trial,7362020.0,7364370.0,2350.0,47,R,7363654,7363896,244,607.8,579.2,5088,left
32,1,binary,47,2,trial,7362020.0,7364370.0,2350.0,47,R,7363968,7364210,244,1507.0,676.1,5003,right
32,1,binary,47,2,trial,7362020.0,7364370.0,2350.0,47,R,7364228,7364576,350,1581.0,681.0,5183,right
32,1,binary,48,1,fixationCross,7366170.0,7370137.0,3967.0,48,R,7364818,7364998,182,952.9,424.8,5445,NA
32,1,binary,48,1,fixationCross,7366170.0,7370137.0,3967.0,48,R,7365038,7365550,514,691.5,442.1,5955,left
32,1,binary,48,1,fixationCross,7366170.0,7370137.0,3967.0,48,R,7365576,7365862,288,852.8,483.0,6190,NA
32,1,binary,48,1,trial,7366170.0,7370137.0,3967.0,48,R,7365882,7366324,444,929.1,519.7,6397,NA
32,1,binary,48,1,trial,7366170.0,7370137.0,3967.0,48,R,7366372,7366534,164,549.3,538.6,6707,left
32,1,binary,48,1,trial,7366170.0,7370137.0,3967.0,48,R,7366656,7366798,144,382.6,515.7,6312,left
32,1,binary,48,1,trial,7366170.0,7370137.0,3967.0,48,R,7366818,7366964,148,295.8,542.6,6231,left
32,1,binary,48,1,trial,7366170.0,7370137.0,3967.0,48,R,7367006,7367220,216,621.9,520.0,6256,left
32,1,binary,48,1,trial,7366170.0,7370137.0,3967.0,48,R,7367232,7367432,202,668.7,539.0,6255,left
32,1,binary,48,1,trial,7366170.0,7370137.0,3967.0,48,R,7367480,7367930,452,298.8,517.5,6602,left
32,1,binary,48,1,trial,7366170.0,7370137.0,3967.0,48,R,7367948,7368084,138,318.2,586.2,6675,left
32,1,binary,48,1,trial,7366170.0,7370137.0,3967.0,48,R,7368228,7368402,176,571.3,497.0,6539,left
32,1,binary,48,1,trial,7366170.0,7370137.0,3967.0,48,R,7368464,7368746,284,1314.7,426.7,6297,right
32,1,binary,48,1,trial,7366170.0,7370137.0,3967.0,48,R,7368818,7369070,254,619.0,533.8,6439,left
32,1,binary,48,1,trial,7366170.0,7370137.0,3967.0,48,R,7369088,7369296,210,572.5,573.5,6362,left
32,1,binary,48,1,trial,7366170.0,7370137.0,3967.0,48,R,7369340,7369444,106,312.5,593.1,6238,left
32,1,binary,48,1,trial,7366170.0,7370137.0,3967.0,48,R,7369522,7369844,324,1335.9,413.6,6150,right
32,1,binary,48,1,trial,7366170.0,7370137.0,3967.0,48,R,7369870,7370000,132,1374.8,520.1,6323,right
32,1,binary,48,1,trial,7366170.0,7370137.0,3967.0,48,R,7370068,7370330,264,622.1,553.9,6583,left
32,1,binary,49,1,fixationCross,7371287.0,7374987.0,3700.0,49,R,7370546,7370752,208,614.5,414.5,6307,left
32,1,binary,49,1,fixationCross,7371287.0,7374987.0,3700.0,49,R,7370868,7371004,138,1399.4,593.8,6471,right
32,1,binary,49,1,fixationCross,7371287.0,7374987.0,3700.0,49,R,7371056,7371246,192,991.7,538.8,6546,NA
32,1,binary,49,1,trial,7371287.0,7374987.0,3700.0,49,R,7371322,7371456,136,1768.4,1117.8,6651,NA
32,1,binary,49,1,trial,7371287.0,7374987.0,3700.0,49,R,7371542,7371746,206,546.9,605.9,6617,left
32,1,binary,49,1,trial,7371287.0,7374987.0,3700.0,49,R,7371766,7371852,88,540.8,549.6,6240,left
32,1,binary,49,1,trial,7371287.0,7374987.0,3700.0,49,R,7371922,7372298,378,1508.2,552.7,5538,right
32,1,binary,49,1,trial,7371287.0,7374987.0,3700.0,49,R,7372312,7372792,482,1466.2,586.7,5866,right
32,1,binary,49,1,trial,7371287.0,7374987.0,3700.0,49,R,7372814,7373300,488,1319.4,583.1,6020,right
32,1,binary,49,1,trial,7371287.0,7374987.0,3700.0,49,R,7373370,7373616,248,567.5,552.7,6084,left
32,1,binary,49,1,trial,7371287.0,7374987.0,3700.0,49,R,7373630,7373808,180,610.8,537.3,6003,left
32,1,binary,49,1,trial,7371287.0,7374987.0,3700.0,49,R,7373834,7374146,314,454.9,525.9,5784,left
32,1,binary,49,1,trial,7371287.0,7374987.0,3700.0,49,R,7374168,7374340,174,362.5,540.1,5633,left
32,1,binary,49,1,trial,7371287.0,7374987.0,3700.0,49,R,7374422,7374750,330,1448.4,564.7,5369,right
32,1,binary,49,1,trial,7371287.0,7374987.0,3700.0,49,R,7374820,7375180,362,503.7,598.9,5656,left
32,1,binary,50,1,fixationCross,7376087.0,7380503.0,4416.0,50,R,7375420,7375762,344,1160.3,400.8,5242,NA
32,1,binary,50,1,trial,7376087.0,7380503.0,4416.0,50,R,7375792,7376234,444,958.0,531.2,5901,NA
32,1,binary,50,1,trial,7376087.0,7380503.0,4416.0,50,R,7376280,7376454,176,548.6,549.7,6188,left
32,1,binary,50,1,trial,7376087.0,7380503.0,4416.0,50,R,7376530,7376638,110,1367.8,535.1,5618,right
32,1,binary,50,1,trial,7376087.0,7380503.0,4416.0,50,R,7376706,7376994,290,588.7,522.4,5534,left
32,1,binary,50,1,trial,7376087.0,7380503.0,4416.0,50,R,7377024,7377296,274,532.9,648.5,5637,left
32,1,binary,50,1,trial,7376087.0,7380503.0,4416.0,50,R,7377322,7377458,138,452.7,537.1,5602,left
32,1,binary,50,1,trial,7376087.0,7380503.0,4416.0,50,R,7377480,7377680,202,392.2,452.4,5577,left
32,1,binary,50,1,trial,7376087.0,7380503.0,4416.0,50,R,7377808,7378184,378,381.0,386.8,5499,left
32,1,binary,50,1,trial,7376087.0,7380503.0,4416.0,50,R,7378202,7378448,248,379.2,487.6,5689,left
32,1,binary,50,1,trial,7376087.0,7380503.0,4416.0,50,R,7378594,7378756,164,468.2,463.4,5746,left
32,1,binary,50,1,trial,7376087.0,7380503.0,4416.0,50,R,7378778,7378922,146,502.9,566.4,5832,left
32,1,binary,50,1,trial,7376087.0,7380503.0,4416.0,50,R,7378940,7379170,232,573.6,601.5,5795,left
32,1,binary,50,1,trial,7376087.0,7380503.0,4416.0,50,R,7379246,7379482,238,1442.7,560.9,5387,right
32,1,binary,50,1,trial,7376087.0,7380503.0,4416.0,50,R,7379502,7379640,140,1442.3,506.8,5312,right
32,1,binary,50,1,trial,7376087.0,7380503.0,4416.0,50,R,7379718,7380052,336,523.1,508.6,5368,left
32,1,binary,50,1,trial,7376087.0,7380503.0,4416.0,50,R,7380078,7380326,250,513.6,638.2,5311,left
32,1,binary,50,1,trial,7376087.0,7380503.0,4416.0,50,R,7380360,7380512,154,376.9,451.2,5240,left
32,1,binary,50,1,trial,7376087.0,7380503.0,4416.0,50,R,7380596,7380764,170,1466.1,537.6,5068,right
32,2,continuous,1,49,fixationCross,7458121.0,7462054.0,3933.0,51,R,7457355,7457427,74,1323.4,528.6,5001,right
32,2,continuous,1,49,fixationCross,7458121.0,7462054.0,3933.0,51,R,7457447,7457653,208,1240.5,527.3,5086,right
32,2,continuous,1,49,fixationCross,7458121.0,7462054.0,3933.0,51,R,7457663,7457783,122,1191.7,526.9,5138,right
32,2,continuous,1,49,fixationCross,7458121.0,7462054.0,3933.0,51,R,7457803,7457863,62,1070.7,554.5,5227,NA
32,2,continuous,1,49,fixationCross,7458121.0,7462054.0,3933.0,51,R,7457881,7457993,114,953.7,591.8,5319,NA
32,2,continuous,1,49,trial,7458121.0,7462054.0,3933.0,51,R,7458155,7458205,52,911.1,572.4,5480,NA
32,2,continuous,1,49,trial,7458121.0,7462054.0,3933.0,51,R,7458227,7458413,188,934.9,686.4,5508,NA
32,2,continuous,1,49,trial,7458121.0,7462054.0,3933.0,51,R,7458461,7458645,186,697.7,942.7,5451,NA
32,2,continuous,1,49,trial,7458121.0,7462054.0,3933.0,51,R,7458669,7458865,198,599.1,1030.0,5307,NA
32,2,continuous,1,49,trial,7458121.0,7462054.0,3933.0,51,R,7458891,7458977,88,766.2,1020.6,5232,likertHorizontal
32,2,continuous,1,49,trial,7458121.0,7462054.0,3933.0,51,R,7459031,7459417,388,417.4,663.6,5010,left
32,2,continuous,1,49,trial,7458121.0,7462054.0,3933.0,51,R,7459431,7459523,94,417.2,633.4,4931,left
32,2,continuous,1,49,trial,7458121.0,7462054.0,3933.0,51,R,7459605,7459845,242,1437.2,559.1,4777,right
32,2,continuous,1,49,trial,7458121.0,7462054.0,3933.0,51,R,7459857,7460117,262,1428.6,538.2,4867,right
32,2,continuous,1,49,trial,7458121.0,7462054.0,3933.0,51,R,7460141,7460295,156,1515.1,441.2,4856,right
32,2,continuous,1,49,trial,7458121.0,7462054.0,3933.0,51,R,7460389,7460603,216,414.8,568.1,5117,left
32,2,continuous,1,49,trial,7458121.0,7462054.0,3933.0,51,R,7460623,7460871,250,434.7,650.7,5075,left
32,2,continuous,1,49,trial,7458121.0,7462054.0,3933.0,51,R,7460945,7461111,168,1393.3,592.0,4858,right
32,2,continuous,1,49,trial,7458121.0,7462054.0,3933.0,51,R,7461161,7461273,114,1216.2,1013.9,4956,NA
32,2,continuous,1,49,trial,7458121.0,7462054.0,3933.0,51,R,7461299,7462307,1010,1019.6,992.9,5145,likertHorizontal
32,2,continuous,2,99,fixationCross,7463354.0,7465504.0,2150.0,52,R,7462507,7462813,308,715.0,582.3,5430,left
32,2,continuous,2,99,fixationCross,7463354.0,7465504.0,2150.0,52,R,7462839,7462897,60,766.3,531.7,5420,NA
32,2,continuous,2,99,fixationCross,7463354.0,7465504.0,2150.0,52,R,7463067,7463271,206,908.2,525.8,5521,NA
32,2,continuous,2,99,trial,7463354.0,7465504.0,2150.0,52,R,7463493,7463743,252,446.3,562.6,5575,left
32,2,continuous,2,99,trial,7463354.0,7465504.0,2150.0,52,R,7463891,7464109,220,1426.7,523.0,4865,right
32,2,continuous,2,99,trial,7463354.0,7465504.0,2150.0,52,R,7464131,7464695,566,1421.5,659.9,4795,right
32,2,continuous,2,99,trial,7463354.0,7465504.0,2150.0,52,R,7464733,7464917,186,1365.8,911.2,4981,NA
32,2,continuous,2,99,trial,7463354.0,7465504.0,2150.0,52,R,7464935,7465247,314,1416.9,967.1,5376,NA
32,2,continuous,2,99,trial,7463354.0,7465504.0,2150.0,52,R,7465259,7465463,206,1435.2,956.6,5770,NA
32,2,continuous,2,99,trial,7463354.0,7465504.0,2150.0,52,R,7465507,7465611,106,1151.2,780.3,5868,likertHorizontal
32,2,continuous,2,99,trial,7463354.0,7465504.0,2150.0,52,R,7465653,7465793,142,788.4,674.6,5919,NA
32,2,continuous,3,48,fixationCross,7467204.0,7470654.0,3450.0,53,R,7465921,7466281,362,1666.4,544.6,5868,right
32,2,continuous,3,48,fixationCross,7467204.0,7470654.0,3450.0,53,R,7466317,7466511,196,1339.8,512.9,6258,right
32,2,continuous,3,48,fixationCross,7467204.0,7470654.0,3450.0,53,R,7466561,7466855,296,1743.8,370.2,6030,NA
32,2,continuous,3,48,trial,7467204.0,7470654.0,3450.0,53,R,7466929,7467225,298,1015.3,521.5,6421,NA
32,2,continuous,3,48,trial,7467204.0,7470654.0,3450.0,53,R,7467243,7467361,120,937.3,550.3,6447,NA
32,2,continuous,3,48,trial,7467204.0,7470654.0,3450.0,53,R,7467411,7467635,226,486.2,562.5,6439,left
32,2,continuous,3,48,trial,7467204.0,7470654.0,3450.0,53,R,7467651,7467803,154,433.3,592.0,6058,left
32,2,continuous,3,48,trial,7467204.0,7470654.0,3450.0,53,R,7467875,7468121,248,1377.9,646.6,5592,right
32,2,continuous,3,48,trial,7467204.0,7470654.0,3450.0,53,R,7468147,7468259,114,1439.3,530.8,5501,right
32,2,continuous,3,48,trial,7467204.0,7470654.0,3450.0,53,R,7468345,7468893,550,457.7,631.1,5661,left
32,2,continuous,3,48,trial,7467204.0,7470654.0,3450.0,53,R,7468915,7469429,516,360.1,696.0,5809,left
32,2,continuous,3,48,trial,7467204.0,7470654.0,3450.0,53,R,7469475,7469651,178,698.7,951.0,5783,NA
32,2,continuous,3,48,trial,7467204.0,7470654.0,3450.0,53,R,7469731,7469923,194,1412.3,763.5,5653,NA
32,2,continuous,3,48,trial,7467204.0,7470654.0,3450.0,53,R,7469971,7470133,164,1095.3,966.9,5987,likertHorizontal
32,2,continuous,3,48,trial,7467204.0,7470654.0,3450.0,53,R,7470155,7470491,338,979.3,936.8,6261,likertHorizontal
32,2,continuous,3,48,trial,7467204.0,7470654.0,3450.0,53,R,7470531,7470893,364,1176.1,778.0,6293,likertHorizontal
32,2,continuous,4,87,fixationCross,7474504.0,7476655.0,2151.0,54,R,7471065,7471249,186,787.6,415.8,6234,NA
32,2,continuous,4,87,fixationCross,7474504.0,7476655.0,2151.0,54,R,7471293,7471655,364,516.2,378.7,6391,left
32,2,continuous,4,87,fixationCross,7474504.0,7476655.0,2151.0,54,R,7471699,7472779,1082,789.9,457.2,6502,NA
32,2,continuous,4,87,fixationCross,7474504.0,7476655.0,2151.0,54,R,7472795,7473051,258,707.8,482.4,6309,left
32,2,continuous,4,87,fixationCross,7474504.0,7476655.0,2151.0,54,R,7473075,7473525,452,844.5,498.8,6297,NA
32,2,continuous,4,87,fixationCross,7474504.0,7476655.0,2151.0,54,R,7473551,7473715,166,704.3,495.0,6447,left
32,2,continuous,4,87,fixationCross,7474504.0,7476655.0,2151.0,54,R,7473757,7473973,218,356.7,423.8,6510,left
32,2,continuous,4,87,fixationCross,7474504.0,7476655.0,2151.0,54,R,7474037,7474159,124,832.7,561.9,6548,NA
32,2,continuous,4,87,fixationCross,7474504.0,7476655.0,2151.0,54,R,7474173,7474329,158,894.0,573.1,6411,NA
32,2,continuous,4,87,fixationCross,7474504.0,7476655.0,2151.0,54,R,7474339,7474361,24,909.0,544.1,6299,NA
32,2,continuous,4,87,trial,7474504.0,7476655.0,2151.0,54,R,7474479,7474661,184,934.7,534.3,6313,NA
32,2,continuous,4,87,trial,7474504.0,7476655.0,2151.0,54,R,7474711,7474975,266,512.1,550.8,6185,left
32,2,continuous,4,87,trial,7474504.0,7476655.0,2151.0,54,R,7475051,7475475,426,1387.3,658.7,5154,right
32,2,continuous,4,87,trial,7474504.0,7476655.0,2151.0,54,R,7475497,7475793,298,1488.6,604.4,4943,right
32,2,continuous,4,87,trial,7474504.0,7476655.0,2151.0,54,R,7475807,7476027,222,1467.3,572.3,4849,right
32,2,continuous,4,87,trial,7474504.0,7476655.0,2151.0,54,R,7476079,7476313,236,1388.4,956.9,4903,NA
32,2,continuous,4,87,trial,7474504.0,7476655.0,2151.0,54,R,7476329,7476525,198,1353.2,921.1,4992,NA
32,2,continuous,4,87,trial,7474504.0,7476655.0,2151.0,54,R,7476549,7476837,290,1311.5,791.4,5170,NA
32,2,continuous,5,12,fixationCross,7477855.0,7480138.0,2283.0,55,R,7477089,7477219,132,497.2,395.2,5394,left
32,2,continuous,5,12,fixationCross,7477855.0,7480138.0,2283.0,55,R,7477369,7477489,122,538.4,400.0,5443,left
32,2,continuous,5,12,fixationCross,7477855.0,7480138.0,2283.0,55,R,7477541,7477617,78,882.7,474.5,5370,NA
32,2,continuous,5,12,fixationCross,7477855.0,7480138.0,2283.0,55,R,7477641,7477847,208,946.1,536.1,5397,NA
32,2,continuous,5,12,trial,7477855.0,7480138.0,2283.0,55,R,7477985,7478123,140,841.5,517.9,5386,NA
32,2,continuous,5,12,trial,7477855.0,7480138.0,2283.0,55,R,7478163,7478299,138,604.5,554.0,5316,left
32,2,continuous,5,12,trial,7477855.0,7480138.0,2283.0,55,R,7478337,7478541,206,466.4,624.4,5090,left
32,2,continuous,5,12,trial,7477855.0,7480138.0,2283.0,55,R,7478621,7478877,258,1501.1,561.2,4666,right
32,2,continuous,5,12,trial,7477855.0,7480138.0,2283.0,55,R,7478895,7479145,252,1515.7,519.8,4606,right
32,2,continuous,5,12,trial,7477855.0,7480138.0,2283.0,55,R,7479233,7479495,264,746.2,591.6,4697,NA
32,2,continuous,5,12,trial,7477855.0,7480138.0,2283.0,55,R,7479521,7479721,202,569.9,583.1,4771,left
32,2,continuous,5,12,trial,7477855.0,7480138.0,2283.0,55,R,7479751,7480355,606,412.0,679.0,4851,left
32,2,continuous,6,95,fixationCross,7481321.0,7483038.0,1717.0,56,R,7480573,7480759,188,471.4,445.7,4928,left
32,2,continuous,6,95,fixationCross,7481321.0,7483038.0,1717.0,56,R,7480785,7480989,206,680.9,565.8,5134,left
32,2,continuous,6,95,trial,7481321.0,7483038.0,1717.0,56,R,7481011,7481451,442,925.9,544.1,5221,NA
32,2,continuous,6,95,trial,7481321.0,7483038.0,1717.0,56,R,7481527,7481691,166,492.1,600.0,5313,left
32,2,continuous,6,95,trial,7481321.0,7483038.0,1717.0,56,R,7481759,7482017,260,1316.5,576.3,4774,right
32,2,continuous,6,95,trial,7481321.0,7483038.0,1717.0,56,R,7482047,7482223,178,1508.9,522.8,4592,right
32,2,continuous,6,95,trial,7481321.0,7483038.0,1717.0,56,R,7482237,7482489,254,1484.4,495.5,4531,right
32,2,continuous,6,95,trial,7481321.0,7483038.0,1717.0,56,R,7482507,7482727,222,1506.0,552.6,4569,right
32,2,continuous,6,95,trial,7481321.0,7483038.0,1717.0,56,R,7482781,7483009,230,1427.8,917.2,4741,NA
32,2,continuous,6,95,trial,7481321.0,7483038.0,1717.0,56,R,7483085,7483253,170,554.8,701.4,4934,left
32,2,continuous,7,77,fixationCross,7484221.0,7486621.0,2400.0,57,R,7483477,7483659,184,555.5,465.6,4882,left
32,2,continuous,7,77,fixationCross,7484221.0,7486621.0,2400.0,57,R,7483687,7483877,192,685.5,567.6,5078,left
32,2,continuous,7,77,trial,7484221.0,7486621.0,2400.0,57,R,7483901,7484377,478,893.4,563.7,5288,NA
32,2,continuous,7,77,trial,7484221.0,7486621.0,2400.0,57,R,7484423,7484555,134,590.4,593.4,5242,left
32,2,continuous,7,77,trial,7484221.0,7486621.0,2400.0,57,R,7484589,7484761,174,406.5,594.6,5107,left
32,2,continuous,7,77,trial,7484221.0,7486621.0,2400.0,57,R,7484837,7485301,466,1452.0,512.5,4701,right
32,2,continuous,7,77,trial,7484221.0,7486621.0,2400.0,57,R,7485317,7485671,356,1391.8,532.0,4690,right
32,2,continuous,7,77,trial,7484221.0,7486621.0,2400.0,57,R,7485733,7485767,36,844.6,648.7,4959,NA
32,2,continuous,7,77,trial,7484221.0,7486621.0,2400.0,57,R,7485817,7485949,134,1157.4,878.5,4982,likertHorizontal
32,2,continuous,7,77,trial,7484221.0,7486621.0,2400.0,57,R,7486015,7486379,366,478.1,609.3,5193,left
32,2,continuous,7,77,trial,7484221.0,7486621.0,2400.0,57,R,7486401,7486801,402,345.3,613.8,5129,left
32,2,continuous,8,57,fixationCross,7487754.0,7493871.0,6117.0,58,R,7487035,7487467,434,843.3,514.7,5001,NA
32,2,continuous,8,57,trial,7487754.0,7493871.0,6117.0,58,R,7487487,7487889,404,926.7,556.1,5358,NA
32,2,continuous,8,57,trial,7487754.0,7493871.0,6117.0,58,R,7487945,7488411,468,492.7,573.4,5229,left
32,2,continuous,8,57,trial,7487754.0,7493871.0,6117.0,58,R,7488431,7488763,334,465.5,636.9,5090,left
32,2,continuous,8,57,trial,7487754.0,7493871.0,6117.0,58,R,7488839,7488961,124,1390.0,561.4,5001,right
32,2,continuous,8,57,trial,7487754.0,7493871.0,6117.0,58,R,7489043,7489111,70,525.7,669.0,5194,left
32,2,continuous,8,57,trial,7487754.0,7493871.0,6117.0,58,R,7489135,7489563,430,411.7,680.7,5427,left
32,2,continuous,8,57,trial,7487754.0,7493871.0,6117.0,58,R,7489639,7489965,328,1387.5,556.3,5262,right
32,2,continuous,8,57,trial,7487754.0,7493871.0,6117.0,58,R,7489983,7490255,274,1310.1,559.3,5304,right
32,2,continuous,8,57,trial,7487754.0,7493871.0,6117.0,58,R,7490279,7490485,208,1253.5,662.5,5396,right
32,2,continuous,8,57,trial,7487754.0,7493871.0,6117.0,58,R,7490529,7490825,298,1094.1,951.9,5817,likertHorizontal
32,2,continuous,8,57,trial,7487754.0,7493871.0,6117.0,58,R,7490875,7491135,262,1344.1,632.2,5678,right
32,2,continuous,8,57,trial,7487754.0,7493871.0,6117.0,58,R,7491161,7491405,246,1381.9,473.1,5476,right
32,2,continuous,8,57,trial,7487754.0,7493871.0,6117.0,58,R,7491465,7491545,82,1091.7,923.5,5663,likertHorizontal
32,2,continuous,8,57,trial,7487754.0,7493871.0,6117.0,58,R,7491601,7491761,162,568.9,683.1,5657,left
32,2,continuous,8,57,trial,7487754.0,7493871.0,6117.0,58,R,7491781,7492535,756,521.6,611.7,5371,left
32,2,continuous,8,57,trial,7487754.0,7493871.0,6117.0,58,R,7492603,7492753,152,1124.3,635.8,5102,NA
32,2,continuous,8,57,trial,7487754.0,7493871.0,6117.0,58,R,7492805,7492971,168,1150.9,996.3,5150,likertHorizontal
32,2,continuous,8,57,trial,7487754.0,7493871.0,6117.0,58,R,7492995,7493175,182,1018.4,979.5,5265,likertHorizontal
32,2,continuous,8,57,trial,7487754.0,7493871.0,6117.0,58,R,7493189,7493619,432,1063.9,984.8,5385,likertHorizontal
32,2,continuous,8,57,trial,7487754.0,7493871.0,6117.0,58,R,7493643,7494053,412,990.9,891.8,5495,likertHorizontal
32,2,continuous,9,52,fixationCross,7495471.0,7498455.0,2984.0,59,R,7494285,7494835,552,734.1,410.9,5486,left
32,2,continuous,9,52,fixationCross,7495471.0,7498455.0,2984.0,59,R,7494943,7495141,200,660.5,408.8,5547,left
32,2,continuous,9,52,trial,7495471.0,7498455.0,2984.0,59,R,7495183,7495603,422,916.9,546.2,5532,NA
32,2,continuous,9,52,trial,7495471.0,7498455.0,2984.0,59,R,7495659,7495953,296,483.4,585.2,5508,left
32,2,continuous,9,52,trial,7495471.0,7498455.0,2984.0,59,R,7496041,7496607,568,1447.7,523.1,4967,right
32,2,continuous,9,52,trial,7495471.0,7498455.0,2984.0,59,R,7496633,7496789,158,1353.3,621.9,4959,right
32,2,continuous,9,52,trial,7495471.0,7498455.0,2984.0,59,R,7496865,7497207,344,441.4,540.0,5248,left
32,2,continuous,9,52,trial,7495471.0,7498455.0,2984.0,59,R,7497259,7497295,38,824.4,881.6,5445,likertHorizontal
32,2,continuous,9,52,trial,7495471.0,7498455.0,2984.0,59,R,7497317,7497557,242,950.2,935.7,5406,likertHorizontal
32,2,continuous,9,52,trial,7495471.0,7498455.0,2984.0,59,R,7497573,7497961,390,995.4,974.2,5588,likertHorizontal
32,2,continuous,9,52,trial,7495471.0,7498455.0,2984.0,59,R,7497983,7498189,208,1030.3,898.0,5558,likertHorizontal
32,2,continuous,9,52,trial,7495471.0,7498455.0,2984.0,59,R,7498201,7498637,438,990.6,899.6,5648,likertHorizontal
32,2,continuous,10,88,fixationCross,7501088.0,7502972.0,1884.0,60,R,7498869,7499085,218,616.6,456.1,5515,left
32,2,continuous,10,88,fixationCross,7501088.0,7502972.0,1884.0,60,R,7499103,7499317,216,483.2,473.0,5444,left
32,2,continuous,10,88,fixationCross,7501088.0,7502972.0,1884.0,60,R,7499363,7499553,192,746.9,497.2,5442,NA
32,2,continuous,10,88,fixationCross,7501088.0,7502972.0,1884.0,60,R,7499571,7499787,218,658.0,486.9,5470,left
32,2,continuous,10,88,fixationCross,7501088.0,7502972.0,1884.0,60,R,7499925,7500103,180,537.2,433.7,5362,left
32,2,continuous,10,88,fixationCross,7501088.0,7502972.0,1884.0,60,R,7500125,7500357,234,790.8,539.0,5268,NA
32,2,continuous,10,88,fixationCross,7501088.0,7502972.0,1884.0,60,R,7500533,7500717,186,583.9,489.6,5189,left
32,2,continuous,10,88,trial,7501088.0,7502972.0,1884.0,60,R,7500751,7501233,484,887.3,561.3,5075,NA
32,2,continuous,10,88,trial,7501088.0,7502972.0,1884.0,60,R,7501275,7501435,162,582.3,579.9,5045,left
32,2,continuous,10,88,trial,7501088.0,7502972.0,1884.0,60,R,7501453,7501625,174,491.6,571.2,4863,left
32,2,continuous,10,88,trial,7501088.0,7502972.0,1884.0,60,R,7501699,7501921,224,1422.7,619.0,4524,right
32,2,continuous,10,88,trial,7501088.0,7502972.0,1884.0,60,R,7501941,7502079,140,1399.2,706.2,4547,right
32,2,continuous,10,88,trial,7501088.0,7502972.0,1884.0,60,R,7502117,7502629,514,1501.1,460.1,4580,right
32,2,continuous,10,88,trial,7501088.0,7502972.0,1884.0,60,R,7502651,7502779,130,1599.7,417.1,4601,right
32,2,continuous,10,88,trial,7501088.0,7502972.0,1884.0,60,R,7502835,7503215,382,1451.3,920.6,5192,NA
32,2,continuous,10,88,postResponse,7501088.0,7502972.0,1884.0,60,R,7503269,7503307,40,1772.3,630.3,5580,NA
32,2,continuous,11,38,fixationCross,7505221.0,7508589.0,3368.0,61,R,7503381,7503517,138,1775.1,622.3,5759,NA
32,2,continuous,11,38,fixationCross,7505221.0,7508589.0,3368.0,61,R,7503681,7504211,532,793.7,363.6,6069,NA
32,2,continuous,11,38,fixationCross,7505221.0,7508589.0,3368.0,61,R,7504239,7504433,196,673.1,474.3,6142,left
32,2,continuous,11,38,fixationCross,7505221.0,7508589.0,3368.0,61,R,7504457,7504679,224,799.9,502.4,5860,NA
32,2,continuous,11,38,fixationCross,7505221.0,7508589.0,3368.0,61,R,7504691,7504931,242,858.6,507.2,5814,NA
32,2,continuous,11,38,trial,7505221.0,7508589.0,3368.0,61,R,7504949,7505221,274,911.3,522.3,5964,NA
32,2,continuous,11,38,trial,7505221.0,7508589.0,3368.0,61,R,7505239,7505369,132,860.6,517.7,6012,NA
32,2,continuous,11,38,trial,7505221.0,7508589.0,3368.0,61,R,7505419,7505565,148,481.4,525.2,5973,left
32,2,continuous,11,38,trial,7505221.0,7508589.0,3368.0,61,R,7505647,7505931,286,1427.3,602.5,5458,right
32,2,continuous,11,38,trial,7505221.0,7508589.0,3368.0,61,R,7505947,7506065,120,1439.6,563.7,5119,right
32,2,continuous,11,38,trial,7505221.0,7508589.0,3368.0,61,R,7506141,7506317,178,516.4,496.8,4990,left
32,2,continuous,11,38,trial,7505221.0,7508589.0,3368.0,61,R,7506333,7506581,250,511.3,444.1,4915,left
32,2,continuous,11,38,trial,7505221.0,7508589.0,3368.0,61,R,7506731,7506979,250,1359.2,827.2,4922,NA
32,2,continuous,11,38,trial,7505221.0,7508589.0,3368.0,61,R,7507007,7507275,270,1377.5,670.3,4968,right
32,2,continuous,11,38,trial,7505221.0,7508589.0,3368.0,61,R,7507299,7507431,134,1483.7,603.6,4843,right
32,2,continuous,11,38,trial,7505221.0,7508589.0,3368.0,61,R,7507495,7507819,326,1077.9,925.2,5002,likertHorizontal
32,2,continuous,11,38,trial,7505221.0,7508589.0,3368.0,61,R,7507839,7508101,264,1006.4,932.3,5431,likertHorizontal
32,2,continuous,11,38,trial,7505221.0,7508589.0,3368.0,61,R,7508123,7508289,168,925.0,894.1,5620,likertHorizontal
32,2,continuous,11,38,trial,7505221.0,7508589.0,3368.0,61,R,7508347,7508643,298,542.6,576.6,5588,left
32,2,continuous,11,38,trial,7505221.0,7508589.0,3368.0,61,R,7508653,7508785,134,520.8,584.4,5485,left
32,2,continuous,12,13,fixationCross,7509655.0,7511405.0,1750.0,62,R,7509021,7509113,94,653.5,468.6,5333,left
32,2,continuous,12,13,fixationCross,7509655.0,7511405.0,1750.0,62,R,7509127,7509335,210,750.0,529.5,5328,NA
32,2,continuous,12,13,fixationCross,7509655.0,7511405.0,1750.0,62,R,7509357,7509603,248,916.0,558.6,5412,NA
32,2,continuous,12,13,trial,7509655.0,7511405.0,1750.0,62,R,7509727,7509823,98,883.8,522.0,5436,NA
32,2,continuous,12,13,trial,7509655.0,7511405.0,1750.0,62,R,7509877,7510239,364,633.0,594.3,5206,left
32,2,continuous,12,13,trial,7509655.0,7511405.0,1750.0,62,R,7510301,7510567,268,1394.9,537.9,4723,right
32,2,continuous,12,13,trial,7509655.0,7511405.0,1750.0,62,R,7510583,7510683,102,1453.7,554.7,4639,right
32,2,continuous,12,13,trial,7509655.0,7511405.0,1750.0,62,R,7510765,7511221,458,400.3,509.8,4693,left
32,2,continuous,12,13,trial,7509655.0,7511405.0,1750.0,62,R,7511253,7511603,352,592.6,704.0,4882,left
32,2,continuous,13,14,fixationCross,7512488.0,7514755.0,2267.0,63,R,7511817,7512073,258,952.3,606.6,5061,NA
32,2,continuous,13,14,fixationCross,7512488.0,7514755.0,2267.0,63,R,7512097,7512287,192,1073.3,573.7,5307,NA
32,2,continuous,13,14,trial,7512488.0,7514755.0,2267.0,63,R,7512307,7512631,326,968.0,567.7,5594,NA
32,2,continuous,13,14,trial,7512488.0,7514755.0,2267.0,63,R,7512683,7513493,812,543.3,590.1,5145,left
32,2,continuous,13,14,trial,7512488.0,7514755.0,2267.0,63,R,7513565,7513953,390,1388.3,565.8,4750,right
32,2,continuous,13,14,trial,7512488.0,7514755.0,2267.0,63,R,7513967,7514091,126,1393.0,591.6,4882,right
32,2,continuous,13,14,trial,7512488.0,7514755.0,2267.0,63,R,7514151,7514347,198,757.1,695.5,5081,NA
32,2,continuous,13,14,trial,7512488.0,7514755.0,2267.0,63,R,7514371,7514521,152,621.1,672.2,5189,left
32,2,continuous,13,14,trial,7512488.0,7514755.0,2267.0,63,R,7514601,7514831,232,1437.0,623.2,4984,right
32,2,continuous,13,14,trial,7512488.0,7514755.0,2267.0,63,R,7514887,7515011,126,830.1,898.7,5206,likertHorizontal
32,2,continuous,14,98,fixationCross,7515888.0,7518022.0,2134.0,64,R,7515205,7515575,372,725.6,543.9,5328,left
32,2,continuous,14,98,trial,7515888.0,7518022.0,2134.0,64,R,7515601,7516047,448,867.7,559.9,5422,NA
32,2,continuous,14,98,trial,7515888.0,7518022.0,2134.0,64,R,7516081,7516101,22,1123.7,538.9,5317,NA
32,2,continuous,14,98,trial,7515888.0,7518022.0,2134.0,64,R,7516133,7516427,296,1445.6,575.1,5007,right
32,2,continuous,14,98,trial,7515888.0,7518022.0,2134.0,64,R,7516505,7516823,320,492.2,548.1,4627,left
32,2,continuous,14,98,trial,7515888.0,7518022.0,2134.0,64,R,7516847,7517231,386,445.7,645.1,4715,left
32,2,continuous,14,98,trial,7515888.0,7518022.0,2134.0,64,R,7517315,7517475,162,1276.5,943.2,4741,NA
32,2,continuous,14,98,trial,7515888.0,7518022.0,2134.0,64,R,7517499,7517709,212,1413.6,929.6,4656,NA
32,2,continuous,14,98,trial,7515888.0,7518022.0,2134.0,64,R,7517733,7517865,134,1512.7,857.1,4603,NA
32,2,continuous,14,98,trial,7515888.0,7518022.0,2134.0,64,R,7517899,7518035,138,1613.8,634.9,4573,right
32,2,continuous,14,98,trial,7515888.0,7518022.0,2134.0,64,R,7518081,7518247,168,1447.2,999.4,4661,NA
32,2,continuous,15,1,fixationCross,7519204.0,7521088.0,1884.0,65,R,7518459,7518809,352,775.5,572.5,4859,NA
32,2,continuous,15,1,fixationCross,7519204.0,7521088.0,1884.0,65,R,7518825,7518907,84,845.5,559.3,4906,NA
32,2,continuous,15,1,trial,7519204.0,7521088.0,1884.0,65,R,7518925,7519355,432,914.1,558.4,4994,NA
32,2,continuous,15,1,trial,7519204.0,7521088.0,1884.0,65,R,7519403,7519547,146,527.0,576.8,5037,left
32,2,continuous,15,1,trial,7519204.0,7521088.0,1884.0,65,R,7519571,7519719,150,386.8,572.4,4881,left
32,2,continuous,15,1,trial,7519204.0,7521088.0,1884.0,65,R,7519731,7520055,326,345.1,588.8,4681,left
32,2,continuous,15,1,trial,7519204.0,7521088.0,1884.0,65,R,7520137,7520411,276,1464.1,569.8,4392,right
32,2,continuous,15,1,trial,7519204.0,7521088.0,1884.0,65,R,7520495,7520607,114,709.3,1016.5,4669,NA
32,2,continuous,15,1,trial,7519204.0,7521088.0,1884.0,65,R,7520627,7521037,412,576.7,1012.9,4689,NA
32,2,continuous,15,1,trial,7519204.0,7521088.0,1884.0,65,R,7521049,7521293,246,537.1,1024.8,4866,NA
32,2,continuous,16,100,fixationCross,7522189.0,7524872.0,2683.0,66,R,7521519,7521927,410,860.6,548.5,4868,NA
32,2,continuous,16,100,trial,7522189.0,7524872.0,2683.0,66,R,7521939,7522363,426,905.3,556.6,5037,NA
32,2,continuous,16,100,trial,7522189.0,7524872.0,2683.0,66,R,7522411,7522549,140,526.6,571.1,5204,left
32,2,continuous,16,100,trial,7522189.0,7524872.0,2683.0,66,R,7522623,7522865,244,1390.5,596.5,4734,right
32,2,continuous,16,100,trial,7522189.0,7524872.0,2683.0,66,R,7522905,7523035,132,1659.0,479.1,4527,right
32,2,continuous,16,100,trial,7522189.0,7524872.0,2683.0,66,R,7523051,7523371,322,1663.5,435.6,4475,right
32,2,continuous,16,100,trial,7522189.0,7524872.0,2683.0,66,R,7523391,7523645,256,1561.6,482.7,4556,right
32,2,continuous,16,100,trial,7522189.0,7524872.0,2683.0,66,R,7523689,7523827,140,1227.5,571.0,4704,right
32,2,continuous,16,100,trial,7522189.0,7524872.0,2683.0,66,R,7523893,7524183,292,483.2,543.6,4848,left
32,2,continuous,16,100,trial,7522189.0,7524872.0,2683.0,66,R,7524197,7524327,132,455.2,505.7,4816,left
32,2,continuous,16,100,trial,7522189.0,7524872.0,2683.0,66,R,7524415,7524613,200,1376.2,903.9,4619,NA
32,2,continuous,16,100,trial,7522189.0,7524872.0,2683.0,66,R,7524633,7525059,428,1437.4,970.2,4785,NA
32,2,continuous,16,100,postResponse,7522189.0,7524872.0,2683.0,66,R,7525119,7525217,100,1200.2,629.8,5119,right
32,2,continuous,17,100,fixationCross,7526755.0,7529105.0,2350.0,67,R,7525297,7525621,326,672.8,581.3,5016,left
32,2,continuous,17,100,trial,7526755.0,7529105.0,2350.0,67,R,7525645,7526885,1242,844.9,582.7,5060,NA
32,2,continuous,17,100,trial,7526755.0,7529105.0,2350.0,67,R,7526929,7527095,168,659.3,589.9,4955,left
32,2,continuous,17,100,trial,7526755.0,7529105.0,2350.0,67,R,7527113,7527669,558,548.6,572.1,4618,left
32,2,continuous,17,100,trial,7526755.0,7529105.0,2350.0,67,R,7527805,7528323,520,1376.0,559.5,4399,right
32,2,continuous,17,100,trial,7526755.0,7529105.0,2350.0,67,R,7528351,7528633,284,1251.2,640.8,4458,right
32,2,continuous,17,100,trial,7526755.0,7529105.0,2350.0,67,R,7528679,7528891,214,1612.1,635.8,4443,right
32,2,continuous,17,100,trial,7526755.0,7529105.0,2350.0,67,R,7528915,7528939,26,1621.4,699.0,4508,right
32,2,continuous,17,100,trial,7526755.0,7529105.0,2350.0,67,R,7528979,7529065,88,1465.6,931.1,4620,NA
32,2,continuous,17,100,trial,7526755.0,7529105.0,2350.0,67,R,7529147,7529421,276,479.6,560.9,4739,left
32,2,continuous,18,2,fixationCross,7530355.0,7534072.0,3717.0,68,R,7529611,7529819,210,453.2,581.3,4776,left
32,2,continuous,18,2,fixationCross,7530355.0,7534072.0,3717.0,68,R,7530075,7530271,198,985.5,460.2,4800,NA
32,2,continuous,18,2,trial,7530355.0,7534072.0,3717.0,68,R,7530291,7530403,114,939.4,553.0,5002,NA
32,2,continuous,18,2,trial,7530355.0,7534072.0,3717.0,68,R,7530563,7530721,160,554.8,538.3,5185,left
32,2,continuous,18,2,trial,7530355.0,7534072.0,3717.0,68,R,7530759,7530967,210,281.1,491.8,5122,left
32,2,continuous,18,2,trial,7530355.0,7534072.0,3717.0,68,R,7531045,7531273,230,1429.4,544.7,5017,right
32,2,continuous,18,2,trial,7530355.0,7534072.0,3717.0,68,R,7531291,7531457,168,1454.1,598.1,5204,right
32,2,continuous,18,2,trial,7530355.0,7534072.0,3717.0,68,R,7531613,7532091,480,1381.9,541.9,5376,right
32,2,continuous,18,2,trial,7530355.0,7534072.0,3717.0,68,R,7532113,7532301,190,1438.9,579.6,5857,right
32,2,continuous,18,2,trial,7530355.0,7534072.0,3717.0,68,R,7532379,7532703,326,454.3,542.9,5877,left
32,2,continuous,18,2,trial,7530355.0,7534072.0,3717.0,68,R,7532727,7533015,290,348.1,466.7,6005,left
32,2,continuous,18,2,trial,7530355.0,7534072.0,3717.0,68,R,7533123,7533325,204,352.0,436.0,5794,left
32,2,continuous,18,2,trial,7530355.0,7534072.0,3717.0,68,R,7533349,7533487,140,442.2,492.4,5779,left
32,2,continuous,18,2,trial,7530355.0,7534072.0,3717.0,68,R,7533511,7533927,418,308.6,545.4,5797,left
32,2,continuous,18,2,postResponse,7530355.0,7534072.0,3717.0,68,R,7534017,7534405,390,1513.1,606.4,5589,right
32,2,continuous,19,1,fixationCross,7535355.0,7537438.0,2083.0,69,R,7534481,7534551,72,1503.2,594.9,5666,right
32,2,continuous,19,1,fixationCross,7535355.0,7537438.0,2083.0,69,R,7534575,7534697,124,1608.0,502.0,5787,right
32,2,continuous,19,1,fixationCross,7535355.0,7537438.0,2083.0,69,R,7534841,7535087,248,786.1,465.3,5988,NA
32,2,continuous,19,1,fixationCross,7535355.0,7537438.0,2083.0,69,R,7535111,7535315,206,899.2,499.8,6121,NA
32,2,continuous,19,1,trial,7535355.0,7537438.0,2083.0,69,R,7535333,7535497,166,960.0,527.5,6218,NA
32,2,continuous,19,1,trial,7535355.0,7537438.0,2083.0,69,R,7535557,7535781,226,491.1,576.6,6082,left
32,2,continuous,19,1,trial,7535355.0,7537438.0,2083.0,69,R,7535797,7536017,222,433.7,587.2,5702,left
32,2,continuous,19,1,trial,7535355.0,7537438.0,2083.0,69,R,7536097,7536457,362,1417.8,574.3,5291,right
32,2,continuous,19,1,trial,7535355.0,7537438.0,2083.0,69,R,7536529,7536807,280,513.3,590.5,5734,left
32,2,continuous,19,1,trial,7535355.0,7537438.0,2083.0,69,R,7536851,7537181,332,511.3,963.4,6008,NA
32,2,continuous,19,1,trial,7535355.0,7537438.0,2083.0,69,R,7537217,7537587,372,356.0,740.1,5816,NA
32,2,continuous,20,41,fixationCross,7539539.0,7542722.0,3183.0,70,R,7537847,7538005,160,1671.3,478.7,5253,right
32,2,continuous,20,41,fixationCross,7539539.0,7542722.0,3183.0,70,R,7538051,7538093,44,1332.3,484.0,5435,right
32,2,continuous,20,41,fixationCross,7539539.0,7542722.0,3183.0,70,R,7538151,7538589,440,838.8,504.9,5829,NA
32,2,continuous,20,41,fixationCross,7539539.0,7542722.0,3183.0,70,R,7538609,7538805,198,702.4,528.1,5916,left
32,2,continuous,20,41,fixationCross,7539539.0,7542722.0,3183.0,70,R,7538827,7538977,152,816.9,571.4,5900,NA
32,2,continuous,20,41,fixationCross,7539539.0,7542722.0,3183.0,70,R,7539063,7539281,220,809.2,547.9,5736,NA
32,2,continuous,20,41,trial,7539539.0,7542722.0,3183.0,70,R,7539301,7539683,384,951.1,569.8,5622,NA
32,2,continuous,20,41,trial,7539539.0,7542722.0,3183.0,70,R,7539747,7539899,154,428.0,551.6,5552,left
32,2,continuous,20,41,trial,7539539.0,7542722.0,3183.0,70,R,7539913,7540149,238,379.6,568.6,5275,left
32,2,continuous,20,41,trial,7539539.0,7542722.0,3183.0,70,R,7540159,7540191,34,352.1,579.6,5124,left
32,2,continuous,20,41,trial,7539539.0,7542722.0,3183.0,70,R,7540281,7540459,180,1484.9,552.5,4800,right
32,2,continuous,20,41,trial,7539539.0,7542722.0,3183.0,70,R,7540479,7540679,202,1404.5,593.7,4785,right
32,2,continuous,20,41,trial,7539539.0,7542722.0,3183.0,70,R,7540703,7540819,118,1385.8,477.2,4752,right
32,2,continuous,20,41,trial,7539539.0,7542722.0,3183.0,70,R,7540901,7541379,480,369.0,556.7,4920,left
32,2,continuous,20,41,trial,7539539.0,7542722.0,3183.0,70,R,7541425,7541553,130,650.0,855.4,5224,NA
32,2,continuous,20,41,trial,7539539.0,7542722.0,3183.0,70,R,7541577,7541667,92,797.8,901.0,5243,likertHorizontal
32,2,continuous,20,41,trial,7539539.0,7542722.0,3183.0,70,R,7541815,7542255,442,864.2,928.4,5406,likertHorizontal
32,2,continuous,20,41,trial,7539539.0,7542722.0,3183.0,70,R,7542275,7542623,350,959.2,965.4,5696,likertHorizontal
32,2,continuous,20,41,trial,7539539.0,7542722.0,3183.0,70,R,7542651,7542925,276,1129.3,875.2,5618,likertHorizontal
32,2,continuous,20,41,postResponse,7539539.0,7542722.0,3183.0,70,R,7543019,7543057,40,1729.9,509.4,5224,NA
32,2,continuous,21,52,fixationCross,7543922.0,7548189.0,4267.0,71,R,7543159,7543319,162,1743.8,464.9,5329,NA
32,2,continuous,21,52,fixationCross,7543922.0,7548189.0,4267.0,71,R,7543343,7543381,40,1547.5,401.2,5471,right
32,2,continuous,21,52,trial,7543922.0,7548189.0,4267.0,71,R,7543439,7544065,628,896.7,483.8,5487,NA
32,2,continuous,21,52,trial,7543922.0,7548189.0,4267.0,71,R,7544113,7544487,376,469.9,513.0,5303,left
32,2,continuous,21,52,trial,7543922.0,7548189.0,4267.0,71,R,7544509,7544655,148,371.2,545.6,4977,left
32,2,continuous,21,52,trial,7543922.0,7548189.0,4267.0,71,R,7544735,7544923,190,1363.2,564.7,4687,right
32,2,continuous,21,52,trial,7543922.0,7548189.0,4267.0,71,R,7545003,7545213,212,397.1,562.0,4705,left
32,2,continuous,21,52,trial,7543922.0,7548189.0,4267.0,71,R,7545237,7545737,502,296.6,472.3,4623,left
32,2,continuous,21,52,trial,7543922.0,7548189.0,4267.0,71,R,7545763,7546359,598,462.4,434.4,4652,left
32,2,continuous,21,52,trial,7543922.0,7548189.0,4267.0,71,R,7546441,7546665,226,1465.6,508.5,4652,right
32,2,continuous,21,52,trial,7543922.0,7548189.0,4267.0,71,R,7546687,7546969,284,1588.5,418.6,4441,right
32,2,continuous,21,52,trial,7543922.0,7548189.0,4267.0,71,R,7547009,7547319,312,1424.6,583.7,4426,right
32,2,continuous,21,52,trial,7543922.0,7548189.0,4267.0,71,R,7547337,7547471,136,1451.8,632.0,4493,right
32,2,continuous,21,52,trial,7543922.0,7548189.0,4267.0,71,R,7547685,7547781,98,1004.7,988.4,4597,likertHorizontal
32,2,continuous,21,52,trial,7543922.0,7548189.0,4267.0,71,R,7547801,7548019,220,1067.9,977.0,4689,likertHorizontal
32,2,continuous,21,52,trial,7543922.0,7548189.0,4267.0,71,R,7548033,7548379,348,1031.1,945.0,4836,likertHorizontal
32,2,continuous,22,12,fixationCross,7550006.0,7553355.0,3349.0,72,R,7548603,7548821,220,613.8,545.9,4951,left
32,2,continuous,22,12,fixationCross,7550006.0,7553355.0,3349.0,72,R,7548835,7548855,22,557.1,501.6,5059,left
32,2,continuous,22,12,fixationCross,7550006.0,7553355.0,3349.0,72,R,7549047,7549067,22,479.4,443.5,5016,left
32,2,continuous,22,12,fixationCross,7550006.0,7553355.0,3349.0,72,R,7549083,7549355,274,604.4,507.7,4931,left
32,2,continuous,22,12,trial,7550006.0,7553355.0,3349.0,72,R,7549555,7550141,588,915.3,539.2,4996,NA
32,2,continuous,22,12,trial,7550006.0,7553355.0,3349.0,72,R,7550193,7550455,264,572.0,552.3,4979,left
32,2,continuous,22,12,trial,7550006.0,7553355.0,3349.0,72,R,7550475,7550703,230,487.3,593.6,4880,left
32,2,continuous,22,12,trial,7550006.0,7553355.0,3349.0,72,R,7550783,7551207,426,1394.6,582.3,4738,right
32,2,continuous,22,12,trial,7550006.0,7553355.0,3349.0,72,R,7551233,7551667,436,1544.5,573.8,4862,right
32,2,continuous,22,12,trial,7550006.0,7553355.0,3349.0,72,R,7551691,7551801,112,1527.4,457.0,5020,right
32,2,continuous,22,12,trial,7550006.0,7553355.0,3349.0,72,R,7551883,7552111,230,572.8,488.7,5313,left
32,2,continuous,22,12,trial,7550006.0,7553355.0,3349.0,72,R,7552135,7552411,278,450.3,449.5,5404,left
32,2,continuous,22,12,trial,7550006.0,7553355.0,3349.0,72,R,7552449,7552747,300,201.0,510.0,5374,NA
32,2,continuous,22,12,trial,7550006.0,7553355.0,3349.0,72,R,7552777,7553337,562,451.1,666.8,5551,left
32,2,continuous,22,12,trial,7550006.0,7553355.0,3349.0,72,R,7553355,7553563,210,470.6,730.2,5631,left
32,2,continuous,23,10,fixationCross,7554939.0,7557506.0,2567.0,73,R,7553789,7553895,108,588.2,652.1,5523,left
32,2,continuous,23,10,fixationCross,7554939.0,7557506.0,2567.0,73,R,7554011,7554227,218,1525.4,483.8,5473,right
32,2,continuous,23,10,fixationCross,7554939.0,7557506.0,2567.0,73,R,7554249,7554339,92,1644.7,473.6,5446,right
32,2,continuous,23,10,fixationCross,7554939.0,7557506.0,2567.0,73,R,7554533,7554801,270,862.3,519.2,5520,NA
32,2,continuous,23,10,trial,7554939.0,7557506.0,2567.0,73,R,7554823,7554941,120,898.3,598.6,5453,NA
32,2,continuous,23,10,trial,7554939.0,7557506.0,2567.0,73,R,7554959,7555047,90,774.7,611.7,5467,NA
32,2,continuous,23,10,trial,7554939.0,7557506.0,2567.0,73,R,7555119,7555181,64,515.0,599.3,5459,left
32,2,continuous,23,10,trial,7554939.0,7557506.0,2567.0,73,R,7555299,7555575,278,504.2,555.8,5226,left
32,2,continuous,23,10,trial,7554939.0,7557506.0,2567.0,73,R,7555661,7555999,340,1372.6,478.3,4962,right
32,2,continuous,23,10,trial,7554939.0,7557506.0,2567.0,73,R,7556009,7556031,24,1394.4,484.3,4848,right
32,2,continuous,23,10,trial,7554939.0,7557506.0,2567.0,73,R,7556109,7556559,452,466.1,520.7,5145,left
32,2,continuous,23,10,trial,7554939.0,7557506.0,2567.0,73,R,7556581,7556823,244,504.3,639.1,5352,left
32,2,continuous,23,10,trial,7554939.0,7557506.0,2567.0,73,R,7556941,7557355,416,1421.1,508.3,4981,right
32,2,continuous,23,10,trial,7554939.0,7557506.0,2567.0,73,R,7557427,7557757,332,571.0,559.2,4879,left
32,2,continuous,24,51,fixationCross,7558572.0,7561272.0,2700.0,74,R,7557939,7558191,254,631.5,761.6,4925,NA
32,2,continuous,24,51,fixationCross,7558572.0,7561272.0,2700.0,74,R,7558215,7558255,42,783.1,718.0,4961,NA
32,2,continuous,24,51,fixationCross,7558572.0,7561272.0,2700.0,74,R,7558291,7558453,164,1008.7,596.2,4983,NA
32,2,continuous,24,51,fixationCross,7558572.0,7561272.0,2700.0,74,R,7558469,7558495,28,950.6,590.1,5082,NA
32,2,continuous,24,51,trial,7558572.0,7561272.0,2700.0,74,R,7558659,7558825,168,878.8,512.1,5249,NA
32,2,continuous,24,51,trial,7558572.0,7561272.0,2700.0,74,R,7558873,7559035,164,575.4,580.4,5276,left
32,2,continuous,24,51,trial,7558572.0,7561272.0,2700.0,74,R,7559063,7559345,284,397.8,494.4,4988,left
32,2,continuous,24,51,trial,7558572.0,7561272.0,2700.0,74,R,7559373,7559529,158,542.5,587.4,4825,left
32,2,continuous,24,51,trial,7558572.0,7561272.0,2700.0,74,R,7559599,7559941,344,1353.0,594.8,4755,right
32,2,continuous,24,51,trial,7558572.0,7561272.0,2700.0,74,R,7559963,7560069,108,1458.0,577.6,4724,right
32,2,continuous,24,51,trial,7558572.0,7561272.0,2700.0,74,R,7560141,7560285,146,625.3,637.2,4800,left
32,2,continuous,24,51,trial,7558572.0,7561272.0,2700.0,74,R,7560345,7560511,168,1048.2,903.4,4810,likertHorizontal
32,2,continuous,24,51,trial,7558572.0,7561272.0,2700.0,74,R,7560529,7560815,288,1002.9,931.3,4960,likertHorizontal
32,2,continuous,24,51,trial,7558572.0,7561272.0,2700.0,74,R,7560833,7561251,420,1043.5,885.6,5137,likertHorizontal
32,2,continuous,24,51,trial,7558572.0,7561272.0,2700.0,74,R,7561273,7561507,236,958.6,798.6,5238,likertHorizontal
32,2,continuous,25,24,fixationCross,7563272.0,7564822.0,1550.0,75,R,7561685,7561919,236,854.7,457.2,5273,NA
32,2,continuous,25,24,fixationCross,7563272.0,7564822.0,1550.0,75,R,7561939,7562091,154,770.1,509.6,5324,NA
32,2,continuous,25,24,fixationCross,7563272.0,7564822.0,1550.0,75,R,7562109,7562171,64,873.3,553.3,5404,NA
32,2,continuous,25,24,fixationCross,7563272.0,7564822.0,1550.0,75,R,7562339,7562505,168,767.2,505.0,5368,NA
32,2,continuous,25,24,fixationCross,7563272.0,7564822.0,1550.0,75,R,7562687,7562937,252,550.4,547.5,5225,left
32,2,continuous,25,24,fixationCross,7563272.0,7564822.0,1550.0,75,R,7562961,7563059,100,781.1,577.7,5157,NA
32,2,continuous,25,24,fixationCross,7563272.0,7564822.0,1550.0,75,R,7563077,7563247,172,900.0,593.3,5079,NA
32,2,continuous,25,24,trial,7563272.0,7564822.0,1550.0,75,R,7563257,7563439,184,969.1,587.9,5069,NA
32,2,continuous,25,24,trial,7563272.0,7564822.0,1550.0,75,R,7563489,7563773,286,547.5,632.7,5139,left
32,2,continuous,25,24,trial,7563272.0,7564822.0,1550.0,75,R,7563793,7563853,62,487.6,600.5,4954,left
32,2,continuous,25,24,trial,7563272.0,7564822.0,1550.0,75,R,7563925,7564079,156,1299.3,531.6,4652,right
32,2,continuous,25,24,trial,7563272.0,7564822.0,1550.0,75,R,7564101,7564435,336,1384.7,468.8,4545,right
32,2,continuous,25,24,trial,7563272.0,7564822.0,1550.0,75,R,7564507,7564597,92,904.8,923.4,4754,likertHorizontal
32,2,continuous,25,24,trial,7563272.0,7564822.0,1550.0,75,R,7564615,7564767,154,799.8,923.5,4783,likertHorizontal
32,2,continuous,25,24,trial,7563272.0,7564822.0,1550.0,75,R,7564799,7565025,228,622.2,784.9,4787,NA
32,2,continuous,26,11,fixationCross,7595689.0,7598456.0,2767.0,76,R,7594788,7594930,144,418.8,125.7,4741,NA
32,2,continuous,26,11,fixationCross,7595689.0,7598456.0,2767.0,76,R,7594962,7594984,24,420.0,59.1,4791,NA
32,2,continuous,26,11,fixationCross,7595689.0,7598456.0,2767.0,76,R,7595226,7595298,74,352.1,65.8,4883,NA
32,2,continuous,26,11,fixationCross,7595689.0,7598456.0,2767.0,76,R,7595406,7595484,80,891.1,581.5,5085,NA
32,2,continuous,26,11,trial,7595689.0,7598456.0,2767.0,76,R,7595502,7595846,346,967.9,589.6,5244,NA
32,2,continuous,26,11,trial,7595689.0,7598456.0,2767.0,76,R,7595886,7596032,148,673.8,579.1,5546,left
32,2,continuous,26,11,trial,7595689.0,7598456.0,2767.0,76,R,7596060,7596294,236,478.6,577.9,5076,left
32,2,continuous,26,11,trial,7595689.0,7598456.0,2767.0,76,R,7596498,7596676,180,1362.6,487.6,4650,right
32,2,continuous,26,11,trial,7595689.0,7598456.0,2767.0,76,R,7596694,7596882,190,1417.1,519.8,4795,right
32,2,continuous,26,11,trial,7595689.0,7598456.0,2767.0,76,R,7596910,7597060,152,1606.4,576.8,4754,right
32,2,continuous,26,11,trial,7595689.0,7598456.0,2767.0,76,R,7597146,7597296,152,532.4,548.4,4922,left
32,2,continuous,26,11,trial,7595689.0,7598456.0,2767.0,76,R,7597318,7597494,178,627.3,569.0,4943,left
32,2,continuous,26,11,trial,7595689.0,7598456.0,2767.0,76,R,7597506,7597676,172,642.4,590.8,5067,left
32,2,continuous,26,11,trial,7595689.0,7598456.0,2767.0,76,R,7597706,7597850,146,358.7,488.0,5212,left
32,2,continuous,26,11,trial,7595689.0,7598456.0,2767.0,76,R,7597860,7598004,146,380.6,493.1,5218,left
32,2,continuous,26,11,trial,7595689.0,7598456.0,2767.0,76,R,7598060,7598188,130,585.1,966.8,5320,NA
32,2,continuous,26,11,trial,7595689.0,7598456.0,2767.0,76,R,7598204,7598258,56,656.6,999.6,5341,NA
32,2,continuous,26,11,trial,7595689.0,7598456.0,2767.0,76,R,7598336,7598672,338,1410.7,556.1,5016,right
32,2,continuous,27,14,fixationCross,7599623.0,7604122.0,4499.0,77,R,7599074,7599130,58,-142.4,478.4,5413,NA
32,2,continuous,27,14,fixationCross,7599623.0,7604122.0,4499.0,77,R,7599144,7599164,22,73.9,534.2,5497,NA
32,2,continuous,27,14,fixationCross,7599623.0,7604122.0,4499.0,77,R,7599214,7599278,66,525.9,555.9,5577,left
32,2,continuous,27,14,fixationCross,7599623.0,7604122.0,4499.0,77,R,7599326,7599458,134,911.5,549.3,5445,NA
32,2,continuous,27,14,trial,7599623.0,7604122.0,4499.0,77,R,7599472,7599670,200,960.2,568.2,5340,NA
32,2,continuous,27,14,trial,7599623.0,7604122.0,4499.0,77,R,7600114,7600148,36,416.6,584.4,5695,left
32,2,continuous,27,14,trial,7599623.0,7604122.0,4499.0,77,R,7600244,7600508,266,1283.1,545.4,5650,right
32,2,continuous,27,14,trial,7599623.0,7604122.0,4499.0,77,R,7601068,7601258,192,384.7,570.9,5542,left
32,2,continuous,27,14,trial,7599623.0,7604122.0,4499.0,77,R,7601280,7601480,202,485.3,615.5,5578,left
32,2,continuous,27,14,trial,7599623.0,7604122.0,4499.0,77,R,7601628,7601908,282,1420.5,569.0,5036,right
32,2,continuous,27,14,trial,7599623.0,7604122.0,4499.0,77,R,7602054,7602332,280,1341.4,485.8,5148,right
32,2,continuous,27,14,trial,7599623.0,7604122.0,4499.0,77,R,7602478,7602712,236,1472.2,637.5,5385,right
32,2,continuous,27,14,trial,7599623.0,7604122.0,4499.0,77,R,7602732,7602876,146,1550.1,648.4,5504,right
32,2,continuous,27,14,trial,7599623.0,7604122.0,4499.0,77,R,7603040,7603228,190,1423.9,427.6,5836,right
