participantNo,block,task,blockTrial,response,trialStage,trialStartTime,trialFinishTime,rt,trial,eye,fixStart,fixEnd,fixLength,fixPosX,fixPosY,dilation,aoi
30,1,binary,1,2,fixationCross,20507693.0,20511543.0,3850.0,1,R,20506953,20506971,20,949.0,898.3,4682,likertHorizontal
30,1,binary,1,2,fixationCross,20507693.0,20511543.0,3850.0,1,R,20507027,20507359,334,853.2,562.7,4620,NA
30,1,binary,1,2,fixationCross,20507693.0,20511543.0,3850.0,1,R,20507385,20507575,192,955.3,559.1,4439,NA
30,1,binary,1,2,trial,20507693.0,20511543.0,3850.0,1,R,20507705,20507899,196,988.2,541.9,4463,NA
30,1,binary,1,2,trial,20507693.0,20511543.0,3850.0,1,R,20507949,20508133,186,593.5,623.0,4475,left
30,1,binary,1,2,trial,20507693.0,20511543.0,3850.0,1,R,20508181,20508405,226,983.3,986.9,4303,likertHorizontal
30,1,binary,1,2,trial,20507693.0,20511543.0,3850.0,1,R,20508463,20508653,192,551.9,710.0,4324,left
30,1,binary,1,2,trial,20507693.0,20511543.0,3850.0,1,R,20508685,20508831,148,540.6,574.5,4268,left
30,1,binary,1,2,trial,20507693.0,20511543.0,3850.0,1,R,20508901,20509185,286,1533.2,557.9,3927,right
30,1,binary,1,2,trial,20507693.0,20511543.0,3850.0,1,R,20509243,20509367,126,1015.3,946.5,4014,likertHorizontal
30,1,binary,1,2,trial,20507693.0,20511543.0,3850.0,1,R,20509391,20509443,54,944.3,968.4,4107,likertHorizontal
30,1,binary,1,2,trial,20507693.0,20511543.0,3850.0,1,R,20509491,20509727,238,517.5,637.4,4297,left
30,1,binary,1,2,trial,20507693.0,20511543.0,3850.0,1,R,20509765,20510133,370,559.2,513.7,4041,left
30,1,binary,1,2,trial,20507693.0,20511543.0,3850.0,1,R,20510161,20510245,86,567.4,629.7,3941,left
30,1,binary,1,2,trial,20507693.0,20511543.0,3850.0,1,R,20510293,20510453,162,967.5,977.0,4048,likertHorizontal
30,1,binary,1,2,trial,20507693.0,20511543.0,3850.0,1,R,20510545,20510575,32,937.9,938.7,4274,likertHorizontal
30,1,binary,1,2,trial,20507693.0,20511543.0,3850.0,1,R,20510645,20510693,50,932.1,935.4,4357,likertHorizontal
30,1,binary,1,2,trial,20507693.0,20511543.0,3850.0,1,R,20510795,20511335,542,956.7,969.7,4642,likertHorizontal
30,1,binary,1,2,postResponse,20507693.0,20511543.0,3850.0,1,R,20511385,20511911,528,682.3,788.9,4777,NA
30,1,binary,1,2,postResponse,20507693.0,20511543.0,3850.0,1,R,20511957,20512139,184,959.7,906.2,4971,likertHorizontal
30,1,binary,2,2,fixationCross,20513043.0,20518677.0,5634.0,2,R,20512373,20512555,184,733.0,684.5,5222,left
30,1,binary,2,2,fixationCross,20513043.0,20518677.0,5634.0,2,R,20512595,20512721,128,916.2,795.2,5165,likertHorizontal
30,1,binary,2,2,trial,20513043.0,20518677.0,5634.0,2,R,20512771,20513121,352,949.0,538.1,5060,NA
30,1,binary,2,2,trial,20513043.0,20518677.0,5634.0,2,R,20513265,20513331,68,662.6,529.0,5058,left
30,1,binary,2,2,trial,20513043.0,20518677.0,5634.0,2,R,20513381,20513479,100,500.3,932.5,4592,NA
30,1,binary,2,2,trial,20513043.0,20518677.0,5634.0,2,R,20513545,20513851,308,1427.9,971.9,4041,NA
30,1,binary,2,2,trial,20513043.0,20518677.0,5634.0,2,R,20513905,20514113,210,651.7,913.2,4360,NA
30,1,binary,2,2,trial,20513043.0,20518677.0,5634.0,2,R,20514145,20514363,220,455.3,978.0,4591,NA
30,1,binary,2,2,trial,20513043.0,20518677.0,5634.0,2,R,20514373,20514837,466,437.5,999.1,4628,NA
30,1,binary,2,2,trial,20513043.0,20518677.0,5634.0,2,R,20514903,20515081,180,1371.8,966.6,4762,NA
30,1,binary,2,2,trial,20513043.0,20518677.0,5634.0,2,R,20515145,20515373,230,476.5,968.2,4993,NA
30,1,binary,2,2,trial,20513043.0,20518677.0,5634.0,2,R,20515429,20515759,332,544.4,600.3,4773,left
30,1,binary,2,2,trial,20513043.0,20518677.0,5634.0,2,R,20515825,20516223,400,1410.5,565.8,4014,right
30,1,binary,2,2,trial,20513043.0,20518677.0,5634.0,2,R,20516283,20516685,404,444.4,550.1,4048,left
30,1,binary,2,2,trial,20513043.0,20518677.0,5634.0,2,R,20516713,20516823,112,571.5,483.5,3853,left
30,1,binary,2,2,trial,20513043.0,20518677.0,5634.0,2,R,20516877,20517065,190,1379.6,541.4,3801,right
30,1,binary,2,2,trial,20513043.0,20518677.0,5634.0,2,R,20517091,20517291,202,1493.0,564.5,3816,right
30,1,binary,2,2,trial,20513043.0,20518677.0,5634.0,2,R,20517571,20517601,32,749.7,558.8,4105,NA
30,1,binary,2,2,trial,20513043.0,20518677.0,5634.0,2,R,20517665,20518575,912,1466.4,765.5,4272,NA
30,1,binary,2,2,trial,20513043.0,20518677.0,5634.0,2,R,20518599,20518895,298,1430.5,687.8,4553,right
30,1,binary,3,2,fixationCross,20519577.0,20523377.0,3800.0,3,R,20519199,20519517,320,942.5,577.7,4424,NA
30,1,binary,3,2,trial,20519577.0,20523377.0,3800.0,3,R,20519537,20519779,244,977.3,560.9,4431,NA
30,1,binary,3,2,trial,20519577.0,20523377.0,3800.0,3,R,20519823,20520027,206,568.2,566.9,4246,left
30,1,binary,3,2,trial,20519577.0,20523377.0,3800.0,3,R,20520049,20520077,30,493.4,571.4,3998,left
30,1,binary,3,2,trial,20519577.0,20523377.0,3800.0,3,R,20520143,20520285,144,1354.7,485.3,3842,right
30,1,binary,3,2,trial,20519577.0,20523377.0,3800.0,3,R,20520305,20520575,272,1384.3,448.2,3772,right
30,1,binary,3,2,trial,20519577.0,20523377.0,3800.0,3,R,20520585,20520689,106,1378.2,434.8,3789,right
30,1,binary,3,2,trial,20519577.0,20523377.0,3800.0,3,R,20520759,20521007,250,326.3,600.2,3931,left
30,1,binary,3,2,trial,20519577.0,20523377.0,3800.0,3,R,20521031,20521291,262,416.6,559.8,3819,left
30,1,binary,3,2,trial,20519577.0,20523377.0,3800.0,3,R,20521353,20521441,90,1177.5,515.8,3823,NA
30,1,binary,3,2,trial,20519577.0,20523377.0,3800.0,3,R,20521475,20521621,148,1427.6,465.7,3838,right
30,1,binary,3,2,trial,20519577.0,20523377.0,3800.0,3,R,20521641,20522553,914,1376.8,439.0,4054,right
30,1,binary,3,2,trial,20519577.0,20523377.0,3800.0,3,R,20522607,20522805,200,1349.0,850.0,4394,NA
30,1,binary,3,2,trial,20519577.0,20523377.0,3800.0,3,R,20522831,20522889,60,1440.7,916.9,4453,NA
30,1,binary,3,2,trial,20519577.0,20523377.0,3800.0,3,R,20522945,20523159,216,1383.3,460.3,4477,right
30,1,binary,3,2,trial,20519577.0,20523377.0,3800.0,3,R,20523181,20523653,474,1377.7,434.2,4302,right
30,1,binary,4,2,fixationCross,20524276.0,20527460.0,3184.0,4,R,20523811,20524185,376,995.7,487.3,4493,NA
30,1,binary,4,2,trial,20524276.0,20527460.0,3184.0,4,R,20524205,20524495,292,954.7,535.0,4591,NA
30,1,binary,4,2,trial,20524276.0,20527460.0,3184.0,4,R,20524535,20525573,1040,583.9,573.9,3928,left
30,1,binary,4,2,trial,20524276.0,20527460.0,3184.0,4,R,20525639,20525989,352,1477.0,551.3,3889,right
30,1,binary,4,2,trial,20524276.0,20527460.0,3184.0,4,R,20526011,20526221,212,1406.1,523.6,3829,right
30,1,binary,4,2,trial,20524276.0,20527460.0,3184.0,4,R,20526277,20526659,384,598.9,551.9,3894,left
30,1,binary,4,2,trial,20524276.0,20527460.0,3184.0,4,R,20526717,20526911,196,1265.4,520.6,3840,right
30,1,binary,4,2,trial,20524276.0,20527460.0,3184.0,4,R,20526937,20527653,718,1344.8,560.1,4018,right
30,1,binary,5,2,fixationCross,20528360.0,20531093.0,2733.0,5,R,20528007,20528291,286,1000.9,556.7,4281,NA
30,1,binary,5,2,trial,20528360.0,20531093.0,2733.0,5,R,20528303,20528555,254,970.6,565.4,4350,NA
30,1,binary,5,2,trial,20528360.0,20531093.0,2733.0,5,R,20528599,20528873,276,567.7,561.3,4020,left
30,1,binary,5,2,trial,20528360.0,20531093.0,2733.0,5,R,20528897,20529061,166,454.8,528.0,3736,left
30,1,binary,5,2,trial,20528360.0,20531093.0,2733.0,5,R,20529133,20529507,376,1456.0,536.1,3667,right
30,1,binary,5,2,trial,20528360.0,20531093.0,2733.0,5,R,20529571,20529761,192,496.8,571.8,3742,left
30,1,binary,5,2,trial,20528360.0,20531093.0,2733.0,5,R,20529781,20529983,204,440.3,533.3,3800,left
30,1,binary,5,2,trial,20528360.0,20531093.0,2733.0,5,R,20530019,20530331,314,577.4,548.2,3946,left
30,1,binary,5,2,trial,20528360.0,20531093.0,2733.0,5,R,20530401,20531007,608,1498.3,572.4,3891,right
30,1,binary,5,2,trial,20528360.0,20531093.0,2733.0,5,R,20531025,20531323,300,1468.3,536.0,3946,right
30,1,binary,5,2,postResponse,20528360.0,20531093.0,2733.0,5,R,20531365,20531427,64,1071.4,555.8,4053,NA
30,1,binary,6,1,fixationCross,20532026.0,20534477.0,2451.0,6,R,20531529,20531915,388,916.4,554.7,4069,NA
30,1,binary,6,1,trial,20532026.0,20534477.0,2451.0,6,R,20531937,20532233,298,988.0,547.0,4264,NA
30,1,binary,6,1,trial,20532026.0,20534477.0,2451.0,6,R,20532279,20532497,220,548.2,567.4,4146,left
30,1,binary,6,1,trial,20532026.0,20534477.0,2451.0,6,R,20532521,20532733,214,475.8,519.6,3895,left
30,1,binary,6,1,trial,20532026.0,20534477.0,2451.0,6,R,20532797,20533085,290,1480.5,527.7,3821,right
30,1,binary,6,1,trial,20532026.0,20534477.0,2451.0,6,R,20533111,20533469,360,1592.4,560.6,3689,right
30,1,binary,6,1,trial,20532026.0,20534477.0,2451.0,6,R,20533499,20533617,120,1424.6,473.0,3638,right
30,1,binary,6,1,trial,20532026.0,20534477.0,2451.0,6,R,20533681,20534351,672,460.0,540.5,3910,left
30,1,binary,6,1,trial,20532026.0,20534477.0,2451.0,6,R,20534377,20534755,380,471.9,444.9,4214,left
30,1,binary,7,2,fixationCross,20535409.0,20537360.0,1951.0,7,R,20534911,20534941,32,769.9,487.5,4156,NA
30,1,binary,7,2,fixationCross,20535409.0,20537360.0,1951.0,7,R,20535165,20535311,148,911.2,513.3,4249,NA
30,1,binary,7,2,trial,20535409.0,20537360.0,1951.0,7,R,20535333,20535613,282,980.8,544.4,4202,NA
30,1,binary,7,2,trial,20535409.0,20537360.0,1951.0,7,R,20535663,20535873,212,1369.3,560.9,3961,right
30,1,binary,7,2,trial,20535409.0,20537360.0,1951.0,7,R,20536027,20536373,348,454.6,559.7,3634,left
30,1,binary,7,2,trial,20535409.0,20537360.0,1951.0,7,R,20536397,20536471,76,523.4,551.0,3499,left
30,1,binary,7,2,trial,20535409.0,20537360.0,1951.0,7,R,20536637,20536689,54,1413.4,500.5,3531,right
30,1,binary,7,2,trial,20535409.0,20537360.0,1951.0,7,R,20536843,20537195,354,1350.1,547.9,3708,right
30,1,binary,7,2,trial,20535409.0,20537360.0,1951.0,7,R,20537207,20537577,372,1376.3,559.7,4011,right
30,1,binary,8,2,fixationCross,20538460.0,20542894.0,4434.0,8,R,20537795,20537921,128,1118.8,518.7,3976,NA
30,1,binary,8,2,trial,20538460.0,20542894.0,4434.0,8,R,20538185,20538489,306,958.8,505.2,4101,NA
30,1,binary,8,2,trial,20538460.0,20542894.0,4434.0,8,R,20538499,20538665,168,979.8,537.6,4120,NA
30,1,binary,8,2,trial,20538460.0,20542894.0,4434.0,8,R,20538709,20538917,210,573.4,573.8,3982,left
30,1,binary,8,2,trial,20538460.0,20542894.0,4434.0,8,R,20538939,20539055,118,483.3,552.9,3746,left
30,1,binary,8,2,trial,20538460.0,20542894.0,4434.0,8,R,20539111,20539309,200,1308.2,530.0,3697,right
30,1,binary,8,2,trial,20538460.0,20542894.0,4434.0,8,R,20539335,20539481,148,1429.3,556.4,3677,right
30,1,binary,8,2,trial,20538460.0,20542894.0,4434.0,8,R,20539539,20539789,252,539.6,573.2,3835,left
30,1,binary,8,2,trial,20538460.0,20542894.0,4434.0,8,R,20539811,20540003,194,467.1,604.4,3894,left
30,1,binary,8,2,trial,20538460.0,20542894.0,4434.0,8,R,20540031,20540209,180,599.0,627.4,3972,left
30,1,binary,8,2,trial,20538460.0,20542894.0,4434.0,8,R,20540261,20540755,496,1396.5,573.9,3891,right
30,1,binary,8,2,trial,20538460.0,20542894.0,4434.0,8,R,20540779,20541021,244,1501.9,583.6,3847,right
30,1,binary,8,2,trial,20538460.0,20542894.0,4434.0,8,R,20541083,20541347,266,548.2,557.6,4033,left
30,1,binary,8,2,trial,20538460.0,20542894.0,4434.0,8,R,20541369,20541661,294,485.8,521.3,3965,left
30,1,binary,8,2,trial,20538460.0,20542894.0,4434.0,8,R,20541683,20541811,130,478.5,586.5,4042,left
30,1,binary,8,2,trial,20538460.0,20542894.0,4434.0,8,R,20541837,20542111,276,573.5,615.3,4116,left
30,1,binary,8,2,trial,20538460.0,20542894.0,4434.0,8,R,20542133,20542225,94,633.6,623.5,4147,left
30,1,binary,8,2,trial,20538460.0,20542894.0,4434.0,8,R,20542277,20542837,562,1313.1,647.5,4144,right
30,1,binary,8,2,trial,20538460.0,20542894.0,4434.0,8,R,20542861,20543121,262,1394.2,615.7,4250,right
30,1,binary,8,2,postResponse,20538460.0,20542894.0,4434.0,8,R,20543155,20543227,74,993.3,555.0,4402,NA
30,1,binary,9,1,fixationCross,20544010.0,20545627.0,1617.0,9,R,20543445,20543701,258,844.0,535.1,4414,NA
30,1,binary,9,1,trial,20544010.0,20545627.0,1617.0,9,R,20543729,20544229,502,978.6,544.2,4358,NA
30,1,binary,9,1,trial,20544010.0,20545627.0,1617.0,9,R,20544269,20544389,122,601.8,570.0,4227,left
30,1,binary,9,1,trial,20544010.0,20545627.0,1617.0,9,R,20544449,20544571,124,1285.3,571.7,3825,right
30,1,binary,9,1,trial,20544010.0,20545627.0,1617.0,9,R,20544597,20544693,98,1405.8,596.5,3667,right
30,1,binary,9,1,trial,20544010.0,20545627.0,1617.0,9,R,20544751,20544965,216,558.1,580.5,3618,left
30,1,binary,9,1,trial,20544010.0,20545627.0,1617.0,9,R,20544991,20545423,434,521.0,497.9,3647,left
30,1,binary,9,1,trial,20544010.0,20545627.0,1617.0,9,R,20545443,20545881,440,524.4,468.6,3834,left
30,1,binary,10,2,fixationCross,20546544.0,20549127.0,2583.0,10,R,20546191,20546433,244,1047.4,493.8,3992,NA
30,1,binary,10,2,trial,20546544.0,20549127.0,2583.0,10,R,20546457,20546745,290,968.6,546.2,4199,NA
30,1,binary,10,2,trial,20546544.0,20549127.0,2583.0,10,R,20546789,20547013,226,517.5,562.9,4075,left
30,1,binary,10,2,trial,20546544.0,20549127.0,2583.0,10,R,20547033,20547261,230,442.3,549.8,3714,left
30,1,binary,10,2,trial,20546544.0,20549127.0,2583.0,10,R,20547289,20547431,144,576.9,585.3,3700,left
30,1,binary,10,2,trial,20546544.0,20549127.0,2583.0,10,R,20547491,20547707,218,1530.1,542.3,3680,right
30,1,binary,10,2,trial,20546544.0,20549127.0,2583.0,10,R,20547733,20548339,608,1603.4,495.9,3678,right
30,1,binary,10,2,trial,20546544.0,20549127.0,2583.0,10,R,20548403,20548833,432,652.1,527.3,3886,left
30,1,binary,10,2,trial,20546544.0,20549127.0,2583.0,10,R,20548887,20549075,190,1402.0,539.0,3858,right
30,1,binary,10,2,trial,20546544.0,20549127.0,2583.0,10,R,20549103,20549375,274,1544.6,510.2,3815,right
30,1,binary,11,2,fixationCross,20550193.0,20554393.0,4200.0,11,R,20549595,20549891,298,1165.8,555.6,3987,NA
30,1,binary,11,2,trial,20550193.0,20554393.0,4200.0,11,R,20549925,20550391,468,967.1,553.1,4145,NA
30,1,binary,11,2,trial,20550193.0,20554393.0,4200.0,11,R,20550435,20550619,186,547.3,495.7,4002,left
30,1,binary,11,2,trial,20550193.0,20554393.0,4200.0,11,R,20550645,20550815,172,515.5,416.1,3640,left
30,1,binary,11,2,trial,20550193.0,20554393.0,4200.0,11,R,20550873,20551109,238,1394.8,566.6,3578,right
30,1,binary,11,2,trial,20550193.0,20554393.0,4200.0,11,R,20551129,20551235,108,1452.2,570.9,3649,right
30,1,binary,11,2,trial,20550193.0,20554393.0,4200.0,11,R,20551411,20551517,108,1498.8,511.6,3938,right
30,1,binary,11,2,trial,20550193.0,20554393.0,4200.0,11,R,20551577,20551763,188,578.1,473.4,3909,left
30,1,binary,11,2,trial,20550193.0,20554393.0,4200.0,11,R,20551789,20551987,200,516.1,400.0,3864,left
30,1,binary,11,2,trial,20550193.0,20554393.0,4200.0,11,R,20552043,20552199,158,1379.7,466.5,3739,right
30,1,binary,11,2,trial,20550193.0,20554393.0,4200.0,11,R,20552237,20552409,174,1526.8,558.0,3738,right
30,1,binary,11,2,trial,20550193.0,20554393.0,4200.0,11,R,20552435,20552775,342,1644.1,559.6,3772,right
30,1,binary,11,2,trial,20550193.0,20554393.0,4200.0,11,R,20552953,20553123,172,602.7,481.9,3958,left
30,1,binary,11,2,trial,20550193.0,20554393.0,4200.0,11,R,20553149,20553331,184,535.1,415.5,3865,left
30,1,binary,11,2,trial,20550193.0,20554393.0,4200.0,11,R,20553503,20553649,148,546.8,420.2,3825,left
30,1,binary,11,2,trial,20550193.0,20554393.0,4200.0,11,R,20553711,20554111,402,1330.7,573.1,3885,right
30,1,binary,11,2,trial,20550193.0,20554393.0,4200.0,11,R,20554123,20554695,574,1297.1,573.1,3938,right
30,1,binary,12,1,trial,20555294.0,20557561.0,2267.0,12,R,20554871,20555327,458,904.6,542.3,4012,NA
30,1,binary,12,1,trial,20555294.0,20557561.0,2267.0,12,R,20555351,20555509,160,970.0,540.7,4143,NA
30,1,binary,12,1,trial,20555294.0,20557561.0,2267.0,12,R,20555555,20555773,220,501.0,573.3,4008,left
30,1,binary,12,1,trial,20555294.0,20557561.0,2267.0,12,R,20555791,20555917,128,442.7,563.4,3742,left
30,1,binary,12,1,trial,20555294.0,20557561.0,2267.0,12,R,20555979,20556207,230,1426.4,566.2,3605,right
30,1,binary,12,1,trial,20555294.0,20557561.0,2267.0,12,R,20556233,20556703,472,1527.4,597.0,3629,right
30,1,binary,12,1,trial,20555294.0,20557561.0,2267.0,12,R,20556721,20556749,30,1569.1,636.0,3702,right
30,1,binary,12,1,trial,20555294.0,20557561.0,2267.0,12,R,20556815,20557017,204,558.8,584.4,3823,left
30,1,binary,12,1,trial,20555294.0,20557561.0,2267.0,12,R,20557039,20557435,398,475.4,568.9,3733,left
30,1,binary,12,1,postResponse,20555294.0,20557561.0,2267.0,12,R,20557461,20557893,434,472.7,502.1,3857,left
30,1,binary,13,2,fixationCross,20558577.0,20560593.0,2016.0,13,R,20558185,20558237,54,910.6,540.0,4149,NA
30,1,binary,13,2,trial,20558577.0,20560593.0,2016.0,13,R,20558397,20558659,264,966.4,528.7,4124,NA
30,1,binary,13,2,trial,20558577.0,20560593.0,2016.0,13,R,20558691,20558845,156,750.2,544.6,4253,NA
30,1,binary,13,2,trial,20558577.0,20560593.0,2016.0,13,R,20558879,20559081,204,553.9,524.4,3994,left
30,1,binary,13,2,trial,20558577.0,20560593.0,2016.0,13,R,20559103,20559341,240,502.7,473.1,3707,left
30,1,binary,13,2,trial,20558577.0,20560593.0,2016.0,13,R,20559365,20559429,66,561.3,429.2,3649,left
30,1,binary,13,2,trial,20558577.0,20560593.0,2016.0,13,R,20559495,20559757,264,1382.1,625.7,3637,right
30,1,binary,13,2,trial,20558577.0,20560593.0,2016.0,13,R,20559783,20560111,330,1471.4,568.9,3773,right
30,1,binary,13,2,trial,20558577.0,20560593.0,2016.0,13,R,20560129,20560463,336,1494.0,535.6,3747,right
30,1,binary,13,2,postResponse,20558577.0,20560593.0,2016.0,13,R,20560531,20560925,396,505.4,495.0,3857,left
30,1,binary,14,2,trial,20561477.0,20563677.0,2200.0,14,R,20561211,20561481,272,962.9,505.9,3847,NA
30,1,binary,14,2,trial,20561477.0,20563677.0,2200.0,14,R,20561501,20561671,172,985.7,559.9,3971,NA
30,1,binary,14,2,trial,20561477.0,20563677.0,2200.0,14,R,20561713,20561923,212,591.9,559.7,3975,left
30,1,binary,14,2,trial,20561477.0,20563677.0,2200.0,14,R,20561979,20562211,234,1406.0,574.7,3611,right
30,1,binary,14,2,trial,20561477.0,20563677.0,2200.0,14,R,20562239,20562417,180,1548.2,544.1,3535,right
30,1,binary,14,2,trial,20561477.0,20563677.0,2200.0,14,R,20562487,20562875,390,463.5,667.8,3688,left
30,1,binary,14,2,trial,20561477.0,20563677.0,2200.0,14,R,20562887,20562987,102,486.5,676.6,3656,left
30,1,binary,14,2,trial,20561477.0,20563677.0,2200.0,14,R,20563051,20563691,642,1458.8,626.9,3789,right
30,1,binary,14,2,trial,20561477.0,20563677.0,2200.0,14,R,20563715,20563907,194,1433.5,556.8,4075,right
30,1,binary,15,1,fixationCross,20564744.0,20567244.0,2500.0,15,R,20564167,20564321,156,906.3,548.8,4123,NA
30,1,binary,15,1,trial,20564744.0,20567244.0,2500.0,15,R,20564517,20564943,428,965.6,552.6,4157,NA
30,1,binary,15,1,trial,20564744.0,20567244.0,2500.0,15,R,20564985,20565131,148,563.2,545.0,4102,left
30,1,binary,15,1,trial,20564744.0,20567244.0,2500.0,15,R,20565427,20565877,452,502.4,508.5,3826,left
30,1,binary,15,1,trial,20564744.0,20567244.0,2500.0,15,R,20565943,20566067,126,1275.5,538.0,3941,right
30,1,binary,15,1,trial,20564744.0,20567244.0,2500.0,15,R,20566095,20566319,226,1399.8,554.4,3921,right
30,1,binary,15,1,trial,20564744.0,20567244.0,2500.0,15,R,20566345,20566471,128,1440.2,486.2,3869,right
30,1,binary,15,1,trial,20564744.0,20567244.0,2500.0,15,R,20566535,20566755,222,449.7,561.6,3886,left
30,1,binary,15,1,trial,20564744.0,20567244.0,2500.0,15,R,20566773,20567145,374,487.0,533.9,3755,left
30,1,binary,15,1,trial,20564744.0,20567244.0,2500.0,15,R,20567157,20567531,376,498.3,512.7,3851,left
30,1,binary,16,2,fixationCross,20568377.0,20570794.0,2417.0,16,R,20567651,20567709,60,708.8,523.2,3845,left
30,1,binary,16,2,fixationCross,20568377.0,20570794.0,2417.0,16,R,20567729,20567769,42,800.5,498.0,3887,NA
30,1,binary,16,2,fixationCross,20568377.0,20570794.0,2417.0,16,R,20567869,20568001,134,860.9,530.0,4004,NA
30,1,binary,16,2,trial,20568377.0,20570794.0,2417.0,16,R,20568187,20568579,394,972.8,540.5,4145,NA
30,1,binary,16,2,trial,20568377.0,20570794.0,2417.0,16,R,20568621,20568829,210,607.8,594.0,3958,left
30,1,binary,16,2,trial,20568377.0,20570794.0,2417.0,16,R,20568889,20569035,148,1322.2,539.2,3509,right
30,1,binary,16,2,trial,20568377.0,20570794.0,2417.0,16,R,20569063,20569289,228,1444.2,520.4,3464,right
30,1,binary,16,2,trial,20568377.0,20570794.0,2417.0,16,R,20569351,20569587,238,488.0,607.8,3633,left
30,1,binary,16,2,trial,20568377.0,20570794.0,2417.0,16,R,20569605,20569985,382,516.8,643.2,3590,left
30,1,binary,16,2,trial,20568377.0,20570794.0,2417.0,16,R,20570043,20570127,86,1404.0,543.0,3604,right
30,1,binary,16,2,trial,20568377.0,20570794.0,2417.0,16,R,20570301,20570665,366,1470.3,475.7,3641,right
30,1,binary,16,2,trial,20568377.0,20570794.0,2417.0,16,R,20570811,20571007,198,1462.6,460.1,3815,right
30,1,binary,17,1,fixationCross,20571727.0,20574910.0,3183.0,17,R,20571311,20571437,128,865.0,550.0,3875,NA
30,1,binary,17,1,fixationCross,20571727.0,20574910.0,3183.0,17,R,20571469,20571685,218,1008.6,562.9,3840,NA
30,1,binary,17,1,trial,20571727.0,20574910.0,3183.0,17,R,20571697,20571927,232,977.8,557.1,3968,NA
30,1,binary,17,1,trial,20571727.0,20574910.0,3183.0,17,R,20571965,20572195,232,694.0,567.6,3896,left
30,1,binary,17,1,trial,20571727.0,20574910.0,3183.0,17,R,20572217,20572423,208,616.6,522.5,3570,left
30,1,binary,17,1,trial,20571727.0,20574910.0,3183.0,17,R,20572437,20572481,46,611.3,496.5,3473,left
30,1,binary,17,1,trial,20571727.0,20574910.0,3183.0,17,R,20572541,20572799,260,1505.9,539.0,3369,right
30,1,binary,17,1,trial,20571727.0,20574910.0,3183.0,17,R,20572815,20573163,350,1552.4,540.3,3510,right
30,1,binary,17,1,trial,20571727.0,20574910.0,3183.0,17,R,20573225,20573419,196,661.7,512.7,3702,left
30,1,binary,17,1,trial,20571727.0,20574910.0,3183.0,17,R,20573439,20573707,270,602.5,477.0,3519,left
30,1,binary,17,1,trial,20571727.0,20574910.0,3183.0,17,R,20573731,20574137,408,673.2,531.8,3459,left
30,1,binary,17,1,trial,20571727.0,20574910.0,3183.0,17,R,20574189,20574389,202,1323.3,561.2,3735,right
30,1,binary,17,1,trial,20571727.0,20574910.0,3183.0,17,R,20574439,20574771,334,693.9,680.2,3838,left
30,1,binary,17,1,postResponse,20571727.0,20574910.0,3183.0,17,R,20574801,20575243,444,624.5,523.0,3900,left
30,1,binary,18,1,fixationCross,20576127.0,20579361.0,3234.0,18,R,20575321,20575357,38,721.2,536.4,3804,left
30,1,binary,18,1,fixationCross,20576127.0,20579361.0,3234.0,18,R,20575579,20575807,230,734.7,533.2,4033,left
30,1,binary,18,1,trial,20576127.0,20579361.0,3234.0,18,R,20575853,20576307,456,989.6,547.0,4159,NA
30,1,binary,18,1,trial,20576127.0,20579361.0,3234.0,18,R,20576351,20576593,244,548.7,549.8,3951,left
30,1,binary,18,1,trial,20576127.0,20579361.0,3234.0,18,R,20576613,20576735,124,607.4,566.7,3547,left
30,1,binary,18,1,trial,20576127.0,20579361.0,3234.0,18,R,20576795,20577087,294,1493.0,586.8,3471,right
30,1,binary,18,1,trial,20576127.0,20579361.0,3234.0,18,R,20577097,20577439,344,1523.6,590.3,3443,right
30,1,binary,18,1,trial,20576127.0,20579361.0,3234.0,18,R,20577503,20577781,280,589.3,561.9,3675,left
30,1,binary,18,1,trial,20576127.0,20579361.0,3234.0,18,R,20577809,20578303,496,461.3,586.3,3787,left
30,1,binary,18,1,trial,20576127.0,20579361.0,3234.0,18,R,20578333,20578497,166,648.0,519.4,3914,left
30,1,binary,18,1,trial,20576127.0,20579361.0,3234.0,18,R,20578549,20578891,344,934.8,973.2,3975,likertHorizontal
30,1,binary,18,1,trial,20576127.0,20579361.0,3234.0,18,R,20578937,20579167,232,629.8,644.7,4155,left
30,1,binary,18,1,trial,20576127.0,20579361.0,3234.0,18,R,20579193,20579617,426,623.8,556.8,4161,left
30,1,binary,19,2,fixationCross,20580528.0,20582828.0,2300.0,19,R,20579909,20580203,296,824.6,539.5,4207,NA
30,1,binary,19,2,fixationCross,20580528.0,20582828.0,2300.0,19,R,20580233,20580451,220,1013.0,559.2,4289,NA
30,1,binary,19,2,trial,20580528.0,20582828.0,2300.0,19,R,20580463,20580775,314,988.5,574.4,4212,NA
30,1,binary,19,2,trial,20580528.0,20582828.0,2300.0,19,R,20580819,20581021,204,497.4,575.5,3869,left
30,1,binary,19,2,trial,20580528.0,20582828.0,2300.0,19,R,20581081,20581357,278,1434.4,538.2,3478,right
30,1,binary,19,2,trial,20580528.0,20582828.0,2300.0,19,R,20581381,20581629,250,1473.5,471.5,3497,right
30,1,binary,19,2,trial,20580528.0,20582828.0,2300.0,19,R,20581687,20581881,196,588.9,566.7,3636,left
30,1,binary,19,2,trial,20580528.0,20582828.0,2300.0,19,R,20581911,20582095,186,402.5,570.1,3594,left
30,1,binary,19,2,trial,20580528.0,20582828.0,2300.0,19,R,20582155,20582347,194,1371.6,540.8,3559,right
30,1,binary,19,2,trial,20580528.0,20582828.0,2300.0,19,R,20582377,20582649,274,1474.9,478.4,3577,right
30,1,binary,19,2,trial,20580528.0,20582828.0,2300.0,19,R,20582667,20583097,432,1468.7,450.1,3681,right
30,1,binary,20,2,trial,20583744.0,20588144.0,4400.0,20,R,20583285,20583935,652,881.5,571.5,3927,NA
30,1,binary,20,2,trial,20583744.0,20588144.0,4400.0,20,R,20583975,20584103,130,526.1,546.8,3974,left
30,1,binary,20,2,trial,20583744.0,20588144.0,4400.0,20,R,20584169,20584323,156,1363.2,551.3,3562,right
30,1,binary,20,2,trial,20583744.0,20588144.0,4400.0,20,R,20584345,20584513,170,1445.1,563.3,3496,right
30,1,binary,20,2,trial,20583744.0,20588144.0,4400.0,20,R,20584539,20584635,98,1545.6,566.7,3513,right
30,1,binary,20,2,trial,20583744.0,20588144.0,4400.0,20,R,20584703,20584957,256,477.9,525.8,3721,left
30,1,binary,20,2,trial,20583744.0,20588144.0,4400.0,20,R,20584981,20585171,192,465.1,610.8,3728,left
30,1,binary,20,2,trial,20583744.0,20588144.0,4400.0,20,R,20585181,20585407,228,481.9,628.8,3831,left
30,1,binary,20,2,trial,20583744.0,20588144.0,4400.0,20,R,20585561,20585709,150,1338.0,506.2,3994,right
30,1,binary,20,2,trial,20583744.0,20588144.0,4400.0,20,R,20585765,20586145,382,599.2,509.6,3942,left
30,1,binary,20,2,trial,20583744.0,20588144.0,4400.0,20,R,20586203,20586565,364,1504.9,555.0,3836,right
30,1,binary,20,2,trial,20583744.0,20588144.0,4400.0,20,R,20586575,20586773,200,1529.9,564.2,3772,right
30,1,binary,20,2,trial,20583744.0,20588144.0,4400.0,20,R,20586997,20587325,330,585.2,485.9,3891,left
30,1,binary,20,2,trial,20583744.0,20588144.0,4400.0,20,R,20587345,20587855,512,488.4,464.4,3770,left
30,1,binary,20,2,trial,20583744.0,20588144.0,4400.0,20,R,20587883,20587935,54,668.8,517.8,3783,left
30,1,binary,20,2,trial,20583744.0,20588144.0,4400.0,20,R,20587995,20588165,172,1317.5,591.8,3770,right
30,1,binary,20,2,trial,20583744.0,20588144.0,4400.0,20,R,20588193,20588373,182,1424.1,579.2,3763,right
30,1,binary,21,1,fixationCross,20589311.0,20591644.0,2333.0,21,R,20588579,20588627,50,829.2,579.6,3924,NA
30,1,binary,21,1,fixationCross,20589311.0,20591644.0,2333.0,21,R,20588859,20589005,148,813.1,549.4,3960,NA
30,1,binary,21,1,trial,20589311.0,20591644.0,2333.0,21,R,20589035,20589465,432,968.9,561.2,4051,NA
30,1,binary,21,1,trial,20589311.0,20591644.0,2333.0,21,R,20589513,20589817,306,501.1,590.0,3869,left
30,1,binary,21,1,trial,20589311.0,20591644.0,2333.0,21,R,20589841,20589923,84,469.2,522.3,3475,left
30,1,binary,21,1,trial,20589311.0,20591644.0,2333.0,21,R,20589985,20590243,260,1445.4,504.0,3392,right
30,1,binary,21,1,trial,20589311.0,20591644.0,2333.0,21,R,20590267,20590517,252,1436.2,444.2,3459,right
30,1,binary,21,1,trial,20589311.0,20591644.0,2333.0,21,R,20590579,20590809,232,466.3,540.0,3618,left
30,1,binary,21,1,trial,20589311.0,20591644.0,2333.0,21,R,20590845,20591543,700,613.0,556.2,3629,left
30,1,binary,21,1,trial,20589311.0,20591644.0,2333.0,21,R,20591567,20591953,388,521.3,539.5,3900,left
30,1,binary,22,1,fixationCross,20592844.0,20598228.0,5384.0,22,R,20592279,20592549,272,804.6,522.1,3986,NA
30,1,binary,22,1,trial,20592844.0,20598228.0,5384.0,22,R,20592575,20593035,462,934.8,554.7,4128,NA
30,1,binary,22,1,trial,20592844.0,20598228.0,5384.0,22,R,20593075,20593355,282,565.5,579.9,3889,left
30,1,binary,22,1,trial,20592844.0,20598228.0,5384.0,22,R,20593409,20593625,218,1346.1,578.4,3474,right
30,1,binary,22,1,trial,20592844.0,20598228.0,5384.0,22,R,20593651,20593857,208,1481.3,562.4,3407,right
30,1,binary,22,1,trial,20592844.0,20598228.0,5384.0,22,R,20593883,20594087,206,1592.6,588.3,3359,right
30,1,binary,22,1,trial,20592844.0,20598228.0,5384.0,22,R,20594111,20594481,372,1508.1,537.6,3406,right
30,1,binary,22,1,trial,20592844.0,20598228.0,5384.0,22,R,20594501,20594703,204,1578.9,551.6,3467,right
30,1,binary,22,1,trial,20592844.0,20598228.0,5384.0,22,R,20594763,20594897,136,665.1,574.1,3650,left
30,1,binary,22,1,trial,20592844.0,20598228.0,5384.0,22,R,20594961,20595495,536,1455.6,561.9,3667,right
30,1,binary,22,1,trial,20592844.0,20598228.0,5384.0,22,R,20595525,20595603,80,1329.3,618.6,3694,right
30,1,binary,22,1,trial,20592844.0,20598228.0,5384.0,22,R,20595661,20595883,224,530.0,555.3,3787,left
30,1,binary,22,1,trial,20592844.0,20598228.0,5384.0,22,R,20595893,20596801,910,553.2,562.1,3970,left
30,1,binary,22,1,trial,20592844.0,20598228.0,5384.0,22,R,20596831,20597105,276,419.3,528.5,4200,left
30,1,binary,22,1,trial,20592844.0,20598228.0,5384.0,22,R,20597127,20597321,196,446.1,557.1,4126,left
30,1,binary,22,1,trial,20592844.0,20598228.0,5384.0,22,R,20597375,20597521,148,790.9,856.7,4222,likertHorizontal
30,1,binary,22,1,trial,20592844.0,20598228.0,5384.0,22,R,20597571,20597747,178,1140.6,946.8,4297,likertHorizontal
30,1,binary,22,1,trial,20592844.0,20598228.0,5384.0,22,R,20597795,20597977,184,844.3,972.1,4418,likertHorizontal
30,1,binary,22,1,trial,20592844.0,20598228.0,5384.0,22,R,20598171,20598423,254,642.1,598.3,4370,left
30,1,binary,22,1,postResponse,20592844.0,20598228.0,5384.0,22,R,20598477,20598561,86,1129.6,638.4,4218,NA
30,1,binary,23,2,fixationCross,20599477.0,20602727.0,3250.0,23,R,20598925,20599227,304,906.2,687.7,4297,NA
30,1,binary,23,2,trial,20599477.0,20602727.0,3250.0,23,R,20599261,20599539,280,969.4,576.9,4323,NA
30,1,binary,23,2,trial,20599477.0,20602727.0,3250.0,23,R,20599573,20599743,172,777.8,619.5,4343,NA
30,1,binary,23,2,trial,20599477.0,20602727.0,3250.0,23,R,20599771,20599819,50,620.9,575.4,4208,left
30,1,binary,23,2,trial,20599477.0,20602727.0,3250.0,23,R,20599873,20600031,160,968.7,933.1,3885,likertHorizontal
30,1,binary,23,2,trial,20599477.0,20602727.0,3250.0,23,R,20600049,20600191,144,962.8,977.7,3815,likertHorizontal
30,1,binary,23,2,trial,20599477.0,20602727.0,3250.0,23,R,20600241,20600453,214,580.1,626.0,4022,left
30,1,binary,23,2,trial,20599477.0,20602727.0,3250.0,23,R,20600479,20600615,138,516.5,525.0,3925,left
30,1,binary,23,2,trial,20599477.0,20602727.0,3250.0,23,R,20600675,20600917,244,1465.1,570.7,3694,right
30,1,binary,23,2,trial,20599477.0,20602727.0,3250.0,23,R,20600943,20601219,278,1459.0,484.5,3750,right
30,1,binary,23,2,trial,20599477.0,20602727.0,3250.0,23,R,20601241,20601325,86,1386.9,463.0,3834,right
30,1,binary,23,2,trial,20599477.0,20602727.0,3250.0,23,R,20601381,20601587,208,604.9,494.6,3891,left
30,1,binary,23,2,trial,20599477.0,20602727.0,3250.0,23,R,20601621,20601927,308,366.1,557.3,3765,left
30,1,binary,23,2,trial,20599477.0,20602727.0,3250.0,23,R,20601957,20602029,74,491.0,463.9,3765,left
30,1,binary,23,2,trial,20599477.0,20602727.0,3250.0,23,R,20602091,20602365,276,1439.4,511.9,3721,right
30,1,binary,23,2,trial,20599477.0,20602727.0,3250.0,23,R,20602387,20602609,224,1443.2,477.4,3767,right
30,1,binary,23,2,trial,20599477.0,20602727.0,3250.0,23,R,20602631,20602981,352,1508.3,472.2,3808,right
30,1,binary,24,2,fixationCross,20603611.0,20605727.0,2116.0,24,R,20603151,20603429,280,919.1,513.4,3955,NA
30,1,binary,24,2,trial,20603611.0,20605727.0,2116.0,24,R,20603449,20603657,210,866.6,549.1,4019,NA
30,1,binary,24,2,trial,20603611.0,20605727.0,2116.0,24,R,20603683,20603813,132,965.8,557.3,4104,NA
30,1,binary,24,2,trial,20603611.0,20605727.0,2116.0,24,R,20603857,20604167,312,526.3,540.0,3809,left
30,1,binary,24,2,trial,20603611.0,20605727.0,2116.0,24,R,20604185,20604259,76,489.5,481.1,3452,left
30,1,binary,24,2,trial,20603611.0,20605727.0,2116.0,24,R,20604315,20604385,72,1127.2,500.0,3401,NA
30,1,binary,24,2,trial,20603611.0,20605727.0,2116.0,24,R,20604423,20604681,260,1444.4,568.1,3356,right
30,1,binary,24,2,trial,20603611.0,20605727.0,2116.0,24,R,20604703,20604883,182,1465.4,513.1,3301,right
30,1,binary,24,2,trial,20603611.0,20605727.0,2116.0,24,R,20604945,20605351,408,567.1,507.7,3384,left
30,1,binary,24,2,trial,20603611.0,20605727.0,2116.0,24,R,20605371,20605605,236,496.5,493.3,3520,left
30,1,binary,24,2,trial,20603611.0,20605727.0,2116.0,24,R,20605667,20606023,358,1430.7,629.0,3709,right
30,1,binary,25,1,fixationCross,20607711.0,20610661.0,2950.0,25,R,20606315,20607417,1104,850.0,534.0,3972,NA
30,1,binary,25,1,fixationCross,20607711.0,20610661.0,2950.0,25,R,20607441,20607679,240,930.2,556.1,4161,NA
30,1,binary,25,1,trial,20607711.0,20610661.0,2950.0,25,R,20607693,20607903,212,961.7,554.4,4230,NA
30,1,binary,25,1,trial,20607711.0,20610661.0,2950.0,25,R,20607947,20608217,272,575.5,540.7,4089,left
30,1,binary,25,1,trial,20607711.0,20610661.0,2950.0,25,R,20608275,20608491,218,1371.9,583.9,3724,right
30,1,binary,25,1,trial,20607711.0,20610661.0,2950.0,25,R,20608515,20608835,322,1472.2,569.6,3563,right
30,1,binary,25,1,trial,20607711.0,20610661.0,2950.0,25,R,20608849,20609091,244,1479.7,544.5,3489,right
30,1,binary,25,1,trial,20607711.0,20610661.0,2950.0,25,R,20609155,20609659,506,539.7,551.8,3670,left
30,1,binary,25,1,trial,20607711.0,20610661.0,2950.0,25,R,20609689,20609921,234,390.7,504.8,3951,left
30,1,binary,25,1,trial,20607711.0,20610661.0,2950.0,25,R,20609947,20610195,250,361.4,429.3,3908,left
30,1,binary,25,1,trial,20607711.0,20610661.0,2950.0,25,R,20610237,20610489,254,622.5,507.6,3854,left
30,1,binary,25,1,trial,20607711.0,20610661.0,2950.0,25,R,20610673,20610965,294,1361.4,553.5,3845,right
30,1,binary,26,2,fixationCross,20635328.0,20637144.0,1816.0,26,R,20634557,20634755,200,689.4,95.3,4318,NA
30,1,binary,26,2,fixationCross,20635328.0,20637144.0,1816.0,26,R,20634807,20634869,64,972.0,359.9,4123,NA
30,1,binary,26,2,fixationCross,20635328.0,20637144.0,1816.0,26,R,20635053,20635145,94,996.9,580.8,4227,NA
30,1,binary,26,2,trial,20635328.0,20637144.0,1816.0,26,R,20635159,20635505,348,961.5,583.9,4300,NA
30,1,binary,26,2,trial,20635328.0,20637144.0,1816.0,26,R,20635549,20635843,296,501.5,575.5,4071,left
30,1,binary,26,2,trial,20635328.0,20637144.0,1816.0,26,R,20635901,20636103,204,1411.8,555.8,3546,right
30,1,binary,26,2,trial,20635328.0,20637144.0,1816.0,26,R,20636125,20636869,746,1326.7,515.3,3499,right
30,1,binary,26,2,trial,20635328.0,20637144.0,1816.0,26,R,20636895,20637121,228,1420.1,515.4,3856,right
30,1,binary,26,2,trial,20635328.0,20637144.0,1816.0,26,R,20637145,20637387,244,1516.9,515.0,3836,right
30,1,binary,27,2,fixationCross,20638078.0,20640445.0,2367.0,27,R,20637617,20637793,178,1167.6,516.1,4077,NA
30,1,binary,27,2,fixationCross,20638078.0,20640445.0,2367.0,27,R,20637823,20638039,218,1016.9,600.2,4202,NA
30,1,binary,27,2,trial,20638078.0,20640445.0,2367.0,27,R,20638055,20638263,210,967.8,587.9,4346,NA
30,1,binary,27,2,trial,20638078.0,20640445.0,2367.0,27,R,20638309,20638503,196,474.1,550.0,4214,left
30,1,binary,27,2,trial,20638078.0,20640445.0,2367.0,27,R,20638569,20638763,196,1357.0,558.1,3822,right
30,1,binary,27,2,trial,20638078.0,20640445.0,2367.0,27,R,20638791,20639363,574,1480.9,557.0,3690,right
30,1,binary,27,2,trial,20638078.0,20640445.0,2367.0,27,R,20639427,20639623,198,474.5,528.9,3812,left
30,1,binary,27,2,trial,20638078.0,20640445.0,2367.0,27,R,20639649,20639931,284,539.3,485.7,3769,left
30,1,binary,27,2,trial,20638078.0,20640445.0,2367.0,27,R,20639999,20640137,140,1323.9,653.5,3819,right
30,1,binary,27,2,trial,20638078.0,20640445.0,2367.0,27,R,20640181,20640407,228,1428.3,1007.3,3955,NA
30,1,binary,27,2,trial,20638078.0,20640445.0,2367.0,27,R,20640465,20640683,220,1357.9,591.6,4109,right
30,1,binary,28,1,fixationCross,20641394.0,20644395.0,3001.0,28,R,20640889,20640923,36,1020.0,492.7,4252,NA
30,1,binary,28,1,trial,20641394.0,20644395.0,3001.0,28,R,20641135,20641479,346,954.6,552.6,4233,NA
30,1,binary,28,1,trial,20641394.0,20644395.0,3001.0,28,R,20641501,20641635,136,985.9,558.7,4259,NA
30,1,binary,28,1,trial,20641394.0,20644395.0,3001.0,28,R,20641681,20641823,144,533.3,503.1,4036,left
30,1,binary,28,1,trial,20641394.0,20644395.0,3001.0,28,R,20641847,20642031,186,467.1,433.8,3717,left
30,1,binary,28,1,trial,20641394.0,20644395.0,3001.0,28,R,20642047,20642265,220,484.0,397.5,3502,left
30,1,binary,28,1,trial,20641394.0,20644395.0,3001.0,28,R,20642327,20642639,314,1465.7,633.2,3407,right
30,1,binary,28,1,trial,20641394.0,20644395.0,3001.0,28,R,20642665,20643073,410,1547.4,602.7,3569,right
30,1,binary,28,1,trial,20641394.0,20644395.0,3001.0,28,R,20643091,20643293,204,1593.2,600.4,3620,right
30,1,binary,28,1,trial,20641394.0,20644395.0,3001.0,28,R,20643317,20643591,276,1501.1,542.0,3643,right
30,1,binary,28,1,trial,20641394.0,20644395.0,3001.0,28,R,20643651,20643817,168,583.1,454.4,3541,left
30,1,binary,28,1,trial,20641394.0,20644395.0,3001.0,28,R,20643843,20644609,768,483.4,391.9,3649,left
30,1,binary,29,1,fixationCross,20645578.0,20647595.0,2017.0,29,R,20644853,20644963,112,667.3,536.1,3904,left
30,1,binary,29,1,fixationCross,20645578.0,20647595.0,2017.0,29,R,20645147,20645279,134,829.1,562.0,4026,NA
30,1,binary,29,1,trial,20645578.0,20647595.0,2017.0,29,R,20645307,20645753,448,981.0,564.4,4121,NA
30,1,binary,29,1,trial,20645578.0,20647595.0,2017.0,29,R,20645801,20645949,150,439.6,551.0,4082,left
30,1,binary,29,1,trial,20645578.0,20647595.0,2017.0,29,R,20645977,20646115,140,463.2,487.5,3701,left
30,1,binary,29,1,trial,20645578.0,20647595.0,2017.0,29,R,20646137,20646273,138,486.5,437.4,3552,left
30,1,binary,29,1,trial,20645578.0,20647595.0,2017.0,29,R,20646339,20646561,224,1519.8,550.5,3532,right
30,1,binary,29,1,trial,20645578.0,20647595.0,2017.0,29,R,20646587,20646913,328,1466.8,463.7,3644,right
30,1,binary,29,1,trial,20645578.0,20647595.0,2017.0,29,R,20646973,20647301,330,588.9,653.6,3968,left
30,1,binary,29,1,trial,20645578.0,20647595.0,2017.0,29,R,20647335,20647549,216,474.4,500.5,3797,left
30,1,binary,29,1,postResponse,20645578.0,20647595.0,2017.0,29,R,20647575,20647933,360,418.9,539.8,3764,left
30,1,binary,30,2,fixationCross,20648778.0,20650478.0,1700.0,30,R,20648275,20648533,260,861.8,500.2,3941,NA
30,1,binary,30,2,trial,20648778.0,20650478.0,1700.0,30,R,20648561,20648969,410,970.8,565.8,4122,NA
30,1,binary,30,2,trial,20648778.0,20650478.0,1700.0,30,R,20649019,20649159,142,579.2,587.4,4088,left
30,1,binary,30,2,trial,20648778.0,20650478.0,1700.0,30,R,20649185,20649271,88,649.0,512.9,3707,left
30,1,binary,30,2,trial,20648778.0,20650478.0,1700.0,30,R,20649323,20649645,324,1381.2,590.1,3467,right
30,1,binary,30,2,trial,20648778.0,20650478.0,1700.0,30,R,20649659,20649977,320,1368.1,606.5,3341,right
30,1,binary,30,2,trial,20648778.0,20650478.0,1700.0,30,R,20650011,20650247,238,1610.4,622.5,3441,right
30,1,binary,30,2,trial,20648778.0,20650478.0,1700.0,30,R,20650311,20650517,208,602.5,511.5,3665,left
30,1,binary,30,2,trial,20648778.0,20650478.0,1700.0,30,R,20650551,20650775,226,701.4,503.8,3677,left
30,1,binary,31,2,fixationCross,20651645.0,20653778.0,2133.0,31,R,20650919,20651351,434,830.5,524.6,3924,NA
30,1,binary,31,2,trial,20651645.0,20653778.0,2133.0,31,R,20651379,20651835,458,987.5,542.3,4035,NA
30,1,binary,31,2,trial,20651645.0,20653778.0,2133.0,31,R,20651879,20652079,202,556.7,500.6,4011,left
30,1,binary,31,2,trial,20651645.0,20653778.0,2133.0,31,R,20652101,20652241,142,473.3,496.7,3675,left
30,1,binary,31,2,trial,20651645.0,20653778.0,2133.0,31,R,20652381,20652533,154,1476.1,488.1,3580,right
30,1,binary,31,2,trial,20651645.0,20653778.0,2133.0,31,R,20652561,20652723,164,1588.5,443.6,3557,right
30,1,binary,31,2,trial,20651645.0,20653778.0,2133.0,31,R,20652789,20652973,186,597.4,490.4,3809,left
30,1,binary,31,2,trial,20651645.0,20653778.0,2133.0,31,R,20653121,20653359,240,490.2,487.0,3600,left
30,1,binary,31,2,trial,20651645.0,20653778.0,2133.0,31,R,20653419,20653523,106,1151.5,559.1,3643,NA
30,1,binary,31,2,trial,20651645.0,20653778.0,2133.0,31,R,20653559,20653985,428,1475.2,542.6,3649,right
30,1,binary,32,2,fixationCross,20654678.0,20656095.0,1417.0,32,R,20654261,20654465,206,1029.0,552.3,3906,NA
30,1,binary,32,2,trial,20654678.0,20656095.0,1417.0,32,R,20654491,20654861,372,931.8,598.5,3978,NA
30,1,binary,32,2,trial,20654678.0,20656095.0,1417.0,32,R,20654901,20655029,130,605.3,581.6,3906,left
30,1,binary,32,2,trial,20654678.0,20656095.0,1417.0,32,R,20655091,20655309,220,1379.1,581.4,3585,right
30,1,binary,32,2,trial,20654678.0,20656095.0,1417.0,32,R,20655335,20655445,112,1429.8,496.5,3560,right
30,1,binary,32,2,trial,20654678.0,20656095.0,1417.0,32,R,20655491,20655831,342,1393.5,728.3,3627,right
30,1,binary,32,2,trial,20654678.0,20656095.0,1417.0,32,R,20655873,20656117,246,1464.6,507.0,3844,right
30,1,binary,32,2,trial,20654678.0,20656095.0,1417.0,32,R,20656139,20656277,140,1508.0,469.4,3800,right
30,1,binary,32,2,postResponse,20654678.0,20656095.0,1417.0,32,R,20656335,20656433,100,721.9,551.6,3830,left
30,1,binary,33,1,fixationCross,20657312.0,20660728.0,3416.0,33,R,20656715,20656869,156,610.4,517.4,3957,left
30,1,binary,33,1,trial,20657312.0,20660728.0,3416.0,33,R,20657047,20657365,320,966.5,546.4,4101,NA
30,1,binary,33,1,trial,20657312.0,20660728.0,3416.0,33,R,20657395,20657521,128,830.5,580.4,4149,NA
30,1,binary,33,1,trial,20657312.0,20660728.0,3416.0,33,R,20657559,20657771,214,590.2,547.4,3910,left
30,1,binary,33,1,trial,20657312.0,20660728.0,3416.0,33,R,20657801,20658051,252,569.2,449.5,3496,left
30,1,binary,33,1,trial,20657312.0,20660728.0,3416.0,33,R,20658107,20658315,210,1402.8,515.7,3442,right
30,1,binary,33,1,trial,20657312.0,20660728.0,3416.0,33,R,20658339,20658495,158,1412.4,448.2,3393,right
30,1,binary,33,1,trial,20657312.0,20660728.0,3416.0,33,R,20658557,20658891,336,531.6,458.1,3427,left
30,1,binary,33,1,trial,20657312.0,20660728.0,3416.0,33,R,20658909,20659173,266,487.2,490.7,3673,left
30,1,binary,33,1,trial,20657312.0,20660728.0,3416.0,33,R,20659233,20659431,200,1374.2,518.3,3814,right
30,1,binary,33,1,trial,20657312.0,20660728.0,3416.0,33,R,20659459,20659601,144,1417.9,458.5,3668,right
30,1,binary,33,1,trial,20657312.0,20660728.0,3416.0,33,R,20659661,20659939,280,716.7,763.0,3617,NA
30,1,binary,33,1,trial,20657312.0,20660728.0,3416.0,33,R,20659975,20660227,254,512.9,607.9,3738,left
30,1,binary,33,1,trial,20657312.0,20660728.0,3416.0,33,R,20660251,20660965,716,547.9,537.2,3817,left
30,1,binary,33,1,postResponse,20657312.0,20660728.0,3416.0,33,R,20660985,20661061,78,638.6,515.6,3936,left
30,1,binary,34,2,fixationCross,20661611.0,20664145.0,2534.0,34,R,20661347,20661535,190,1012.2,516.0,3950,NA
30,1,binary,34,2,trial,20661611.0,20664145.0,2534.0,34,R,20661549,20661811,264,980.9,542.8,4009,NA
30,1,binary,34,2,trial,20661611.0,20664145.0,2534.0,34,R,20661853,20662107,256,550.6,517.4,3937,left
30,1,binary,34,2,trial,20661611.0,20664145.0,2534.0,34,R,20662125,20662167,44,499.1,500.3,3671,left
30,1,binary,34,2,trial,20661611.0,20664145.0,2534.0,34,R,20662239,20662515,278,1459.1,562.9,3459,right
30,1,binary,34,2,trial,20661611.0,20664145.0,2534.0,34,R,20662537,20662701,166,1403.6,513.0,3549,right
30,1,binary,34,2,trial,20661611.0,20664145.0,2534.0,34,R,20662761,20662987,228,573.8,504.3,3852,left
30,1,binary,34,2,trial,20661611.0,20664145.0,2534.0,34,R,20663019,20663263,246,376.4,520.0,3572,left
30,1,binary,34,2,trial,20661611.0,20664145.0,2534.0,34,R,20663303,20663331,30,571.1,523.4,3453,left
30,1,binary,34,2,trial,20661611.0,20664145.0,2534.0,34,R,20663387,20664007,622,1323.6,629.6,3647,right
30,1,binary,34,2,trial,20661611.0,20664145.0,2534.0,34,R,20664033,20664381,350,1426.7,575.4,4096,right
30,1,binary,35,1,fixationCross,20665345.0,20668329.0,2984.0,35,R,20664581,20664719,140,1055.9,501.0,4354,NA
30,1,binary,35,1,fixationCross,20665345.0,20668329.0,2984.0,35,R,20664921,20665049,130,800.3,494.6,4380,NA
30,1,binary,35,1,trial,20665345.0,20668329.0,2984.0,35,R,20665085,20665519,436,945.5,540.3,4258,NA
30,1,binary,35,1,trial,20665345.0,20668329.0,2984.0,35,R,20665561,20665765,206,537.4,543.1,4042,left
30,1,binary,35,1,trial,20665345.0,20668329.0,2984.0,35,R,20665825,20666051,228,1290.5,546.1,3544,right
30,1,binary,35,1,trial,20665345.0,20668329.0,2984.0,35,R,20666087,20666229,144,1616.4,511.7,3398,right
30,1,binary,35,1,trial,20665345.0,20668329.0,2984.0,35,R,20666253,20666521,270,1648.2,451.1,3438,right
30,1,binary,35,1,trial,20665345.0,20668329.0,2984.0,35,R,20666597,20666897,302,426.2,555.8,3599,left
30,1,binary,35,1,trial,20665345.0,20668329.0,2984.0,35,R,20666923,20667133,212,533.8,518.9,3432,left
30,1,binary,35,1,trial,20665345.0,20668329.0,2984.0,35,R,20667157,20667501,346,629.4,537.2,3443,left
30,1,binary,35,1,trial,20665345.0,20668329.0,2984.0,35,R,20667533,20668331,800,437.1,500.0,3613,left
30,1,binary,35,1,trial,20665345.0,20668329.0,2984.0,35,R,20668351,20668549,200,375.7,472.5,3859,left
30,1,binary,36,2,fixationCross,20669545.0,20672361.0,2816.0,36,R,20668793,20668871,80,932.5,462.1,3855,NA
30,1,binary,36,2,fixationCross,20669545.0,20672361.0,2816.0,36,R,20669107,20669307,202,854.3,520.7,3858,NA
30,1,binary,36,2,trial,20669545.0,20672361.0,2816.0,36,R,20669335,20669723,390,996.2,568.1,3955,NA
30,1,binary,36,2,trial,20669545.0,20672361.0,2816.0,36,R,20669763,20669971,210,652.6,538.8,3874,left
30,1,binary,36,2,trial,20669545.0,20672361.0,2816.0,36,R,20669997,20670079,84,526.3,547.1,3587,left
30,1,binary,36,2,trial,20669545.0,20672361.0,2816.0,36,R,20670141,20670515,376,1435.1,548.5,3459,right
30,1,binary,36,2,trial,20669545.0,20672361.0,2816.0,36,R,20670539,20670597,60,1526.9,588.8,3546,right
30,1,binary,36,2,trial,20669545.0,20672361.0,2816.0,36,R,20670657,20670885,230,596.6,563.0,3848,left
30,1,binary,36,2,trial,20669545.0,20672361.0,2816.0,36,R,20670913,20671153,242,456.8,567.2,3738,left
30,1,binary,36,2,trial,20669545.0,20672361.0,2816.0,36,R,20671179,20671441,264,565.6,536.2,3702,left
30,1,binary,36,2,trial,20669545.0,20672361.0,2816.0,36,R,20671465,20671577,114,606.7,485.6,3701,left
30,1,binary,36,2,trial,20669545.0,20672361.0,2816.0,36,R,20671641,20671875,236,1399.1,568.7,3737,right
30,1,binary,36,2,trial,20669545.0,20672361.0,2816.0,36,R,20671901,20672349,450,1540.2,606.9,3856,right
30,1,binary,36,2,trial,20669545.0,20672361.0,2816.0,36,R,20672379,20672599,222,1368.5,564.1,3938,right
30,1,binary,37,1,fixationCross,20673462.0,20675895.0,2433.0,37,R,20672789,20673013,226,856.0,510.1,3961,NA
30,1,binary,37,1,trial,20673462.0,20675895.0,2433.0,37,R,20673179,20673611,434,914.6,554.6,4089,NA
30,1,binary,37,1,trial,20673462.0,20675895.0,2433.0,37,R,20673653,20673883,232,517.9,543.5,4003,left
30,1,binary,37,1,trial,20673462.0,20675895.0,2433.0,37,R,20673903,20674181,280,457.7,522.5,3531,left
30,1,binary,37,1,trial,20673462.0,20675895.0,2433.0,37,R,20674201,20674359,160,488.3,491.0,3510,left
30,1,binary,37,1,trial,20673462.0,20675895.0,2433.0,37,R,20674423,20674635,214,1492.3,493.1,3532,right
30,1,binary,37,1,trial,20673462.0,20675895.0,2433.0,37,R,20674661,20675053,394,1491.2,420.5,3522,right
30,1,binary,37,1,trial,20673462.0,20675895.0,2433.0,37,R,20675087,20675223,138,1386.2,545.2,3683,right
30,1,binary,37,1,trial,20673462.0,20675895.0,2433.0,37,R,20675283,20675699,418,603.4,528.1,3757,left
30,1,binary,37,1,trial,20673462.0,20675895.0,2433.0,37,R,20675723,20676111,390,493.6,473.6,3720,left
30,1,binary,38,1,fixationCross,20677178.0,20679361.0,2183.0,38,R,20676405,20676535,132,696.6,524.0,3888,left
30,1,binary,38,1,fixationCross,20677178.0,20679361.0,2183.0,38,R,20676723,20676855,134,777.9,537.2,4098,NA
30,1,binary,38,1,trial,20677178.0,20679361.0,2183.0,38,R,20676883,20677367,486,950.5,566.7,4111,NA
30,1,binary,38,1,trial,20677178.0,20679361.0,2183.0,38,R,20677405,20677689,286,603.2,574.5,3855,left
30,1,binary,38,1,trial,20677178.0,20679361.0,2183.0,38,R,20677711,20677895,186,500.9,540.8,3515,left
30,1,binary,38,1,trial,20677178.0,20679361.0,2183.0,38,R,20677907,20677967,62,474.9,536.5,3502,left
30,1,binary,38,1,trial,20677178.0,20679361.0,2183.0,38,R,20678035,20678275,242,1403.8,545.0,3505,right
30,1,binary,38,1,trial,20677178.0,20679361.0,2183.0,38,R,20678299,20678453,156,1456.2,511.7,3543,right
30,1,binary,38,1,trial,20677178.0,20679361.0,2183.0,38,R,20678483,20678683,202,1625.7,514.3,3576,right
30,1,binary,38,1,trial,20677178.0,20679361.0,2183.0,38,R,20678743,20679163,422,664.8,562.6,3692,left
30,1,binary,38,1,postResponse,20677178.0,20679361.0,2183.0,38,R,20679195,20679695,502,464.2,545.1,3645,left
30,1,binary,39,1,fixationCross,20680378.0,20682462.0,2084.0,39,R,20679769,20679873,106,731.3,572.9,3715,left
30,1,binary,39,1,trial,20680378.0,20682462.0,2084.0,39,R,20680109,20680561,454,952.2,552.1,3896,NA
30,1,binary,39,1,trial,20680378.0,20682462.0,2084.0,39,R,20680603,20680861,260,583.1,555.1,3758,left
30,1,binary,39,1,trial,20680378.0,20682462.0,2084.0,39,R,20680957,20681383,428,1400.2,562.8,3448,right
30,1,binary,39,1,trial,20680378.0,20682462.0,2084.0,39,R,20681439,20681729,292,569.6,586.6,3593,left
30,1,binary,39,1,trial,20680378.0,20682462.0,2084.0,39,R,20681781,20682031,252,953.8,898.2,3747,likertHorizontal
30,1,binary,39,1,trial,20680378.0,20682462.0,2084.0,39,R,20682079,20682327,250,606.4,669.2,4009,left
30,1,binary,39,1,postResponse,20680378.0,20682462.0,2084.0,39,R,20682355,20682787,434,450.1,637.6,3923,left
30,1,binary,40,2,fixationCross,20683395.0,20686795.0,3400.0,40,R,20683119,20683287,170,1017.2,528.1,3992,NA
30,1,binary,40,2,trial,20683395.0,20686795.0,3400.0,40,R,20683303,20683669,368,973.7,559.1,4026,NA
30,1,binary,40,2,trial,20683395.0,20686795.0,3400.0,40,R,20683711,20683997,288,552.7,563.7,3729,left
30,1,binary,40,2,trial,20683395.0,20686795.0,3400.0,40,R,20684017,20684169,154,479.4,578.8,3529,left
30,1,binary,40,2,trial,20683395.0,20686795.0,3400.0,40,R,20684181,20684269,90,455.0,594.8,3518,left
30,1,binary,40,2,trial,20683395.0,20686795.0,3400.0,40,R,20684327,20684517,192,1338.1,549.6,3537,right
30,1,binary,40,2,trial,20683395.0,20686795.0,3400.0,40,R,20684545,20684719,176,1480.4,528.5,3429,right
30,1,binary,40,2,trial,20683395.0,20686795.0,3400.0,40,R,20684781,20684975,196,525.7,587.9,3417,left
30,1,binary,40,2,trial,20683395.0,20686795.0,3400.0,40,R,20684997,20685601,606,430.5,604.1,3563,left
30,1,binary,40,2,trial,20683395.0,20686795.0,3400.0,40,R,20685663,20686049,388,1363.1,576.5,3667,right
30,1,binary,40,2,trial,20683395.0,20686795.0,3400.0,40,R,20686073,20686295,224,1440.9,523.7,3485,right
30,1,binary,40,2,trial,20683395.0,20686795.0,3400.0,40,R,20686319,20686641,324,1523.7,489.4,3452,right
30,1,binary,40,2,trial,20683395.0,20686795.0,3400.0,40,R,20686711,20687101,392,546.4,560.5,3536,left
30,1,binary,41,1,fixationCross,20687729.0,20692629.0,4900.0,41,R,20687445,20687447,4,946.7,524.5,3798,NA
30,1,binary,41,1,fixationCross,20687729.0,20692629.0,4900.0,41,R,20687459,20687605,148,930.9,512.6,3889,NA
30,1,binary,41,1,trial,20687729.0,20692629.0,4900.0,41,R,20687763,20687903,142,874.0,542.3,3985,NA
30,1,binary,41,1,trial,20687729.0,20692629.0,4900.0,41,R,20687941,20688127,188,588.6,560.5,3939,left
30,1,binary,41,1,trial,20687729.0,20692629.0,4900.0,41,R,20688159,20688297,140,407.7,588.2,3741,left
30,1,binary,41,1,trial,20687729.0,20692629.0,4900.0,41,R,20688323,20688349,28,306.0,619.5,3671,left
30,1,binary,41,1,trial,20687729.0,20692629.0,4900.0,41,R,20688437,20688605,170,1480.5,542.7,3618,right
30,1,binary,41,1,trial,20687729.0,20692629.0,4900.0,41,R,20688769,20688961,194,1474.4,462.2,3653,right
30,1,binary,41,1,trial,20687729.0,20692629.0,4900.0,41,R,20688991,20689175,186,1368.5,570.7,3702,right
30,1,binary,41,1,trial,20687729.0,20692629.0,4900.0,41,R,20689205,20689303,100,1508.3,530.2,3677,right
30,1,binary,41,1,trial,20687729.0,20692629.0,4900.0,41,R,20689367,20689547,182,545.0,518.7,3709,left
30,1,binary,41,1,trial,20687729.0,20692629.0,4900.0,41,R,20689583,20689801,220,291.2,637.9,3538,left
30,1,binary,41,1,trial,20687729.0,20692629.0,4900.0,41,R,20689813,20689959,148,269.9,659.5,3452,left
30,1,binary,41,1,trial,20687729.0,20692629.0,4900.0,41,R,20690117,20690259,144,1483.2,477.8,3557,right
30,1,binary,41,1,trial,20687729.0,20692629.0,4900.0,41,R,20690439,20691193,756,1497.2,488.4,3697,right
30,1,binary,41,1,trial,20687729.0,20692629.0,4900.0,41,R,20691389,20691655,268,591.0,483.1,3891,left
30,1,binary,41,1,trial,20687729.0,20692629.0,4900.0,41,R,20691689,20691867,180,393.7,571.2,3695,left
30,1,binary,41,1,trial,20687729.0,20692629.0,4900.0,41,R,20691897,20692187,292,283.4,654.6,3640,left
30,1,binary,41,1,trial,20687729.0,20692629.0,4900.0,41,R,20692199,20692671,474,268.3,674.9,3739,left
30,1,binary,41,1,trial,20687729.0,20692629.0,4900.0,41,R,20692697,20692863,168,359.6,627.1,3958,left
30,1,binary,42,1,fixationCross,20693562.0,20695646.0,2084.0,42,R,20693151,20693551,402,879.0,528.4,3803,NA
30,1,binary,42,1,trial,20693562.0,20695646.0,2084.0,42,R,20693579,20693743,166,1003.5,546.2,3954,NA
30,1,binary,42,1,trial,20693562.0,20695646.0,2084.0,42,R,20693787,20693989,204,551.7,554.7,3893,left
30,1,binary,42,1,trial,20693562.0,20695646.0,2084.0,42,R,20694015,20694197,184,557.2,484.0,3655,left
30,1,binary,42,1,trial,20693562.0,20695646.0,2084.0,42,R,20694221,20694257,38,619.7,473.9,3585,left
30,1,binary,42,1,trial,20693562.0,20695646.0,2084.0,42,R,20694317,20694585,270,1475.5,528.4,3534,right
30,1,binary,42,1,trial,20693562.0,20695646.0,2084.0,42,R,20694607,20695043,438,1546.7,513.9,3513,right
30,1,binary,42,1,trial,20693562.0,20695646.0,2084.0,42,R,20695109,20695547,440,530.6,535.4,3848,left
30,1,binary,42,1,trial,20693562.0,20695646.0,2084.0,42,R,20695569,20695887,320,560.1,480.3,3892,left
30,1,binary,42,1,postResponse,20693562.0,20695646.0,2084.0,42,R,20695917,20695979,64,742.1,490.8,3898,NA
30,1,binary,43,2,fixationCross,20696728.0,20698112.0,1384.0,43,R,20696053,20696095,44,739.3,494.7,3877,NA
30,1,binary,43,2,fixationCross,20696728.0,20698112.0,1384.0,43,R,20696297,20696535,240,861.1,510.4,3937,NA
30,1,binary,43,2,trial,20696728.0,20698112.0,1384.0,43,R,20696565,20696905,342,993.5,570.5,3993,NA
30,1,binary,43,2,trial,20696728.0,20698112.0,1384.0,43,R,20696949,20697135,188,563.6,598.0,3912,left
30,1,binary,43,2,trial,20696728.0,20698112.0,1384.0,43,R,20697159,20697305,148,482.7,534.7,3445,left
30,1,binary,43,2,trial,20696728.0,20698112.0,1384.0,43,R,20697365,20697581,218,1384.4,584.0,3329,right
30,1,binary,43,2,trial,20696728.0,20698112.0,1384.0,43,R,20697611,20697965,356,1550.4,595.6,3280,right
30,1,binary,43,2,trial,20696728.0,20698112.0,1384.0,43,R,20697991,20698331,342,1569.4,503.8,3362,right
30,1,binary,43,2,postResponse,20696728.0,20698112.0,1384.0,43,R,20698379,20698445,68,1111.9,550.5,3476,NA
30,1,binary,44,2,fixationCross,20699278.0,20702579.0,3301.0,44,R,20698703,20699023,322,856.2,565.5,3794,NA
30,1,binary,44,2,trial,20699278.0,20702579.0,3301.0,44,R,20699049,20699447,400,967.6,543.7,3932,NA
30,1,binary,44,2,trial,20699278.0,20702579.0,3301.0,44,R,20699501,20699731,232,545.2,624.1,3760,left
30,1,binary,44,2,trial,20699278.0,20702579.0,3301.0,44,R,20699755,20699971,218,447.5,638.8,3387,left
30,1,binary,44,2,trial,20699278.0,20702579.0,3301.0,44,R,20700035,20700163,130,1439.8,567.3,3369,right
30,1,binary,44,2,trial,20699278.0,20702579.0,3301.0,44,R,20700315,20700391,78,1599.4,509.2,3565,right
30,1,binary,44,2,trial,20699278.0,20702579.0,3301.0,44,R,20700421,20700603,184,1531.6,721.8,3546,right
30,1,binary,44,2,trial,20699278.0,20702579.0,3301.0,44,R,20700857,20700889,34,1513.1,694.4,3761,right
30,1,binary,44,2,trial,20699278.0,20702579.0,3301.0,44,R,20700941,20701087,148,1401.8,508.2,3760,right
30,1,binary,44,2,trial,20699278.0,20702579.0,3301.0,44,R,20701107,20701447,342,1366.7,474.1,3638,right
30,1,binary,44,2,trial,20699278.0,20702579.0,3301.0,44,R,20701511,20701835,326,505.9,586.2,3594,left
30,1,binary,44,2,trial,20699278.0,20702579.0,3301.0,44,R,20701869,20702159,292,423.1,670.8,3429,left
30,1,binary,44,2,trial,20699278.0,20702579.0,3301.0,44,R,20702187,20702361,176,493.5,565.6,3498,left
30,1,binary,44,2,trial,20699278.0,20702579.0,3301.0,44,R,20702419,20702805,388,1377.3,544.3,3514,right
30,1,binary,45,2,fixationCross,20703745.0,20706145.0,2400.0,45,R,20703035,20703083,50,1230.3,603.7,3799,right
30,1,binary,45,2,fixationCross,20703745.0,20706145.0,2400.0,45,R,20703295,20703381,88,915.5,592.7,3943,NA
30,1,binary,45,2,trial,20703745.0,20706145.0,2400.0,45,R,20703633,20703935,304,960.4,556.1,4007,NA
30,1,binary,45,2,trial,20703745.0,20706145.0,2400.0,45,R,20703977,20704137,162,546.9,559.8,3961,left
30,1,binary,45,2,trial,20703745.0,20706145.0,2400.0,45,R,20704203,20704399,198,1423.7,518.6,3521,right
30,1,binary,45,2,trial,20703745.0,20706145.0,2400.0,45,R,20704427,20704671,246,1548.6,453.0,3455,right
30,1,binary,45,2,trial,20703745.0,20706145.0,2400.0,45,R,20704683,20704785,104,1554.6,437.5,3465,right
30,1,binary,45,2,trial,20703745.0,20706145.0,2400.0,45,R,20704851,20705043,194,485.4,499.2,3572,left
30,1,binary,45,2,trial,20703745.0,20706145.0,2400.0,45,R,20705159,20705189,32,400.8,478.2,3580,left
30,1,binary,45,2,trial,20703745.0,20706145.0,2400.0,45,R,20705327,20705417,92,373.6,475.7,3596,left
30,1,binary,45,2,trial,20703745.0,20706145.0,2400.0,45,R,20705485,20705743,260,1357.6,584.4,3662,right
30,1,binary,45,2,trial,20703745.0,20706145.0,2400.0,45,R,20705783,20706063,282,1347.1,456.8,3754,right
30,1,binary,45,2,trial,20703745.0,20706145.0,2400.0,45,R,20706093,20706379,288,1511.4,444.2,3740,right
30,1,binary,45,2,trial,20703745.0,20706145.0,2400.0,45,R,20706415,20706453,40,1269.3,482.4,3890,right
30,1,binary,46,2,fixationCross,20707345.0,20710262.0,2917.0,46,R,20706689,20707027,340,772.7,537.5,4005,NA
30,1,binary,46,2,trial,20707345.0,20710262.0,2917.0,46,R,20707055,20707511,458,952.4,576.0,4082,NA
30,1,binary,46,2,trial,20707345.0,20710262.0,2917.0,46,R,20707555,20707751,198,527.1,573.4,3970,left
30,1,binary,46,2,trial,20707345.0,20710262.0,2917.0,46,R,20707773,20708003,232,507.9,532.8,3539,left
30,1,binary,46,2,trial,20707345.0,20710262.0,2917.0,46,R,20708059,20708329,272,1380.2,583.7,3480,right
30,1,binary,46,2,trial,20707345.0,20710262.0,2917.0,46,R,20708349,20708521,174,1439.0,560.2,3488,right
30,1,binary,46,2,trial,20707345.0,20710262.0,2917.0,46,R,20708581,20708817,238,546.4,544.4,3642,left
30,1,binary,46,2,trial,20707345.0,20710262.0,2917.0,46,R,20708833,20709161,330,498.2,528.8,3642,left
30,1,binary,46,2,trial,20707345.0,20710262.0,2917.0,46,R,20709217,20709393,178,1329.5,559.3,3682,right
30,1,binary,46,2,trial,20707345.0,20710262.0,2917.0,46,R,20709421,20709685,266,1457.6,557.3,3600,right
30,1,binary,46,2,trial,20707345.0,20710262.0,2917.0,46,R,20709747,20709981,236,541.1,564.9,3684,left
30,1,binary,46,2,trial,20707345.0,20710262.0,2917.0,46,R,20710001,20710179,180,510.0,523.2,3666,left
30,1,binary,46,2,trial,20707345.0,20710262.0,2917.0,46,R,20710205,20710523,320,606.7,589.1,3705,left
30,1,binary,47,1,fixationCross,20711145.0,20712995.0,1850.0,47,R,20710879,20711091,214,1018.1,565.7,3854,NA
30,1,binary,47,1,trial,20711145.0,20712995.0,1850.0,47,R,20711111,20711299,190,942.7,572.5,3903,NA
30,1,binary,47,1,trial,20711145.0,20712995.0,1850.0,47,R,20711341,20711607,268,524.0,555.1,3836,left
30,1,binary,47,1,trial,20711145.0,20712995.0,1850.0,47,R,20711631,20711881,252,480.5,499.0,3671,left
30,1,binary,47,1,trial,20711145.0,20712995.0,1850.0,47,R,20711909,20712069,162,579.4,528.9,3718,left
30,1,binary,47,1,trial,20711145.0,20712995.0,1850.0,47,R,20712127,20712345,220,1410.2,600.4,3790,right
30,1,binary,47,1,trial,20711145.0,20712995.0,1850.0,47,R,20712373,20712543,172,1347.9,512.7,3762,right
30,1,binary,47,1,trial,20711145.0,20712995.0,1850.0,47,R,20712595,20712817,224,664.9,548.3,3791,left
30,1,binary,47,1,trial,20711145.0,20712995.0,1850.0,47,R,20712847,20713241,396,526.4,549.5,3905,left
30,1,binary,47,1,postResponse,20711145.0,20712995.0,1850.0,47,R,20713297,20713329,34,945.2,561.6,4011,NA
30,1,binary,48,1,trial,20713879.0,20715796.0,1917.0,48,R,20713405,20713923,520,938.0,564.7,4067,NA
30,1,binary,48,1,trial,20713879.0,20715796.0,1917.0,48,R,20713941,20714107,168,986.8,568.6,4214,NA
30,1,binary,48,1,trial,20713879.0,20715796.0,1917.0,48,R,20714161,20714295,136,489.7,542.0,4049,left
30,1,binary,48,1,trial,20713879.0,20715796.0,1917.0,48,R,20714319,20714507,190,412.4,484.8,3720,left
30,1,binary,48,1,trial,20713879.0,20715796.0,1917.0,48,R,20714515,20714931,418,401.4,465.1,3625,left
30,1,binary,48,1,trial,20713879.0,20715796.0,1917.0,48,R,20714973,20715125,154,768.2,628.7,3731,NA
30,1,binary,48,1,trial,20713879.0,20715796.0,1917.0,48,R,20715157,20715569,414,581.5,546.0,3915,left
30,1,binary,48,1,trial,20713879.0,20715796.0,1917.0,48,R,20715603,20715787,186,427.7,473.6,4021,left
30,1,binary,48,1,trial,20713879.0,20715796.0,1917.0,48,R,20715799,20715845,48,404.2,471.5,4053,left
30,1,binary,48,1,postResponse,20713879.0,20715796.0,1917.0,48,R,20715919,20716139,222,1423.4,513.5,3894,right
30,1,binary,49,2,trial,20716712.0,20720779.0,4067.0,49,R,20716455,20716741,288,919.8,508.0,4056,NA
30,1,binary,49,2,trial,20716712.0,20720779.0,4067.0,49,R,20716767,20716927,162,975.0,573.3,4162,NA
30,1,binary,49,2,trial,20716712.0,20720779.0,4067.0,49,R,20716971,20717253,284,544.1,614.4,3890,left
30,1,binary,49,2,trial,20716712.0,20720779.0,4067.0,49,R,20717309,20717719,412,1377.2,611.4,3467,right
30,1,binary,49,2,trial,20716712.0,20720779.0,4067.0,49,R,20717773,20717999,228,626.7,613.5,3621,left
30,1,binary,49,2,trial,20716712.0,20720779.0,4067.0,49,R,20718021,20718193,174,554.4,586.3,3612,left
30,1,binary,49,2,trial,20716712.0,20720779.0,4067.0,49,R,20718207,20718453,248,593.1,579.8,3623,left
30,1,binary,49,2,trial,20716712.0,20720779.0,4067.0,49,R,20718511,20718857,348,1415.1,633.5,3658,right
30,1,binary,49,2,trial,20716712.0,20720779.0,4067.0,49,R,20718887,20719011,126,1333.0,498.0,3613,right
30,1,binary,49,2,trial,20716712.0,20720779.0,4067.0,49,R,20719067,20719793,728,553.5,576.0,3736,left
30,1,binary,49,2,trial,20716712.0,20720779.0,4067.0,49,R,20719851,20720047,198,1392.5,592.2,3742,right
30,1,binary,49,2,trial,20716712.0,20720779.0,4067.0,49,R,20720079,20720453,376,1589.2,642.8,3649,right
30,1,binary,49,2,trial,20716712.0,20720779.0,4067.0,49,R,20720481,20720761,282,1416.1,617.1,3762,right
30,1,binary,49,2,trial,20716712.0,20720779.0,4067.0,49,R,20720805,20721031,228,1379.8,579.8,3766,right
30,1,binary,50,1,fixationCross,20721929.0,20724562.0,2633.0,50,R,20721295,20721649,356,828.2,558.9,4018,NA
30,1,binary,50,1,trial,20721929.0,20724562.0,2633.0,50,R,20721675,20722007,334,952.1,570.3,4159,NA
30,1,binary,50,1,trial,20721929.0,20724562.0,2633.0,50,R,20722035,20722139,106,805.7,580.5,4143,NA
30,1,binary,50,1,trial,20721929.0,20724562.0,2633.0,50,R,20722179,20722337,160,452.8,576.3,4020,left
30,1,binary,50,1,trial,20721929.0,20724562.0,2633.0,50,R,20722349,20722447,100,482.7,573.2,3786,left
30,1,binary,50,1,trial,20721929.0,20724562.0,2633.0,50,R,20722509,20722733,226,1472.5,527.9,3695,right
30,1,binary,50,1,trial,20721929.0,20724562.0,2633.0,50,R,20722763,20722947,186,1460.3,408.1,3745,right
30,1,binary,50,1,trial,20721929.0,20724562.0,2633.0,50,R,20722959,20723081,124,1449.6,387.4,3728,right
30,1,binary,50,1,trial,20721929.0,20724562.0,2633.0,50,R,20723129,20723335,208,1377.2,595.1,3819,right
30,1,binary,50,1,trial,20721929.0,20724562.0,2633.0,50,R,20723361,20723615,256,1496.1,631.3,3951,right
30,1,binary,50,1,trial,20721929.0,20724562.0,2633.0,50,R,20723681,20723977,298,467.7,561.4,4182,left
30,1,binary,50,1,trial,20721929.0,20724562.0,2633.0,50,R,20723997,20724475,480,403.7,583.5,4010,left
30,1,binary,50,1,trial,20721929.0,20724562.0,2633.0,50,R,20724499,20724779,282,472.4,579.8,4230,left
30,1,binary,50,1,postResponse,20721929.0,20724562.0,2633.0,50,R,20724823,20724895,74,870.9,574.6,4259,NA
30,2,continuous,1,30,fixationCross,20803346.0,20807747.0,4401.0,51,R,20802763,20802941,180,960.0,674.0,4711,NA
30,2,continuous,1,30,fixationCross,20803346.0,20807747.0,4401.0,51,R,20803081,20803245,166,920.1,561.8,4542,NA
30,2,continuous,1,30,trial,20803346.0,20807747.0,4401.0,51,R,20803369,20803551,184,953.1,517.1,4391,NA
30,2,continuous,1,30,trial,20803346.0,20807747.0,4401.0,51,R,20803595,20803769,176,532.5,501.9,4215,left
30,2,continuous,1,30,trial,20803346.0,20807747.0,4401.0,51,R,20803791,20803877,88,459.1,464.0,3939,left
30,2,continuous,1,30,trial,20803346.0,20807747.0,4401.0,51,R,20803935,20804075,142,787.0,1015.6,3836,likertHorizontal
30,2,continuous,1,30,trial,20803346.0,20807747.0,4401.0,51,R,20804109,20804233,126,927.5,1000.9,3800,likertHorizontal
30,2,continuous,1,30,trial,20803346.0,20807747.0,4401.0,51,R,20804277,20804367,92,485.5,1021.9,3814,NA
30,2,continuous,1,30,trial,20803346.0,20807747.0,4401.0,51,R,20804415,20804609,196,484.4,517.4,3770,left
30,2,continuous,1,30,trial,20803346.0,20807747.0,4401.0,51,R,20804679,20804989,312,1414.4,564.8,3747,right
30,2,continuous,1,30,trial,20803346.0,20807747.0,4401.0,51,R,20805015,20805305,292,1430.9,513.8,3810,right
30,2,continuous,1,30,trial,20803346.0,20807747.0,4401.0,51,R,20805317,20805385,70,1438.1,494.0,3832,right
30,2,continuous,1,30,trial,20803346.0,20807747.0,4401.0,51,R,20805447,20805629,184,503.9,497.0,3907,left
30,2,continuous,1,30,trial,20803346.0,20807747.0,4401.0,51,R,20805651,20805921,272,444.1,451.3,3806,left
30,2,continuous,1,30,trial,20803346.0,20807747.0,4401.0,51,R,20805983,20806203,222,1358.1,516.9,3780,right
30,2,continuous,1,30,trial,20803346.0,20807747.0,4401.0,51,R,20806227,20806357,132,1448.0,512.9,3710,right
30,2,continuous,1,30,trial,20803346.0,20807747.0,4401.0,51,R,20806417,20806667,252,939.9,914.3,3785,likertHorizontal
30,2,continuous,1,30,trial,20803346.0,20807747.0,4401.0,51,R,20806719,20806919,202,483.2,538.1,3917,left
30,2,continuous,1,30,trial,20803346.0,20807747.0,4401.0,51,R,20806975,20807443,470,828.4,993.7,3919,likertHorizontal
30,2,continuous,1,30,trial,20803346.0,20807747.0,4401.0,51,R,20807477,20807655,180,547.5,1028.8,3973,NA
30,2,continuous,1,30,trial,20803346.0,20807747.0,4401.0,51,R,20807667,20807755,90,510.3,1025.0,4077,NA
30,2,continuous,1,30,trial,20803346.0,20807747.0,4401.0,51,R,20807817,20807933,118,559.7,505.4,4090,left
30,2,continuous,2,48,fixationCross,20808696.0,20816164.0,7468.0,52,R,20808413,20808653,242,889.3,564.8,4185,NA
30,2,continuous,2,48,trial,20808696.0,20816164.0,7468.0,52,R,20808677,20808883,208,964.8,561.2,4249,NA
30,2,continuous,2,48,trial,20808696.0,20816164.0,7468.0,52,R,20808935,20809291,358,595.4,575.7,3942,left
30,2,continuous,2,48,trial,20808696.0,20816164.0,7468.0,52,R,20809311,20809353,44,527.1,567.0,3634,left
30,2,continuous,2,48,trial,20808696.0,20816164.0,7468.0,52,R,20809423,20809613,192,1460.7,510.8,3562,right
30,2,continuous,2,48,trial,20808696.0,20816164.0,7468.0,52,R,20809627,20809795,170,1488.5,490.6,3538,right
30,2,continuous,2,48,trial,20808696.0,20816164.0,7468.0,52,R,20809855,20810163,310,596.2,662.2,3785,left
30,2,continuous,2,48,trial,20808696.0,20816164.0,7468.0,52,R,20810191,20810545,356,466.9,633.9,3995,left
30,2,continuous,2,48,trial,20808696.0,20816164.0,7468.0,52,R,20810597,20810735,140,605.7,923.5,4095,NA
30,2,continuous,2,48,trial,20808696.0,20816164.0,7468.0,52,R,20810761,20810929,170,645.3,977.4,4166,NA
30,2,continuous,2,48,trial,20808696.0,20816164.0,7468.0,52,R,20810989,20811117,130,1316.7,610.2,4037,right
30,2,continuous,2,48,trial,20808696.0,20816164.0,7468.0,52,R,20811229,20811357,130,1471.8,499.8,3992,right
30,2,continuous,2,48,trial,20808696.0,20816164.0,7468.0,52,R,20811383,20811695,314,1485.8,471.1,3856,right
30,2,continuous,2,48,trial,20808696.0,20816164.0,7468.0,52,R,20811715,20812039,326,1546.1,502.2,3872,right
30,2,continuous,2,48,trial,20808696.0,20816164.0,7468.0,52,R,20812071,20812379,310,1477.9,630.2,3959,right
30,2,continuous,2,48,trial,20808696.0,20816164.0,7468.0,52,R,20812391,20812553,164,1486.1,618.2,3918,right
30,2,continuous,2,48,trial,20808696.0,20816164.0,7468.0,52,R,20812579,20812873,296,1382.6,637.7,3896,right
30,2,continuous,2,48,trial,20808696.0,20816164.0,7468.0,52,R,20812923,20813121,200,723.9,632.8,4099,left
30,2,continuous,2,48,trial,20808696.0,20816164.0,7468.0,52,R,20813145,20813271,128,615.4,596.9,4097,left
30,2,continuous,2,48,trial,20808696.0,20816164.0,7468.0,52,R,20813321,20813623,304,988.0,866.9,4036,likertHorizontal
30,2,continuous,2,48,trial,20808696.0,20816164.0,7468.0,52,R,20813643,20813861,220,962.7,919.7,4269,likertHorizontal
30,2,continuous,2,48,trial,20808696.0,20816164.0,7468.0,52,R,20813901,20814205,306,1128.5,719.1,4289,NA
30,2,continuous,2,48,trial,20808696.0,20816164.0,7468.0,52,R,20814237,20814353,118,1358.3,665.0,4210,right
30,2,continuous,2,48,trial,20808696.0,20816164.0,7468.0,52,R,20814519,20814773,256,572.2,580.8,4055,left
30,2,continuous,2,48,trial,20808696.0,20816164.0,7468.0,52,R,20814795,20814973,180,498.5,551.9,3897,left
30,2,continuous,2,48,trial,20808696.0,20816164.0,7468.0,52,R,20815033,20815251,220,1444.2,596.1,3798,right
30,2,continuous,2,48,trial,20808696.0,20816164.0,7468.0,52,R,20815279,20815397,120,1479.2,471.8,3748,right
30,2,continuous,2,48,trial,20808696.0,20816164.0,7468.0,52,R,20815453,20815645,194,975.7,718.9,3782,NA
30,2,continuous,2,48,trial,20808696.0,20816164.0,7468.0,52,R,20815681,20815977,298,945.4,927.3,3985,likertHorizontal
30,2,continuous,2,48,trial,20808696.0,20816164.0,7468.0,52,R,20816205,20816383,180,839.7,557.0,4304,NA
30,2,continuous,3,24,fixationCross,20817063.0,20819947.0,2884.0,53,R,20816605,20816991,388,878.5,555.7,4324,NA
30,2,continuous,3,24,trial,20817063.0,20819947.0,2884.0,53,R,20817255,20817361,108,945.1,481.5,4280,NA
30,2,continuous,3,24,trial,20817063.0,20819947.0,2884.0,53,R,20817401,20817639,240,617.0,536.8,4100,left
30,2,continuous,3,24,trial,20817063.0,20819947.0,2884.0,53,R,20817663,20817899,238,550.7,595.1,3822,left
30,2,continuous,3,24,trial,20817063.0,20819947.0,2884.0,53,R,20817961,20818307,348,1487.7,561.0,3569,right
30,2,continuous,3,24,trial,20817063.0,20819947.0,2884.0,53,R,20818369,20818963,596,528.9,601.8,3766,left
30,2,continuous,3,24,trial,20817063.0,20819947.0,2884.0,53,R,20819017,20819261,246,759.9,990.6,3979,likertHorizontal
30,2,continuous,3,24,trial,20817063.0,20819947.0,2884.0,53,R,20819303,20819453,152,562.7,780.6,3957,NA
30,2,continuous,3,24,trial,20817063.0,20819947.0,2884.0,53,R,20819473,20819639,168,534.9,713.6,3872,left
30,2,continuous,3,24,trial,20817063.0,20819947.0,2884.0,53,R,20819697,20819859,164,1374.6,589.3,3670,right
30,2,continuous,3,24,trial,20817063.0,20819947.0,2884.0,53,R,20819887,20820125,240,1508.2,560.1,3615,right
30,2,continuous,3,24,trial,20817063.0,20819947.0,2884.0,53,R,20820165,20820213,50,1118.6,550.8,3790,NA
30,2,continuous,4,75,trial,20820814.0,20825414.0,4600.0,54,R,20820413,20820841,430,913.1,541.1,3974,NA
30,2,continuous,4,75,trial,20820814.0,20825414.0,4600.0,54,R,20820863,20821027,166,960.8,545.3,4027,NA
30,2,continuous,4,75,trial,20820814.0,20825414.0,4600.0,54,R,20821067,20821247,182,630.8,511.6,3946,left
30,2,continuous,4,75,trial,20820814.0,20825414.0,4600.0,54,R,20821277,20821505,230,455.7,536.6,3779,left
30,2,continuous,4,75,trial,20820814.0,20825414.0,4600.0,54,R,20821533,20821625,94,590.7,477.2,3803,left
30,2,continuous,4,75,trial,20820814.0,20825414.0,4600.0,54,R,20821681,20821885,206,1394.6,525.5,3778,right
30,2,continuous,4,75,trial,20820814.0,20825414.0,4600.0,54,R,20821913,20822109,198,1437.2,619.6,3813,right
30,2,continuous,4,75,trial,20820814.0,20825414.0,4600.0,54,R,20822167,20822385,220,586.5,513.7,4065,left
30,2,continuous,4,75,trial,20820814.0,20825414.0,4600.0,54,R,20822489,20822703,216,575.8,464.9,3963,left
30,2,continuous,4,75,trial,20820814.0,20825414.0,4600.0,54,R,20822729,20823031,304,494.7,510.2,3905,left
30,2,continuous,4,75,trial,20820814.0,20825414.0,4600.0,54,R,20823051,20823229,180,403.9,482.1,3890,left
30,2,continuous,4,75,trial,20820814.0,20825414.0,4600.0,54,R,20823257,20823393,138,553.4,470.6,3914,left
30,2,continuous,4,75,trial,20820814.0,20825414.0,4600.0,54,R,20823455,20823737,284,1355.3,607.2,3866,right
30,2,continuous,4,75,trial,20820814.0,20825414.0,4600.0,54,R,20823785,20823923,140,1330.9,880.7,3921,NA
30,2,continuous,4,75,trial,20820814.0,20825414.0,4600.0,54,R,20823979,20824163,186,1430.7,583.1,3978,right
30,2,continuous,4,75,trial,20820814.0,20825414.0,4600.0,54,R,20824217,20824403,188,1312.6,940.3,4035,NA
30,2,continuous,4,75,trial,20820814.0,20825414.0,4600.0,54,R,20824419,20824693,276,1264.6,955.6,4004,NA
30,2,continuous,4,75,trial,20820814.0,20825414.0,4600.0,54,R,20824707,20824881,176,1217.3,958.6,3931,NA
30,2,continuous,4,75,trial,20820814.0,20825414.0,4600.0,54,R,20825305,20825411,108,1342.8,673.4,4270,right
30,2,continuous,4,75,trial,20820814.0,20825414.0,4600.0,54,R,20825453,20825645,194,948.5,598.9,4249,NA
30,2,continuous,5,93,fixationCross,20826314.0,20829930.0,3616.0,55,R,20825937,20826295,360,887.2,558.9,4214,NA
30,2,continuous,5,93,trial,20826314.0,20829930.0,3616.0,55,R,20826319,20826491,174,962.6,552.7,4165,NA
30,2,continuous,5,93,trial,20826314.0,20829930.0,3616.0,55,R,20826531,20826727,198,605.2,567.1,3953,left
30,2,continuous,5,93,trial,20826314.0,20829930.0,3616.0,55,R,20826791,20827027,238,1407.6,556.6,3395,right
30,2,continuous,5,93,trial,20826314.0,20829930.0,3616.0,55,R,20827049,20827311,264,1477.2,539.6,3455,right
30,2,continuous,5,93,trial,20826314.0,20829930.0,3616.0,55,R,20827321,20827701,382,1446.2,544.1,3669,right
30,2,continuous,5,93,trial,20826314.0,20829930.0,3616.0,55,R,20827727,20827905,180,1550.0,549.8,3850,right
30,2,continuous,5,93,trial,20826314.0,20829930.0,3616.0,55,R,20827961,20828439,480,1396.6,920.3,4018,NA
30,2,continuous,5,93,trial,20826314.0,20829930.0,3616.0,55,R,20828493,20828723,232,1437.4,636.3,3923,right
30,2,continuous,5,93,trial,20826314.0,20829930.0,3616.0,55,R,20828775,20828973,200,1405.3,946.9,4002,NA
30,2,continuous,5,93,trial,20826314.0,20829930.0,3616.0,55,R,20829035,20829247,214,638.9,672.6,4040,left
30,2,continuous,5,93,trial,20826314.0,20829930.0,3616.0,55,R,20829271,20829473,204,615.1,600.1,3671,left
30,2,continuous,5,93,trial,20826314.0,20829930.0,3616.0,55,R,20829497,20829663,168,492.8,542.5,3466,left
30,2,continuous,5,93,trial,20826314.0,20829930.0,3616.0,55,R,20829673,20829925,254,467.9,530.8,3480,left
30,2,continuous,5,93,trial,20826314.0,20829930.0,3616.0,55,R,20829989,20830177,190,1356.8,697.8,3428,right
30,2,continuous,6,37,fixationCross,20830930.0,20835097.0,4167.0,56,R,20830393,20830597,206,1174.4,566.9,3800,NA
30,2,continuous,6,37,fixationCross,20830930.0,20835097.0,4167.0,56,R,20830625,20830813,190,1033.7,570.9,3934,NA
30,2,continuous,6,37,trial,20830930.0,20835097.0,4167.0,56,R,20830835,20831111,278,956.8,557.4,4060,NA
30,2,continuous,6,37,trial,20830930.0,20835097.0,4167.0,56,R,20831155,20831325,172,500.7,510.4,3889,left
30,2,continuous,6,37,trial,20830930.0,20835097.0,4167.0,56,R,20831345,20831589,246,441.8,467.9,3417,left
30,2,continuous,6,37,trial,20830930.0,20835097.0,4167.0,56,R,20831649,20831837,190,1385.6,503.3,3312,right
30,2,continuous,6,37,trial,20830930.0,20835097.0,4167.0,56,R,20831865,20832037,174,1509.6,549.1,3344,right
30,2,continuous,6,37,trial,20830930.0,20835097.0,4167.0,56,R,20832065,20832171,108,1327.5,463.2,3404,right
30,2,continuous,6,37,trial,20830930.0,20835097.0,4167.0,56,R,20832229,20832435,208,557.5,492.0,3555,left
30,2,continuous,6,37,trial,20830930.0,20835097.0,4167.0,56,R,20832487,20832691,206,893.0,943.0,3559,likertHorizontal
30,2,continuous,6,37,trial,20830930.0,20835097.0,4167.0,56,R,20832749,20832961,214,511.9,504.4,3609,left
30,2,continuous,6,37,trial,20830930.0,20835097.0,4167.0,56,R,20832977,20833025,50,466.4,481.7,3601,left
30,2,continuous,6,37,trial,20830930.0,20835097.0,4167.0,56,R,20833085,20833371,288,1440.2,521.9,3501,right
30,2,continuous,6,37,trial,20830930.0,20835097.0,4167.0,56,R,20833431,20833621,192,979.6,876.1,3612,likertHorizontal
30,2,continuous,6,37,trial,20830930.0,20835097.0,4167.0,56,R,20833649,20833731,84,855.8,915.2,3723,likertHorizontal
30,2,continuous,6,37,trial,20830930.0,20835097.0,4167.0,56,R,20833907,20834017,112,780.0,794.0,3845,likertHorizontal
30,2,continuous,6,37,trial,20830930.0,20835097.0,4167.0,56,R,20834459,20834655,198,483.5,477.5,3890,left
30,2,continuous,6,37,trial,20830930.0,20835097.0,4167.0,56,R,20834671,20835315,646,442.5,471.1,3720,left
30,2,continuous,6,37,postResponse,20830930.0,20835097.0,4167.0,56,R,20835347,20835431,86,682.4,503.8,3665,left
30,2,continuous,7,14,fixationCross,20836247.0,20840180.0,3933.0,57,R,20835531,20835955,426,799.0,551.6,3790,NA
30,2,continuous,7,14,trial,20836247.0,20840180.0,3933.0,57,R,20835985,20836297,314,967.9,535.6,4007,NA
30,2,continuous,7,14,trial,20836247.0,20840180.0,3933.0,57,R,20836461,20836631,172,556.1,511.2,3997,left
30,2,continuous,7,14,trial,20836247.0,20840180.0,3933.0,57,R,20836655,20836921,268,536.1,442.6,3607,left
30,2,continuous,7,14,trial,20836247.0,20840180.0,3933.0,57,R,20836987,20837209,224,1391.1,515.0,3543,right
30,2,continuous,7,14,trial,20836247.0,20840180.0,3933.0,57,R,20837231,20837587,358,1458.4,506.7,3476,right
30,2,continuous,7,14,trial,20836247.0,20840180.0,3933.0,57,R,20837617,20837705,90,1524.7,606.8,3578,right
30,2,continuous,7,14,trial,20836247.0,20840180.0,3933.0,57,R,20837769,20837967,200,537.2,504.5,3789,left
30,2,continuous,7,14,trial,20836247.0,20840180.0,3933.0,57,R,20838005,20838645,642,548.2,419.7,3919,left
30,2,continuous,7,14,trial,20836247.0,20840180.0,3933.0,57,R,20838713,20838831,120,670.7,1062.2,4225,NA
30,2,continuous,7,14,trial,20836247.0,20840180.0,3933.0,57,R,20838857,20839085,230,709.0,991.4,4142,NA
30,2,continuous,7,14,trial,20836247.0,20840180.0,3933.0,57,R,20839113,20839433,322,548.6,976.7,3909,NA
30,2,continuous,7,14,trial,20836247.0,20840180.0,3933.0,57,R,20839457,20839615,160,623.5,970.0,3916,NA
30,2,continuous,7,14,trial,20836247.0,20840180.0,3933.0,57,R,20839853,20839947,96,575.1,929.0,4000,NA
30,2,continuous,7,14,trial,20836247.0,20840180.0,3933.0,57,R,20840189,20840477,290,551.4,532.1,3891,left
30,2,continuous,8,26,fixationCross,20841297.0,20844480.0,3183.0,58,R,20840883,20841169,288,866.3,572.1,4050,NA
30,2,continuous,8,26,trial,20841297.0,20844480.0,3183.0,58,R,20841195,20841449,256,947.1,557.9,4150,NA
30,2,continuous,8,26,trial,20841297.0,20844480.0,3183.0,58,R,20841493,20841667,176,537.1,551.0,4091,left
30,2,continuous,8,26,trial,20841297.0,20844480.0,3183.0,58,R,20841693,20841899,208,527.7,477.5,3673,left
30,2,continuous,8,26,trial,20841297.0,20844480.0,3183.0,58,R,20841919,20842105,188,592.2,482.6,3511,left
30,2,continuous,8,26,trial,20841297.0,20844480.0,3183.0,58,R,20842175,20842377,204,1506.9,545.8,3471,right
30,2,continuous,8,26,trial,20841297.0,20844480.0,3183.0,58,R,20842399,20842541,144,1444.8,506.4,3479,right
30,2,continuous,8,26,trial,20841297.0,20844480.0,3183.0,58,R,20842605,20842875,272,505.9,598.3,3553,left
30,2,continuous,8,26,trial,20841297.0,20844480.0,3183.0,58,R,20842885,20843273,390,532.2,597.3,3625,left
30,2,continuous,8,26,trial,20841297.0,20844480.0,3183.0,58,R,20843301,20843379,80,531.5,492.8,3700,left
30,2,continuous,8,26,trial,20841297.0,20844480.0,3183.0,58,R,20843437,20843567,132,679.8,882.4,3804,NA
30,2,continuous,8,26,trial,20841297.0,20844480.0,3183.0,58,R,20843593,20844043,452,663.6,973.9,3911,NA
30,2,continuous,8,26,trial,20841297.0,20844480.0,3183.0,58,R,20844213,20844347,136,804.4,870.1,4209,likertHorizontal
30,2,continuous,8,26,trial,20841297.0,20844480.0,3183.0,58,R,20844369,20844715,348,725.1,952.7,4192,NA
30,2,continuous,9,64,fixationCross,20845797.0,20849230.0,3433.0,59,R,20844957,20844957,2,785.3,451.7,4305,NA
30,2,continuous,9,64,fixationCross,20845797.0,20849230.0,3433.0,59,R,20844971,20845101,132,729.8,564.4,4076,left
30,2,continuous,9,64,fixationCross,20845797.0,20849230.0,3433.0,59,R,20845339,20845489,152,675.2,528.5,4096,left
30,2,continuous,9,64,trial,20845797.0,20849230.0,3433.0,59,R,20845531,20845983,454,887.6,547.1,4083,NA
30,2,continuous,9,64,trial,20845797.0,20849230.0,3433.0,59,R,20846027,20846269,244,506.2,532.6,3787,left
30,2,continuous,9,64,trial,20845797.0,20849230.0,3433.0,59,R,20846293,20846421,130,523.2,474.6,3415,left
30,2,continuous,9,64,trial,20845797.0,20849230.0,3433.0,59,R,20846475,20846669,196,1300.8,522.1,3328,right
30,2,continuous,9,64,trial,20845797.0,20849230.0,3433.0,59,R,20846695,20846993,300,1434.7,526.8,3340,right
30,2,continuous,9,64,trial,20845797.0,20849230.0,3433.0,59,R,20847011,20847225,216,1442.4,486.5,3417,right
30,2,continuous,9,64,trial,20845797.0,20849230.0,3433.0,59,R,20847287,20847471,186,610.5,513.7,3559,left
30,2,continuous,9,64,trial,20845797.0,20849230.0,3433.0,59,R,20847527,20847771,246,1176.8,680.3,3463,NA
30,2,continuous,9,64,trial,20845797.0,20849230.0,3433.0,59,R,20847817,20848043,228,1075.9,936.4,3519,likertHorizontal
30,2,continuous,9,64,trial,20845797.0,20849230.0,3433.0,59,R,20848091,20848275,186,1330.0,618.9,3681,right
30,2,continuous,9,64,trial,20845797.0,20849230.0,3433.0,59,R,20848333,20848549,218,550.9,575.3,3671,left
30,2,continuous,9,64,trial,20845797.0,20849230.0,3433.0,59,R,20848573,20848759,188,533.5,521.0,3514,left
30,2,continuous,9,64,trial,20845797.0,20849230.0,3433.0,59,R,20848817,20848915,100,1168.6,551.7,3466,NA
30,2,continuous,9,64,trial,20845797.0,20849230.0,3433.0,59,R,20848945,20849479,536,1308.5,605.8,3608,right
30,2,continuous,10,68,fixationCross,20850281.0,20854231.0,3950.0,60,R,20849683,20849683,2,956.7,846.1,3597,likertHorizontal
30,2,continuous,10,68,fixationCross,20850281.0,20854231.0,3950.0,60,R,20849731,20849763,34,989.2,690.0,3912,NA
30,2,continuous,10,68,fixationCross,20850281.0,20854231.0,3950.0,60,R,20849973,20850131,160,948.2,633.6,4043,NA
30,2,continuous,10,68,trial,20850281.0,20854231.0,3950.0,60,R,20850157,20850467,312,945.4,551.7,4035,NA
30,2,continuous,10,68,trial,20850281.0,20854231.0,3950.0,60,R,20850507,20850687,182,584.1,525.0,3868,left
30,2,continuous,10,68,trial,20850281.0,20854231.0,3950.0,60,R,20850711,20850797,88,505.7,473.9,3525,left
30,2,continuous,10,68,trial,20850281.0,20854231.0,3950.0,60,R,20850857,20851079,224,1386.1,554.8,3359,right
30,2,continuous,10,68,trial,20850281.0,20854231.0,3950.0,60,R,20851097,20851397,302,1432.8,580.8,3295,right
30,2,continuous,10,68,trial,20850281.0,20854231.0,3950.0,60,R,20851417,20851547,132,1506.3,544.9,3341,right
30,2,continuous,10,68,trial,20850281.0,20854231.0,3950.0,60,R,20851571,20851827,258,1620.0,556.9,3361,right
30,2,continuous,10,68,trial,20850281.0,20854231.0,3950.0,60,R,20851987,20852125,140,1344.7,520.2,3778,right
30,2,continuous,10,68,trial,20850281.0,20854231.0,3950.0,60,R,20852333,20852471,140,1367.9,514.4,3700,right
30,2,continuous,10,68,trial,20850281.0,20854231.0,3950.0,60,R,20852489,20852665,178,1401.9,574.7,3601,right
30,2,continuous,10,68,trial,20850281.0,20854231.0,3950.0,60,R,20852717,20852905,190,1356.9,883.4,3739,NA
30,2,continuous,10,68,trial,20850281.0,20854231.0,3950.0,60,R,20852927,20853109,184,1300.3,936.8,3852,NA
30,2,continuous,10,68,trial,20850281.0,20854231.0,3950.0,60,R,20853127,20853341,216,1245.6,950.6,3893,NA
30,2,continuous,10,68,trial,20850281.0,20854231.0,3950.0,60,R,20853353,20853661,310,1210.3,958.4,3988,NA
30,2,continuous,10,68,trial,20850281.0,20854231.0,3950.0,60,R,20853673,20854445,774,1151.9,966.3,4182,likertHorizontal
30,2,continuous,11,6,fixationCross,20855147.0,20857631.0,2484.0,61,R,20854673,20855107,436,946.8,593.4,4037,NA
30,2,continuous,11,6,trial,20855147.0,20857631.0,2484.0,61,R,20855131,20855345,216,946.8,541.5,4032,NA
30,2,continuous,11,6,trial,20855147.0,20857631.0,2484.0,61,R,20855391,20855559,170,543.9,513.2,3896,left
30,2,continuous,11,6,trial,20855147.0,20857631.0,2484.0,61,R,20855581,20855789,210,506.8,462.7,3697,left
30,2,continuous,11,6,trial,20855147.0,20857631.0,2484.0,61,R,20855799,20855949,152,507.5,450.1,3667,left
30,2,continuous,11,6,trial,20855147.0,20857631.0,2484.0,61,R,20856017,20856183,168,1328.2,511.6,3702,right
30,2,continuous,11,6,trial,20855147.0,20857631.0,2484.0,61,R,20856211,20856549,340,1467.7,511.3,3759,right
30,2,continuous,11,6,trial,20855147.0,20857631.0,2484.0,61,R,20856611,20856761,152,684.9,627.1,3992,left
30,2,continuous,11,6,trial,20855147.0,20857631.0,2484.0,61,R,20856811,20857193,384,580.0,950.1,4050,NA
30,2,continuous,11,6,trial,20855147.0,20857631.0,2484.0,61,R,20857213,20857409,198,524.0,974.0,4035,NA
30,2,continuous,11,6,trial,20855147.0,20857631.0,2484.0,61,R,20857469,20857831,364,495.7,524.8,4015,left
30,2,continuous,12,71,fixationCross,20858631.0,20864948.0,6317.0,62,R,20858197,20858321,126,1116.0,527.0,3988,NA
30,2,continuous,12,71,fixationCross,20858631.0,20864948.0,6317.0,62,R,20858345,20858509,166,1010.3,566.7,3956,NA
30,2,continuous,12,71,trial,20858631.0,20864948.0,6317.0,62,R,20858529,20858847,320,947.0,540.5,4060,NA
30,2,continuous,12,71,trial,20858631.0,20864948.0,6317.0,62,R,20858899,20859019,122,1338.6,524.4,3867,right
30,2,continuous,12,71,trial,20858631.0,20864948.0,6317.0,62,R,20859045,20859187,144,1460.7,527.5,3509,right
30,2,continuous,12,71,trial,20858631.0,20864948.0,6317.0,62,R,20859251,20859485,236,540.8,480.7,3478,left
30,2,continuous,12,71,trial,20858631.0,20864948.0,6317.0,62,R,20859501,20859819,320,501.1,467.0,3334,left
30,2,continuous,12,71,trial,20858631.0,20864948.0,6317.0,62,R,20859839,20859989,152,420.6,450.5,3362,left
30,2,continuous,12,71,trial,20858631.0,20864948.0,6317.0,62,R,20860057,20860299,244,1490.8,549.5,3387,right
30,2,continuous,12,71,trial,20858631.0,20864948.0,6317.0,62,R,20860325,20860627,304,1601.5,510.7,3444,right
30,2,continuous,12,71,trial,20858631.0,20864948.0,6317.0,62,R,20860655,20860719,66,1465.4,529.6,3512,right
30,2,continuous,12,71,trial,20858631.0,20864948.0,6317.0,62,R,20860791,20861001,212,433.7,548.9,3647,left
30,2,continuous,12,71,trial,20858631.0,20864948.0,6317.0,62,R,20861023,20861409,388,370.7,573.1,3548,left
30,2,continuous,12,71,trial,20858631.0,20864948.0,6317.0,62,R,20861439,20861799,362,507.0,464.0,3539,left
30,2,continuous,12,71,trial,20858631.0,20864948.0,6317.0,62,R,20861821,20862055,236,433.4,435.5,3524,left
30,2,continuous,12,71,trial,20858631.0,20864948.0,6317.0,62,R,20862065,20862289,226,412.6,428.3,3517,left
30,2,continuous,12,71,trial,20858631.0,20864948.0,6317.0,62,R,20862355,20862529,176,337.7,618.9,3524,left
30,2,continuous,12,71,trial,20858631.0,20864948.0,6317.0,62,R,20862547,20862915,370,348.6,587.6,3574,left
30,2,continuous,12,71,trial,20858631.0,20864948.0,6317.0,62,R,20862947,20863445,500,408.0,423.9,3567,left
30,2,continuous,12,71,trial,20858631.0,20864948.0,6317.0,62,R,20863627,20863891,266,1408.6,596.9,3747,right
30,2,continuous,12,71,trial,20858631.0,20864948.0,6317.0,62,R,20863919,20864117,200,1441.7,543.7,3768,right
30,2,continuous,12,71,trial,20858631.0,20864948.0,6317.0,62,R,20864175,20864329,156,1321.0,971.4,3902,NA
30,2,continuous,12,71,trial,20858631.0,20864948.0,6317.0,62,R,20864351,20864427,78,1242.9,952.6,3950,NA
30,2,continuous,12,71,trial,20858631.0,20864948.0,6317.0,62,R,20864607,20864643,38,1441.8,487.5,3827,right
30,2,continuous,12,71,trial,20858631.0,20864948.0,6317.0,62,R,20864695,20864833,140,1234.4,774.7,3884,NA
30,2,continuous,12,71,trial,20858631.0,20864948.0,6317.0,62,R,20864877,20865127,252,1138.1,946.6,3933,likertHorizontal
30,2,continuous,13,38,fixationCross,20865980.0,20869364.0,3384.0,63,R,20865419,20865523,106,1142.1,622.5,4065,NA
30,2,continuous,13,38,fixationCross,20865980.0,20869364.0,3384.0,63,R,20865707,20865837,132,1004.7,562.0,4098,NA
30,2,continuous,13,38,trial,20865980.0,20869364.0,3384.0,63,R,20865857,20866167,312,930.8,559.1,4036,NA
30,2,continuous,13,38,trial,20865980.0,20869364.0,3384.0,63,R,20866219,20866401,184,511.3,594.2,3920,left
30,2,continuous,13,38,trial,20865980.0,20869364.0,3384.0,63,R,20866423,20866605,184,418.0,560.4,3462,left
30,2,continuous,13,38,trial,20865980.0,20869364.0,3384.0,63,R,20866615,20866779,166,424.0,541.6,3371,left
30,2,continuous,13,38,trial,20865980.0,20869364.0,3384.0,63,R,20866839,20867185,348,1351.8,557.4,3370,right
30,2,continuous,13,38,trial,20865980.0,20869364.0,3384.0,63,R,20867205,20867471,268,1278.9,553.5,3498,right
30,2,continuous,13,38,trial,20865980.0,20869364.0,3384.0,63,R,20867527,20867809,284,554.9,590.0,3596,left
30,2,continuous,13,38,trial,20865980.0,20869364.0,3384.0,63,R,20867833,20868107,276,424.5,552.4,3494,left
30,2,continuous,13,38,trial,20865980.0,20869364.0,3384.0,63,R,20868169,20868581,414,857.1,928.7,3611,likertHorizontal
30,2,continuous,13,38,trial,20865980.0,20869364.0,3384.0,63,R,20868599,20868853,256,830.4,962.2,3778,likertHorizontal
30,2,continuous,13,38,trial,20865980.0,20869364.0,3384.0,63,R,20868867,20868893,28,843.2,877.3,3999,likertHorizontal
30,2,continuous,13,38,trial,20865980.0,20869364.0,3384.0,63,R,20868953,20868973,22,705.6,1456.7,2227,NA
30,2,continuous,13,38,trial,20865980.0,20869364.0,3384.0,63,R,20869065,20869317,254,876.8,901.1,4116,likertHorizontal
30,2,continuous,13,38,trial,20865980.0,20869364.0,3384.0,63,R,20869463,20869515,54,803.1,697.4,4226,NA
30,2,continuous,14,79,fixationCross,20870547.0,20872748.0,2201.0,64,R,20869809,20869825,18,764.7,495.0,4189,NA
30,2,continuous,14,79,fixationCross,20870547.0,20872748.0,2201.0,64,R,20869837,20870247,412,725.0,609.3,4013,left
30,2,continuous,14,79,trial,20870547.0,20872748.0,2201.0,64,R,20870279,20870569,292,916.7,580.6,3981,NA
30,2,continuous,14,79,trial,20870547.0,20872748.0,2201.0,64,R,20870597,20870737,142,768.8,593.9,3986,NA
30,2,continuous,14,79,trial,20870547.0,20872748.0,2201.0,64,R,20870775,20870919,146,519.1,536.4,3926,left
30,2,continuous,14,79,trial,20870547.0,20872748.0,2201.0,64,R,20870949,20871153,206,534.8,407.8,3482,left
30,2,continuous,14,79,trial,20870547.0,20872748.0,2201.0,64,R,20871219,20871483,266,1513.4,520.4,3343,right
30,2,continuous,14,79,trial,20870547.0,20872748.0,2201.0,64,R,20871509,20872045,538,1380.0,571.6,3405,right
30,2,continuous,14,79,trial,20870547.0,20872748.0,2201.0,64,R,20872101,20872675,576,1237.1,935.7,3849,NA
30,2,continuous,14,79,trial,20870547.0,20872748.0,2201.0,64,R,20872779,20873043,266,624.6,521.0,3983,left
30,2,continuous,15,50,fixationCross,20873947.0,20877864.0,3917.0,65,R,20873349,20873641,294,647.8,535.9,3952,left
30,2,continuous,15,50,fixationCross,20873947.0,20877864.0,3917.0,65,R,20873677,20873813,138,901.4,579.0,4019,NA
30,2,continuous,15,50,trial,20873947.0,20877864.0,3917.0,65,R,20873841,20874091,252,1018.1,600.1,3999,NA
30,2,continuous,15,50,trial,20873947.0,20877864.0,3917.0,65,R,20874133,20874319,188,603.7,564.4,3898,left
30,2,continuous,15,50,trial,20873947.0,20877864.0,3917.0,65,R,20874349,20874533,186,408.0,551.6,3489,left
30,2,continuous,15,50,trial,20873947.0,20877864.0,3917.0,65,R,20874599,20874789,192,1479.1,538.2,3337,right
30,2,continuous,15,50,trial,20873947.0,20877864.0,3917.0,65,R,20874817,20875065,250,1596.9,499.0,3329,right
30,2,continuous,15,50,trial,20873947.0,20877864.0,3917.0,65,R,20875077,20875333,258,1606.6,470.6,3408,right
30,2,continuous,15,50,trial,20873947.0,20877864.0,3917.0,65,R,20875407,20875685,280,473.5,570.7,3583,left
30,2,continuous,15,50,trial,20873947.0,20877864.0,3917.0,65,R,20875715,20876043,330,655.1,540.0,3382,left
30,2,continuous,15,50,trial,20873947.0,20877864.0,3917.0,65,R,20876069,20876197,130,522.4,530.3,3384,left
30,2,continuous,15,50,trial,20873947.0,20877864.0,3917.0,65,R,20876255,20876485,232,1159.7,580.9,3423,NA
30,2,continuous,15,50,trial,20873947.0,20877864.0,3917.0,65,R,20876539,20876771,234,943.7,921.2,3623,likertHorizontal
30,2,continuous,15,50,trial,20873947.0,20877864.0,3917.0,65,R,20876795,20876833,40,1041.7,861.1,3919,likertHorizontal
30,2,continuous,15,50,trial,20873947.0,20877864.0,3917.0,65,R,20877011,20877717,708,996.3,934.3,4034,likertHorizontal
30,2,continuous,15,50,trial,20873947.0,20877864.0,3917.0,65,R,20877763,20877873,112,1257.6,720.9,4247,right
30,2,continuous,15,50,trial,20873947.0,20877864.0,3917.0,65,R,20878047,20878107,62,1037.4,639.8,4066,NA
30,2,continuous,16,41,fixationCross,20879065.0,20882048.0,2983.0,66,R,20878383,20878565,184,853.4,614.2,4026,NA
30,2,continuous,16,41,fixationCross,20879065.0,20882048.0,2983.0,66,R,20878581,20878755,176,799.7,626.6,4082,NA
30,2,continuous,16,41,fixationCross,20879065.0,20882048.0,2983.0,66,R,20878785,20878983,200,952.6,566.0,4039,NA
30,2,continuous,16,41,trial,20879065.0,20882048.0,2983.0,66,R,20879013,20879223,212,795.2,567.0,3954,NA
30,2,continuous,16,41,trial,20879065.0,20882048.0,2983.0,66,R,20879261,20879569,310,512.3,537.9,3747,left
30,2,continuous,16,41,trial,20879065.0,20882048.0,2983.0,66,R,20879637,20879811,176,1393.7,478.2,3347,right
30,2,continuous,16,41,trial,20879065.0,20882048.0,2983.0,66,R,20879831,20880075,246,1347.8,452.7,3291,right
30,2,continuous,16,41,trial,20879065.0,20882048.0,2983.0,66,R,20880105,20880235,132,1484.2,563.1,3316,right
30,2,continuous,16,41,trial,20879065.0,20882048.0,2983.0,66,R,20880267,20880363,98,1343.5,445.1,3413,right
30,2,continuous,16,41,trial,20879065.0,20882048.0,2983.0,66,R,20880423,20880681,260,536.1,506.1,3537,left
30,2,continuous,16,41,trial,20879065.0,20882048.0,2983.0,66,R,20880703,20880967,266,456.0,514.8,3488,left
30,2,continuous,16,41,trial,20879065.0,20882048.0,2983.0,66,R,20881021,20881205,186,827.4,918.5,3653,likertHorizontal
30,2,continuous,16,41,trial,20879065.0,20882048.0,2983.0,66,R,20881231,20881443,214,907.9,974.8,3711,likertHorizontal
30,2,continuous,16,41,trial,20879065.0,20882048.0,2983.0,66,R,20881487,20881591,106,620.8,787.8,3740,NA
30,2,continuous,16,41,trial,20879065.0,20882048.0,2983.0,66,R,20881617,20881835,220,510.2,641.4,3672,left
30,2,continuous,16,41,trial,20879065.0,20882048.0,2983.0,66,R,20881865,20882303,440,497.7,493.0,3478,left
30,2,continuous,16,41,postResponse,20879065.0,20882048.0,2983.0,66,R,20882353,20882385,34,834.0,733.6,3562,likertHorizontal
30,2,continuous,17,27,fixationCross,20883214.0,20886581.0,3367.0,67,R,20882785,20882893,110,885.5,818.8,3932,likertHorizontal
30,2,continuous,17,27,trial,20883214.0,20886581.0,3367.0,67,R,20882947,20883241,296,950.8,584.5,3933,NA
30,2,continuous,17,27,trial,20883214.0,20886581.0,3367.0,67,R,20883271,20883423,154,812.4,625.6,3968,NA
30,2,continuous,17,27,trial,20883214.0,20886581.0,3367.0,67,R,20883463,20883653,192,499.0,591.1,3880,left
30,2,continuous,17,27,trial,20883214.0,20886581.0,3367.0,67,R,20883679,20883821,144,570.3,504.8,3572,left
30,2,continuous,17,27,trial,20883214.0,20886581.0,3367.0,67,R,20883881,20884277,398,1429.9,605.2,3536,right
30,2,continuous,17,27,trial,20883214.0,20886581.0,3367.0,67,R,20884297,20884397,102,1484.3,618.1,3632,right
30,2,continuous,17,27,trial,20883214.0,20886581.0,3367.0,67,R,20884459,20884703,246,550.0,608.2,3827,left
30,2,continuous,17,27,trial,20883214.0,20886581.0,3367.0,67,R,20884725,20885143,420,483.6,618.7,3727,left
30,2,continuous,17,27,trial,20883214.0,20886581.0,3367.0,67,R,20885193,20885321,130,738.7,898.8,3831,likertHorizontal
30,2,continuous,17,27,trial,20883214.0,20886581.0,3367.0,67,R,20885347,20885595,250,766.4,969.0,3867,likertHorizontal
30,2,continuous,17,27,trial,20883214.0,20886581.0,3367.0,67,R,20885613,20885751,140,706.1,975.1,3857,NA
30,2,continuous,17,27,trial,20883214.0,20886581.0,3367.0,67,R,20886097,20886239,144,755.1,832.7,4024,likertHorizontal
30,2,continuous,17,27,trial,20883214.0,20886581.0,3367.0,67,R,20886253,20886317,66,767.3,892.8,4023,likertHorizontal
30,2,continuous,17,27,trial,20883214.0,20886581.0,3367.0,67,R,20886597,20886747,152,622.2,553.2,3969,left
30,2,continuous,18,26,fixationCross,20887481.0,20891214.0,3733.0,68,R,20887019,20887069,52,725.7,545.3,3864,left
30,2,continuous,18,26,trial,20887481.0,20891214.0,3733.0,68,R,20887105,20887635,532,893.2,589.0,3944,NA
30,2,continuous,18,26,trial,20887481.0,20891214.0,3733.0,68,R,20887675,20888039,366,570.1,565.0,3783,left
30,2,continuous,18,26,trial,20887481.0,20891214.0,3733.0,68,R,20888059,20888255,198,627.2,575.5,3517,left
30,2,continuous,18,26,trial,20887481.0,20891214.0,3733.0,68,R,20888323,20888569,248,1497.8,510.9,3590,right
30,2,continuous,18,26,trial,20887481.0,20891214.0,3733.0,68,R,20888595,20888917,324,1552.5,466.6,3568,right
30,2,continuous,18,26,trial,20887481.0,20891214.0,3733.0,68,R,20888989,20889321,334,552.4,637.1,3678,left
30,2,continuous,18,26,trial,20887481.0,20891214.0,3733.0,68,R,20889343,20889601,260,619.1,612.7,3641,left
30,2,continuous,18,26,trial,20887481.0,20891214.0,3733.0,68,R,20889631,20889775,146,525.9,466.8,3646,left
30,2,continuous,18,26,trial,20887481.0,20891214.0,3733.0,68,R,20889839,20890575,738,741.2,956.7,3804,likertHorizontal
30,2,continuous,18,26,trial,20887481.0,20891214.0,3733.0,68,R,20890807,20890957,152,713.7,899.5,4202,NA
30,2,continuous,18,26,postResponse,20887481.0,20891214.0,3733.0,68,R,20891179,20891551,374,663.0,559.0,4059,left
30,2,continuous,19,50,fixationCross,20892431.0,20894631.0,2200.0,69,R,20891879,20892131,254,763.2,549.3,4033,NA
30,2,continuous,19,50,trial,20892431.0,20894631.0,2200.0,69,R,20892161,20892509,350,890.8,549.4,3992,NA
30,2,continuous,19,50,trial,20892431.0,20894631.0,2200.0,69,R,20892537,20892629,94,996.1,537.2,3999,NA
30,2,continuous,19,50,trial,20892431.0,20894631.0,2200.0,69,R,20892683,20892893,212,534.2,531.2,3773,left
30,2,continuous,19,50,trial,20892431.0,20894631.0,2200.0,69,R,20892913,20893153,242,505.8,488.1,3397,left
30,2,continuous,19,50,trial,20892431.0,20894631.0,2200.0,69,R,20893217,20893455,240,1449.0,565.3,3354,right
30,2,continuous,19,50,trial,20892431.0,20894631.0,2200.0,69,R,20893485,20893687,204,1548.4,495.0,3410,right
30,2,continuous,19,50,trial,20892431.0,20894631.0,2200.0,69,R,20893721,20893997,278,1328.1,560.5,3607,right
30,2,continuous,19,50,trial,20892431.0,20894631.0,2200.0,69,R,20894033,20894193,162,1559.2,483.0,3647,right
30,2,continuous,19,50,trial,20892431.0,20894631.0,2200.0,69,R,20894205,20894497,294,1539.6,472.5,3589,right
30,2,continuous,19,50,trial,20892431.0,20894631.0,2200.0,69,R,20894555,20894695,142,1261.8,827.7,3661,NA
30,2,continuous,19,50,postResponse,20892431.0,20894631.0,2200.0,69,R,20894725,20894979,256,1112.5,884.6,3791,likertHorizontal
30,2,continuous,20,61,fixationCross,20895864.0,20900348.0,4484.0,70,R,20895105,20895221,118,936.3,817.3,4015,likertHorizontal
30,2,continuous,20,61,fixationCross,20895864.0,20900348.0,4484.0,70,R,20895389,20895417,30,857.5,650.8,4393,NA
30,2,continuous,20,61,fixationCross,20895864.0,20900348.0,4484.0,70,R,20895433,20895549,118,840.1,710.6,4371,NA
30,2,continuous,20,61,trial,20895864.0,20900348.0,4484.0,70,R,20895597,20896045,450,971.6,562.4,4317,NA
30,2,continuous,20,61,trial,20895864.0,20900348.0,4484.0,70,R,20896087,20896559,474,542.9,541.0,3762,left
30,2,continuous,20,61,trial,20895864.0,20900348.0,4484.0,70,R,20896665,20896733,70,612.0,604.1,3540,left
30,2,continuous,20,61,trial,20895864.0,20900348.0,4484.0,70,R,20896785,20896995,212,1350.1,558.5,3658,right
30,2,continuous,20,61,trial,20895864.0,20900348.0,4484.0,70,R,20897021,20897117,98,1401.7,513.4,3721,right
30,2,continuous,20,61,trial,20895864.0,20900348.0,4484.0,70,R,20897301,20897357,58,1435.2,472.8,3752,right
30,2,continuous,20,61,trial,20895864.0,20900348.0,4484.0,70,R,20897531,20897669,140,636.3,567.8,3800,left
30,2,continuous,20,61,trial,20895864.0,20900348.0,4484.0,70,R,20897693,20898037,346,522.5,552.6,3779,left
30,2,continuous,20,61,trial,20895864.0,20900348.0,4484.0,70,R,20898093,20898197,106,835.5,913.2,3781,likertHorizontal
30,2,continuous,20,61,trial,20895864.0,20900348.0,4484.0,70,R,20898255,20898369,116,1355.1,640.7,3754,right
30,2,continuous,20,61,trial,20895864.0,20900348.0,4484.0,70,R,20898399,20898741,344,1455.0,503.0,3610,right
30,2,continuous,20,61,trial,20895864.0,20900348.0,4484.0,70,R,20898801,20898961,162,863.5,742.7,3684,likertHorizontal
