participantNo,block,task,blockTrial,response,trialStage,trialStartTime,trialFinishTime,rt,trial,eye,fixStart,fixEnd,fixLength,fixPosX,fixPosY,dilation,aoi
3,1,continuous,1,100,fixationCross,10231336.0,10232903.0,1567.0,1,R,10230485,10230661,178,1064.3,699.2,4495,NA
3,1,continuous,1,100,fixationCross,10231336.0,10232903.0,1567.0,1,R,10230771,10230801,32,1468.5,1081.2,2310,NA
3,1,continuous,1,100,fixationCross,10231336.0,10232903.0,1567.0,1,R,10230963,10230983,22,1033.3,600.3,4368,NA
3,1,continuous,1,100,trial,10231336.0,10232903.0,1567.0,1,R,10231011,10231483,474,971.5,571.8,4645,NA
3,1,continuous,1,100,trial,10231336.0,10232903.0,1567.0,1,R,10231537,10231773,238,603.7,614.3,4428,left
3,1,continuous,1,100,trial,10231336.0,10232903.0,1567.0,1,R,10231827,10232515,690,1333.0,621.6,3691,right
3,1,continuous,1,100,trial,10231336.0,10232903.0,1567.0,1,R,10232561,10232801,242,1449.7,877.8,3846,NA
3,1,continuous,1,100,trial,10231336.0,10232903.0,1567.0,1,R,10232831,10233065,236,1494.7,1006.5,4047,NA
3,1,continuous,1,100,postResponse,10231336.0,10232903.0,1567.0,1,R,10233109,10233289,182,1266.7,661.6,4177,right
3,1,continuous,2,1,fixationCross,10234053.0,10234969.0,916.0,2,R,10233391,10233463,74,1064.1,503.2,4198,NA
3,1,continuous,2,1,fixationCross,10234053.0,10234969.0,916.0,2,R,10233647,10233797,152,1036.4,438.2,4267,NA
3,1,continuous,2,1,trial,10234053.0,10234969.0,916.0,2,R,10233823,10234215,394,963.0,538.6,4451,NA
3,1,continuous,2,1,trial,10234053.0,10234969.0,916.0,2,R,10234273,10234895,624,534.9,567.3,4054,left
3,1,continuous,2,1,trial,10234053.0,10234969.0,916.0,2,R,10234915,10235199,286,609.5,530.9,3591,left
3,1,continuous,2,1,postResponse,10234053.0,10234969.0,916.0,2,R,10235225,10235337,114,826.9,518.8,3579,NA
3,1,continuous,3,1,fixationCross,10236236.0,10239037.0,2801.0,3,R,10235563,10235611,50,1191.6,468.0,3532,right
3,1,continuous,3,1,fixationCross,10236236.0,10239037.0,2801.0,3,R,10235813,10235915,104,1212.3,491.7,3804,right
3,1,continuous,3,1,fixationCross,10236236.0,10239037.0,2801.0,3,R,10235947,10236099,154,1001.5,515.4,3994,NA
3,1,continuous,3,1,fixationCross,10236236.0,10239037.0,2801.0,3,R,10236117,10236211,96,951.7,530.6,4077,NA
3,1,continuous,3,1,trial,10236236.0,10239037.0,2801.0,3,R,10236419,10236589,172,1200.1,499.3,3907,right
3,1,continuous,3,1,trial,10236236.0,10239037.0,2801.0,3,R,10236617,10236749,134,1311.8,558.7,3871,right
3,1,continuous,3,1,trial,10236236.0,10239037.0,2801.0,3,R,10236823,10236999,178,470.5,567.9,3830,left
3,1,continuous,3,1,trial,10236236.0,10239037.0,2801.0,3,R,10237017,10237265,250,524.7,563.1,3674,left
3,1,continuous,3,1,trial,10236236.0,10239037.0,2801.0,3,R,10237277,10237671,396,529.0,547.3,3499,left
3,1,continuous,3,1,trial,10236236.0,10239037.0,2801.0,3,R,10237735,10238359,626,1472.9,571.5,3241,right
3,1,continuous,3,1,trial,10236236.0,10239037.0,2801.0,3,R,10238423,10239275,854,529.6,543.4,3405,left
3,1,continuous,3,1,postResponse,10236236.0,10239037.0,2801.0,3,R,10239297,10239385,90,694.4,565.1,3436,left
3,1,continuous,4,29,fixationCross,10240453.0,10243636.0,3183.0,4,R,10239597,10239727,132,1012.6,477.9,3556,NA
3,1,continuous,4,29,fixationCross,10240453.0,10243636.0,3183.0,4,R,10239939,10240083,146,1133.5,409.0,3920,NA
3,1,continuous,4,29,trial,10240453.0,10243636.0,3183.0,4,R,10240107,10240467,362,1002.6,450.5,4093,NA
3,1,continuous,4,29,trial,10240453.0,10243636.0,3183.0,4,R,10240485,10240625,142,1061.6,468.4,3946,NA
3,1,continuous,4,29,trial,10240453.0,10243636.0,3183.0,4,R,10240679,10240943,266,643.0,529.3,3717,left
3,1,continuous,4,29,trial,10240453.0,10243636.0,3183.0,4,R,10240977,10241383,408,479.9,593.4,3490,left
3,1,continuous,4,29,trial,10240453.0,10243636.0,3183.0,4,R,10241397,10241651,256,432.7,572.3,3378,left
3,1,continuous,4,29,trial,10240453.0,10243636.0,3183.0,4,R,10241667,10241993,328,468.1,547.3,3383,left
3,1,continuous,4,29,trial,10240453.0,10243636.0,3183.0,4,R,10242009,10242375,368,511.9,553.5,3534,left
3,1,continuous,4,29,trial,10240453.0,10243636.0,3183.0,4,R,10242439,10242603,166,1504.3,591.7,3486,right
3,1,continuous,4,29,trial,10240453.0,10243636.0,3183.0,4,R,10242623,10243047,426,1510.3,540.7,3309,right
3,1,continuous,4,29,trial,10240453.0,10243636.0,3183.0,4,R,10243119,10243899,782,513.5,552.9,3324,left
3,1,continuous,4,29,postResponse,10240453.0,10243636.0,3183.0,4,R,10243923,10243995,74,677.7,568.3,3404,left
3,1,continuous,5,71,fixationCross,10244970.0,10247637.0,2667.0,5,R,10244217,10244267,52,1077.5,466.8,3641,NA
3,1,continuous,5,71,fixationCross,10244970.0,10247637.0,2667.0,5,R,10244495,10244653,160,1167.6,418.8,3955,NA
3,1,continuous,5,71,fixationCross,10244970.0,10247637.0,2667.0,5,R,10244685,10244931,248,990.3,474.8,4167,NA
3,1,continuous,5,71,trial,10244970.0,10247637.0,2667.0,5,R,10244949,10245129,182,923.4,512.4,4094,NA
3,1,continuous,5,71,trial,10244970.0,10247637.0,2667.0,5,R,10245187,10245463,278,445.8,578.3,3772,left
3,1,continuous,5,71,trial,10244970.0,10247637.0,2667.0,5,R,10245525,10246089,566,1421.4,650.6,3266,right
3,1,continuous,5,71,trial,10244970.0,10247637.0,2667.0,5,R,10246115,10246677,564,1400.5,585.3,3268,right
3,1,continuous,5,71,trial,10244970.0,10247637.0,2667.0,5,R,10246725,10247025,302,1392.2,943.1,3621,NA
3,1,continuous,5,71,trial,10244970.0,10247637.0,2667.0,5,R,10247053,10247417,366,1195.7,943.8,3887,NA
3,1,continuous,5,71,postResponse,10244970.0,10247637.0,2667.0,5,R,10247475,10247997,524,424.6,629.6,3925,left
3,1,continuous,6,19,fixationCross,10248587.0,10251270.0,2683.0,6,R,10248097,10248209,114,839.0,555.6,3563,NA
3,1,continuous,6,19,trial,10248587.0,10251270.0,2683.0,6,R,10248235,10248633,400,1015.6,486.9,3651,NA
3,1,continuous,6,19,trial,10248587.0,10251270.0,2683.0,6,R,10248815,10248917,104,1253.4,463.2,3914,right
3,1,continuous,6,19,trial,10248587.0,10251270.0,2683.0,6,R,10248983,10249177,196,460.4,527.4,3854,left
3,1,continuous,6,19,trial,10248587.0,10251270.0,2683.0,6,R,10249195,10249471,278,362.7,530.9,3626,left
3,1,continuous,6,19,trial,10248587.0,10251270.0,2683.0,6,R,10249489,10249605,118,422.3,511.5,3421,left
3,1,continuous,6,19,trial,10248587.0,10251270.0,2683.0,6,R,10249669,10250029,362,1453.7,595.7,3181,right
3,1,continuous,6,19,trial,10248587.0,10251270.0,2683.0,6,R,10250049,10250395,348,1448.3,666.0,3178,right
3,1,continuous,6,19,trial,10248587.0,10251270.0,2683.0,6,R,10250643,10250673,32,633.9,971.8,3295,NA
3,1,continuous,6,19,trial,10248587.0,10251270.0,2683.0,6,R,10250881,10251109,230,437.7,571.9,3460,left
3,1,continuous,6,19,trial,10248587.0,10251270.0,2683.0,6,R,10251133,10251547,416,358.0,530.9,3549,left
3,1,continuous,7,52,fixationCross,10252403.0,10256404.0,4001.0,7,R,10251705,10251741,38,754.8,554.2,3562,NA
3,1,continuous,7,52,fixationCross,10252403.0,10256404.0,4001.0,7,R,10251787,10252087,302,1087.4,558.0,3723,NA
3,1,continuous,7,52,fixationCross,10252403.0,10256404.0,4001.0,7,R,10252113,10252273,162,972.8,518.2,3959,NA
3,1,continuous,7,52,trial,10252403.0,10256404.0,4001.0,7,R,10252473,10252589,118,981.6,495.6,4039,NA
3,1,continuous,7,52,trial,10252403.0,10256404.0,4001.0,7,R,10252645,10252929,286,497.8,545.8,4000,left
3,1,continuous,7,52,trial,10252403.0,10256404.0,4001.0,7,R,10252949,10253117,170,406.2,513.1,3714,left
3,1,continuous,7,52,trial,10252403.0,10256404.0,4001.0,7,R,10253133,10253253,122,350.4,499.4,3562,left
3,1,continuous,7,52,trial,10252403.0,10256404.0,4001.0,7,R,10253317,10253585,270,1391.8,566.7,3255,right
3,1,continuous,7,52,trial,10252403.0,10256404.0,4001.0,7,R,10253609,10253905,298,1360.1,495.3,3205,right
3,1,continuous,7,52,trial,10252403.0,10256404.0,4001.0,7,R,10253967,10254167,202,445.9,477.1,3255,left
3,1,continuous,7,52,trial,10252403.0,10256404.0,4001.0,7,R,10254187,10254631,446,352.2,487.2,3328,left
3,1,continuous,7,52,trial,10252403.0,10256404.0,4001.0,7,R,10254667,10255029,364,561.0,637.2,3490,left
3,1,continuous,7,52,trial,10252403.0,10256404.0,4001.0,7,R,10255083,10255187,106,709.5,1031.0,3714,NA
3,1,continuous,7,52,trial,10252403.0,10256404.0,4001.0,7,R,10255243,10255531,290,1389.9,585.1,3629,right
3,1,continuous,7,52,trial,10252403.0,10256404.0,4001.0,7,R,10255583,10255741,160,1061.7,815.2,3771,likertHorizontal
3,1,continuous,7,52,trial,10252403.0,10256404.0,4001.0,7,R,10255785,10256131,348,908.5,977.6,3889,likertHorizontal
3,1,continuous,7,52,trial,10252403.0,10256404.0,4001.0,7,R,10256181,10256645,466,1342.7,572.1,3887,right
3,1,continuous,8,2,fixationCross,10258420.0,10261254.0,2834.0,8,R,10257121,10257257,138,1094.1,390.1,3922,NA
3,1,continuous,8,2,fixationCross,10258420.0,10261254.0,2834.0,8,R,10257287,10257553,268,926.6,420.7,4131,NA
3,1,continuous,8,2,fixationCross,10258420.0,10261254.0,2834.0,8,R,10257569,10257687,120,969.1,435.4,4046,NA
3,1,continuous,8,2,fixationCross,10258420.0,10261254.0,2834.0,8,R,10258115,10258231,118,787.6,482.8,3743,NA
3,1,continuous,8,2,trial,10258420.0,10261254.0,2834.0,8,R,10258255,10258585,332,911.8,503.1,3881,NA
3,1,continuous,8,2,trial,10258420.0,10261254.0,2834.0,8,R,10258645,10258891,248,491.8,529.1,3768,left
3,1,continuous,8,2,trial,10258420.0,10261254.0,2834.0,8,R,10258913,10259761,850,380.5,573.7,3315,left
3,1,continuous,8,2,trial,10258420.0,10261254.0,2834.0,8,R,10259831,10260089,260,1486.3,570.6,3140,right
3,1,continuous,8,2,trial,10258420.0,10261254.0,2834.0,8,R,10260101,10260361,262,1464.4,597.8,3127,right
3,1,continuous,8,2,trial,10258420.0,10261254.0,2834.0,8,R,10260429,10260647,220,419.0,574.1,3299,left
3,1,continuous,8,2,trial,10258420.0,10261254.0,2834.0,8,R,10260661,10261173,514,376.8,597.7,3355,left
3,1,continuous,8,2,trial,10258420.0,10261254.0,2834.0,8,R,10261407,10261527,122,1491.9,643.3,3391,right
3,1,continuous,9,99,fixationCross,10262353.0,10266220.0,3867.0,9,R,10261845,10262047,204,1080.7,428.6,3944,NA
3,1,continuous,9,99,fixationCross,10262353.0,10266220.0,3867.0,9,R,10262069,10262341,274,970.0,458.6,4146,NA
3,1,continuous,9,99,trial,10262353.0,10266220.0,3867.0,9,R,10262359,10262499,142,901.7,484.9,4086,NA
3,1,continuous,9,99,trial,10262353.0,10266220.0,3867.0,9,R,10262557,10262683,128,453.2,515.0,3938,left
3,1,continuous,9,99,trial,10262353.0,10266220.0,3867.0,9,R,10262715,10262999,286,307.8,509.4,3686,left
3,1,continuous,9,99,trial,10262353.0,10266220.0,3867.0,9,R,10263035,10263265,232,629.8,487.9,3363,left
3,1,continuous,9,99,trial,10262353.0,10266220.0,3867.0,9,R,10263325,10263535,212,1453.1,596.4,3229,right
3,1,continuous,9,99,trial,10262353.0,10266220.0,3867.0,9,R,10263557,10263737,182,1608.1,614.6,3194,right
3,1,continuous,9,99,trial,10262353.0,10266220.0,3867.0,9,R,10263749,10264233,486,1649.3,637.9,3180,right
3,1,continuous,9,99,trial,10262353.0,10266220.0,3867.0,9,R,10264297,10264461,166,810.2,687.2,3349,NA
3,1,continuous,9,99,trial,10262353.0,10266220.0,3867.0,9,R,10264491,10264679,190,616.5,520.6,3346,left
3,1,continuous,9,99,trial,10262353.0,10266220.0,3867.0,9,R,10264729,10265173,446,310.2,515.6,3592,left
3,1,continuous,9,99,trial,10262353.0,10266220.0,3867.0,9,R,10265241,10265447,208,1408.0,571.3,3416,right
3,1,continuous,9,99,trial,10262353.0,10266220.0,3867.0,9,R,10265469,10265653,186,1274.6,560.9,3497,right
3,1,continuous,9,99,postResponse,10262353.0,10266220.0,3867.0,9,R,10265673,10266537,866,1252.3,641.0,3545,right
3,1,continuous,10,1,fixationCross,10267254.0,10269620.0,2366.0,10,R,10266647,10266757,112,1223.4,607.2,3451,right
3,1,continuous,10,1,fixationCross,10267254.0,10269620.0,2366.0,10,R,10266777,10266949,174,1193.3,553.4,3481,right
3,1,continuous,10,1,fixationCross,10267254.0,10269620.0,2366.0,10,R,10266989,10267117,130,972.2,493.4,3488,NA
3,1,continuous,10,1,trial,10267254.0,10269620.0,2366.0,10,R,10267327,10267425,100,987.5,461.7,3464,NA
3,1,continuous,10,1,trial,10267254.0,10269620.0,2366.0,10,R,10267485,10267915,432,431.9,515.7,3590,left
3,1,continuous,10,1,trial,10267254.0,10269620.0,2366.0,10,R,10267979,10268303,326,1507.9,563.1,3141,right
3,1,continuous,10,1,trial,10267254.0,10269620.0,2366.0,10,R,10268333,10268721,390,1301.4,640.3,3134,right
3,1,continuous,10,1,trial,10267254.0,10269620.0,2366.0,10,R,10268793,10269135,344,433.6,557.7,3089,left
3,1,continuous,11,51,fixationCross,10270937.0,10274804.0,3867.0,11,R,10270233,10270389,158,1239.8,322.0,3875,NA
3,1,continuous,11,51,fixationCross,10270937.0,10274804.0,3867.0,11,R,10270421,10270625,206,1059.1,412.4,4085,NA
3,1,continuous,11,51,trial,10270937.0,10274804.0,3867.0,11,R,10270649,10271035,388,957.9,461.5,4105,NA
3,1,continuous,11,51,trial,10270937.0,10274804.0,3867.0,11,R,10271085,10271197,114,630.1,510.5,3816,left
3,1,continuous,11,51,trial,10270937.0,10274804.0,3867.0,11,R,10271245,10271939,696,395.3,532.7,3456,left
3,1,continuous,11,51,trial,10270937.0,10274804.0,3867.0,11,R,10272007,10272355,350,1441.5,575.7,3074,right
3,1,continuous,11,51,trial,10270937.0,10274804.0,3867.0,11,R,10272377,10272761,386,1495.2,649.1,3186,right
3,1,continuous,11,51,trial,10270937.0,10274804.0,3867.0,11,R,10272841,10273099,260,429.6,631.6,3287,left
3,1,continuous,11,51,trial,10270937.0,10274804.0,3867.0,11,R,10273123,10273603,482,400.2,531.2,3353,left
3,1,continuous,11,51,trial,10270937.0,10274804.0,3867.0,11,R,10273667,10273969,304,1374.6,573.6,3179,right
3,1,continuous,11,51,trial,10270937.0,10274804.0,3867.0,11,R,10273991,10274205,216,1437.2,646.1,3165,right
3,1,continuous,11,51,trial,10270937.0,10274804.0,3867.0,11,R,10274223,10274653,432,1472.9,685.0,3232,right
3,1,continuous,11,51,trial,10270937.0,10274804.0,3867.0,11,R,10274675,10274817,144,1508.2,614.3,3227,right
3,1,continuous,11,51,trial,10270937.0,10274804.0,3867.0,11,R,10274859,10275075,218,1467.0,455.7,3231,right
3,1,continuous,12,81,fixationCross,10276054.0,10278521.0,2467.0,12,R,10275369,10275465,98,1174.6,397.8,3462,NA
3,1,continuous,12,81,fixationCross,10276054.0,10278521.0,2467.0,12,R,10275505,10275749,246,924.2,416.6,3731,NA
3,1,continuous,12,81,trial,10276054.0,10278521.0,2467.0,12,R,10275773,10276105,334,985.1,501.1,3776,NA
3,1,continuous,12,81,trial,10276054.0,10278521.0,2467.0,12,R,10276123,10276207,86,911.8,512.8,3625,NA
3,1,continuous,12,81,trial,10276054.0,10278521.0,2467.0,12,R,10276263,10276433,172,459.4,521.5,3525,left
3,1,continuous,12,81,trial,10276054.0,10278521.0,2467.0,12,R,10276449,10276661,214,503.1,485.5,3291,left
3,1,continuous,12,81,trial,10276054.0,10278521.0,2467.0,12,R,10276723,10277101,380,1439.8,539.8,3004,right
3,1,continuous,12,81,trial,10276054.0,10278521.0,2467.0,12,R,10277125,10277461,338,1480.8,615.2,3163,right
3,1,continuous,12,81,trial,10276054.0,10278521.0,2467.0,12,R,10277511,10277713,204,1230.5,968.2,3548,NA
3,1,continuous,12,81,trial,10276054.0,10278521.0,2467.0,12,R,10277785,10277957,174,474.9,541.0,3613,left
3,1,continuous,12,81,trial,10276054.0,10278521.0,2467.0,12,R,10277979,10278801,824,491.7,505.7,3612,left
3,1,continuous,13,88,fixationCross,10279620.0,10281687.0,2067.0,13,R,10278953,10279259,308,951.0,512.0,3631,NA
3,1,continuous,13,88,fixationCross,10279620.0,10281687.0,2067.0,13,R,10279283,10279487,206,1040.0,462.5,3752,NA
3,1,continuous,13,88,trial,10279620.0,10281687.0,2067.0,13,R,10279695,10279761,68,946.3,447.9,3742,NA
3,1,continuous,13,88,trial,10279620.0,10281687.0,2067.0,13,R,10279823,10279989,168,429.0,504.4,3811,left
3,1,continuous,13,88,trial,10279620.0,10281687.0,2067.0,13,R,10280015,10280079,66,374.2,596.1,3761,left
3,1,continuous,13,88,trial,10279620.0,10281687.0,2067.0,13,R,10280155,10281005,852,1515.1,604.7,3281,right
3,1,continuous,13,88,trial,10279620.0,10281687.0,2067.0,13,R,10281027,10281211,186,1402.2,576.1,3130,right
3,1,continuous,13,88,trial,10279620.0,10281687.0,2067.0,13,R,10281237,10281541,306,1241.4,593.4,3178,right
3,1,continuous,13,88,trial,10279620.0,10281687.0,2067.0,13,R,10281563,10281979,418,1226.6,532.6,3142,right
3,1,continuous,14,95,fixationCross,10283387.0,10287220.0,3833.0,14,R,10282263,10282447,186,711.1,386.1,3158,left
3,1,continuous,14,95,fixationCross,10283387.0,10287220.0,3833.0,14,R,10282477,10282787,312,881.1,441.7,3467,NA
3,1,continuous,14,95,fixationCross,10283387.0,10287220.0,3833.0,14,R,10282807,10283065,260,801.6,440.0,3576,NA
3,1,continuous,14,95,fixationCross,10283387.0,10287220.0,3833.0,14,R,10283087,10283319,234,923.2,472.1,3554,NA
3,1,continuous,14,95,trial,10283387.0,10287220.0,3833.0,14,R,10283341,10283543,204,822.8,471.1,3536,NA
3,1,continuous,14,95,trial,10283387.0,10287220.0,3833.0,14,R,10283597,10283889,294,441.6,531.4,3537,left
3,1,continuous,14,95,trial,10283387.0,10287220.0,3833.0,14,R,10283911,10284033,124,360.8,531.3,3414,left
3,1,continuous,14,95,trial,10283387.0,10287220.0,3833.0,14,R,10284103,10284583,482,1484.5,551.2,3032,right
3,1,continuous,14,95,trial,10283387.0,10287220.0,3833.0,14,R,10284603,10285075,474,1534.8,531.1,3108,right
3,1,continuous,14,95,trial,10283387.0,10287220.0,3833.0,14,R,10285137,10285253,118,1062.0,466.8,3302,NA
3,1,continuous,14,95,trial,10283387.0,10287220.0,3833.0,14,R,10285301,10285551,252,498.8,476.3,3273,left
3,1,continuous,14,95,trial,10283387.0,10287220.0,3833.0,14,R,10285575,10285711,138,390.2,503.1,3356,left
3,1,continuous,14,95,trial,10283387.0,10287220.0,3833.0,14,R,10285777,10286035,260,1491.2,537.8,3155,right
3,1,continuous,14,95,trial,10283387.0,10287220.0,3833.0,14,R,10286051,10286317,268,1547.8,523.9,3083,right
3,1,continuous,14,95,trial,10283387.0,10287220.0,3833.0,14,R,10286361,10286697,338,1413.0,869.0,3289,NA
3,1,continuous,14,95,trial,10283387.0,10287220.0,3833.0,14,R,10286725,10286963,240,1458.5,965.9,3412,NA
3,1,continuous,14,95,trial,10283387.0,10287220.0,3833.0,14,R,10287051,10287477,428,398.4,603.6,3513,left
3,1,continuous,15,53,fixationCross,10288420.0,10291387.0,2967.0,15,R,10287781,10288105,326,939.6,370.0,3323,NA
3,1,continuous,15,53,trial,10288420.0,10291387.0,2967.0,15,R,10288135,10288505,372,940.4,492.8,3609,NA
3,1,continuous,15,53,trial,10288420.0,10291387.0,2967.0,15,R,10288553,10288663,112,665.1,499.9,3587,left
3,1,continuous,15,53,trial,10288420.0,10291387.0,2967.0,15,R,10288707,10288893,188,487.3,525.5,3438,left
3,1,continuous,15,53,trial,10288420.0,10291387.0,2967.0,15,R,10288959,10289345,388,1468.3,605.1,3141,right
3,1,continuous,15,53,trial,10288420.0,10291387.0,2967.0,15,R,10289361,10289467,108,1496.0,567.8,3087,right
3,1,continuous,15,53,trial,10288420.0,10291387.0,2967.0,15,R,10289533,10289727,196,544.4,491.3,3162,left
3,1,continuous,15,53,trial,10288420.0,10291387.0,2967.0,15,R,10289747,10290269,524,608.3,483.5,3174,left
3,1,continuous,15,53,trial,10288420.0,10291387.0,2967.0,15,R,10290315,10290423,110,807.4,838.6,3365,likertHorizontal
3,1,continuous,15,53,trial,10288420.0,10291387.0,2967.0,15,R,10290455,10290903,450,925.5,1025.6,3495,likertHorizontal
3,1,continuous,15,53,trial,10288420.0,10291387.0,2967.0,15,R,10290959,10291155,198,1372.1,669.2,3390,right
3,1,continuous,15,53,trial,10288420.0,10291387.0,2967.0,15,R,10291181,10291613,434,1434.4,593.1,3336,right
3,1,continuous,16,1,fixationCross,10292437.0,10294520.0,2083.0,16,R,10291913,10292067,156,1096.9,401.6,3342,NA
3,1,continuous,16,1,fixationCross,10292437.0,10294520.0,2083.0,16,R,10292093,10292425,334,936.3,451.5,3587,NA
3,1,continuous,16,1,trial,10292437.0,10294520.0,2083.0,16,R,10292441,10292575,136,957.6,494.5,3660,NA
3,1,continuous,16,1,trial,10292437.0,10294520.0,2083.0,16,R,10292631,10292869,240,506.2,513.4,3571,left
3,1,continuous,16,1,trial,10292437.0,10294520.0,2083.0,16,R,10292893,10293051,160,371.7,504.8,3425,left
3,1,continuous,16,1,trial,10292437.0,10294520.0,2083.0,16,R,10293115,10293317,204,1406.7,649.4,3181,right
3,1,continuous,16,1,trial,10292437.0,10294520.0,2083.0,16,R,10293333,10293585,254,1464.9,645.4,3105,right
3,1,continuous,16,1,trial,10292437.0,10294520.0,2083.0,16,R,10293647,10293777,132,917.6,780.4,3285,likertHorizontal
3,1,continuous,16,1,trial,10292437.0,10294520.0,2083.0,16,R,10293823,10293991,170,417.3,623.5,3268,left
3,1,continuous,16,1,trial,10292437.0,10294520.0,2083.0,16,R,10294021,10294211,192,373.9,508.2,3359,left
3,1,continuous,16,1,postResponse,10292437.0,10294520.0,2083.0,16,R,10294589,10294867,280,1349.8,700.3,3498,right
3,1,continuous,17,84,fixationCross,10295520.0,10298170.0,2650.0,17,R,10295065,10295209,146,1090.3,515.5,3615,NA
3,1,continuous,17,84,trial,10295520.0,10298170.0,2650.0,17,R,10295235,10295691,458,958.0,453.3,3750,NA
3,1,continuous,17,84,trial,10295520.0,10298170.0,2650.0,17,R,10295751,10296105,356,452.0,550.4,3508,left
3,1,continuous,17,84,trial,10295520.0,10298170.0,2650.0,17,R,10296173,10296385,214,1495.8,573.0,3107,right
3,1,continuous,17,84,trial,10295520.0,10298170.0,2650.0,17,R,10296405,10296705,302,1601.0,548.3,2962,right
3,1,continuous,17,84,trial,10295520.0,10298170.0,2650.0,17,R,10296725,10296911,188,1525.7,520.3,3017,right
3,1,continuous,17,84,trial,10295520.0,10298170.0,2650.0,17,R,10296959,10297201,244,1369.3,921.9,3224,NA
3,1,continuous,17,84,trial,10295520.0,10298170.0,2650.0,17,R,10297227,10297385,160,1493.6,968.2,3367,NA
3,1,continuous,17,84,trial,10295520.0,10298170.0,2650.0,17,R,10297453,10297725,274,623.7,643.4,3638,left
3,1,continuous,17,84,trial,10295520.0,10298170.0,2650.0,17,R,10297749,10297963,216,523.2,577.2,3609,left
3,1,continuous,17,84,trial,10295520.0,10298170.0,2650.0,17,R,10297989,10298411,424,419.2,512.3,3300,left
3,1,continuous,17,84,postResponse,10295520.0,10298170.0,2650.0,17,R,10298435,10298517,84,569.3,512.9,3122,left
3,1,continuous,18,100,trial,10299320.0,10301204.0,1884.0,18,R,10299041,10299501,462,981.0,469.0,3728,NA
3,1,continuous,18,100,trial,10299320.0,10301204.0,1884.0,18,R,10299559,10299789,232,476.3,505.4,3546,left
3,1,continuous,18,100,trial,10299320.0,10301204.0,1884.0,18,R,10299855,10300153,300,1488.5,544.0,3048,right
3,1,continuous,18,100,trial,10299320.0,10301204.0,1884.0,18,R,10300171,10300441,272,1562.3,591.1,2895,right
3,1,continuous,18,100,trial,10299320.0,10301204.0,1884.0,18,R,10300459,10300705,248,1600.9,626.8,2903,right
3,1,continuous,18,100,trial,10299320.0,10301204.0,1884.0,18,R,10300757,10301007,252,1377.5,986.0,3038,NA
3,1,continuous,18,100,trial,10299320.0,10301204.0,1884.0,18,R,10301017,10301067,52,1358.7,957.2,3089,NA
3,1,continuous,18,100,trial,10299320.0,10301204.0,1884.0,18,R,10301091,10301411,322,1510.6,967.2,3109,NA
3,1,continuous,19,45,fixationCross,10302387.0,10304254.0,1867.0,19,R,10301769,10302083,316,1015.2,384.9,3563,NA
3,1,continuous,19,45,trial,10302387.0,10304254.0,1867.0,19,R,10302111,10302401,292,941.3,487.7,3651,NA
3,1,continuous,19,45,trial,10302387.0,10304254.0,1867.0,19,R,10302423,10302561,140,821.6,495.1,3498,NA
3,1,continuous,19,45,trial,10302387.0,10304254.0,1867.0,19,R,10302599,10302887,290,535.4,518.1,3368,left
3,1,continuous,19,45,trial,10302387.0,10304254.0,1867.0,19,R,10302951,10303299,350,1469.5,582.0,3023,right
3,1,continuous,19,45,trial,10302387.0,10304254.0,1867.0,19,R,10303311,10303695,386,1479.4,559.4,2818,right
3,1,continuous,19,45,trial,10302387.0,10304254.0,1867.0,19,R,10303765,10304477,714,476.1,493.9,2763,left
3,1,continuous,20,1,fixationCross,10305203.0,10307170.0,1967.0,20,R,10304709,10304869,162,1060.1,488.9,3183,NA
3,1,continuous,20,1,trial,10305203.0,10307170.0,1967.0,20,R,10304891,10305243,354,902.3,489.1,3498,NA
3,1,continuous,20,1,trial,10305203.0,10307170.0,1967.0,20,R,10305257,10305367,112,935.4,511.9,3629,NA
3,1,continuous,20,1,trial,10305203.0,10307170.0,1967.0,20,R,10305429,10305769,342,452.0,535.5,3428,left
3,1,continuous,20,1,trial,10305203.0,10307170.0,1967.0,20,R,10305791,10306073,284,560.5,528.3,3165,left
3,1,continuous,20,1,trial,10305203.0,10307170.0,1967.0,20,R,10306091,10306167,78,642.9,544.5,3080,left
3,1,continuous,20,1,trial,10305203.0,10307170.0,1967.0,20,R,10306223,10306463,242,1389.6,579.8,3043,right
3,1,continuous,20,1,trial,10305203.0,10307170.0,1967.0,20,R,10306483,10306609,128,1475.0,616.1,3040,right
3,1,continuous,20,1,trial,10305203.0,10307170.0,1967.0,20,R,10306679,10306833,156,534.2,894.4,3190,NA
3,1,continuous,20,1,trial,10305203.0,10307170.0,1967.0,20,R,10307087,10307477,392,361.7,601.2,3406,left
3,1,continuous,21,1,fixationCross,10308087.0,10309870.0,1783.0,21,R,10307591,10307735,146,937.5,486.3,3431,NA
3,1,continuous,21,1,fixationCross,10308087.0,10309870.0,1783.0,21,R,10307753,10308013,262,991.5,462.9,3462,NA
3,1,continuous,21,1,trial,10308087.0,10309870.0,1783.0,21,R,10308031,10308251,222,919.0,498.9,3571,NA
3,1,continuous,21,1,trial,10308087.0,10309870.0,1783.0,21,R,10308307,10308611,306,505.9,558.8,3477,left
3,1,continuous,21,1,trial,10308087.0,10309870.0,1783.0,21,R,10308621,10308763,144,533.7,558.3,3316,left
3,1,continuous,21,1,trial,10308087.0,10309870.0,1783.0,21,R,10308823,10309167,346,1435.5,562.1,3060,right
3,1,continuous,21,1,trial,10308087.0,10309870.0,1783.0,21,R,10309185,10309345,162,1476.9,608.3,2984,right
3,1,continuous,21,1,trial,10308087.0,10309870.0,1783.0,21,R,10309427,10309531,106,530.3,950.0,3062,NA
3,1,continuous,21,1,trial,10308087.0,10309870.0,1783.0,21,R,10309673,10310119,448,456.2,588.3,3200,left
3,1,continuous,21,1,postResponse,10308087.0,10309870.0,1783.0,21,R,10310143,10310221,80,632.5,575.7,3231,left
3,1,continuous,22,100,fixationCross,10310870.0,10313720.0,2850.0,22,R,10310315,10310575,262,796.9,536.0,3329,NA
3,1,continuous,22,100,fixationCross,10310870.0,10313720.0,2850.0,22,R,10310595,10310811,218,899.8,504.9,3461,NA
3,1,continuous,22,100,trial,10310870.0,10313720.0,2850.0,22,R,10310829,10311021,194,965.0,522.1,3516,NA
3,1,continuous,22,100,trial,10310870.0,10313720.0,2850.0,22,R,10311077,10311467,392,527.8,538.0,3408,left
3,1,continuous,22,100,trial,10310870.0,10313720.0,2850.0,22,R,10311491,10311831,342,397.9,502.5,3074,left
3,1,continuous,22,100,trial,10310870.0,10313720.0,2850.0,22,R,10311907,10312051,146,1532.6,537.8,2816,right
3,1,continuous,22,100,trial,10310870.0,10313720.0,2850.0,22,R,10312073,10312525,454,1448.2,482.4,2813,right
3,1,continuous,22,100,trial,10310870.0,10313720.0,2850.0,22,R,10312593,10312937,346,452.6,499.1,3095,left
3,1,continuous,22,100,trial,10310870.0,10313720.0,2850.0,22,R,10312957,10313089,134,475.1,593.7,3181,left
3,1,continuous,22,100,trial,10310870.0,10313720.0,2850.0,22,R,10313151,10313405,256,1436.6,569.6,3101,right
3,1,continuous,22,100,trial,10310870.0,10313720.0,2850.0,22,R,10313427,10313641,216,1477.9,638.3,3145,right
3,1,continuous,22,100,trial,10310870.0,10313720.0,2850.0,22,R,10313673,10314031,360,1412.8,464.6,3396,right
3,1,continuous,23,1,fixationCross,10314937.0,10316804.0,1867.0,23,R,10314157,10314233,78,1125.9,441.1,3652,NA
3,1,continuous,23,1,fixationCross,10314937.0,10316804.0,1867.0,23,R,10314275,10314639,366,898.8,440.8,3669,NA
3,1,continuous,23,1,trial,10314937.0,10316804.0,1867.0,23,R,10314657,10315093,438,943.3,488.1,3589,NA
3,1,continuous,23,1,trial,10314937.0,10316804.0,1867.0,23,R,10315143,10315485,344,413.1,539.1,3515,left
3,1,continuous,23,1,trial,10314937.0,10316804.0,1867.0,23,R,10315507,10316147,642,478.2,524.4,3384,left
3,1,continuous,23,1,trial,10314937.0,10316804.0,1867.0,23,R,10316215,10316583,370,1427.8,536.1,3571,right
3,1,continuous,23,1,trial,10314937.0,10316804.0,1867.0,23,R,10316651,10317019,370,472.2,511.9,3602,left
3,1,continuous,23,1,postResponse,10314937.0,10316804.0,1867.0,23,R,10317047,10317143,98,783.5,517.2,3588,NA
3,1,continuous,24,100,fixationCross,10318021.0,10319421.0,1400.0,24,R,10317243,10317511,270,994.7,466.8,3714,NA
3,1,continuous,24,100,fixationCross,10318021.0,10319421.0,1400.0,24,R,10317535,10317833,300,863.3,458.3,3823,NA
3,1,continuous,24,100,trial,10318021.0,10319421.0,1400.0,24,R,10317851,10318163,314,916.3,498.5,3789,NA
3,1,continuous,24,100,trial,10318021.0,10319421.0,1400.0,24,R,10318219,10318473,256,475.8,521.1,3687,left
3,1,continuous,24,100,trial,10318021.0,10319421.0,1400.0,24,R,10318537,10318817,282,1423.5,559.5,3226,right
3,1,continuous,24,100,trial,10318021.0,10319421.0,1400.0,24,R,10318835,10319603,770,1491.2,577.5,3079,right
3,1,continuous,25,96,fixationCross,10320537.0,10321788.0,1251.0,25,R,10319865,10319873,10,1052.1,542.0,3158,NA
3,1,continuous,25,96,fixationCross,10320537.0,10321788.0,1251.0,25,R,10319889,10320035,148,1012.2,426.2,3444,NA
3,1,continuous,25,96,fixationCross,10320537.0,10321788.0,1251.0,25,R,10320059,10320289,232,869.9,474.2,3668,NA
3,1,continuous,25,96,trial,10320537.0,10321788.0,1251.0,25,R,10320311,10320669,360,953.2,510.7,3750,NA
3,1,continuous,25,96,trial,10320537.0,10321788.0,1251.0,25,R,10320729,10320927,200,465.0,532.4,3581,left
3,1,continuous,25,96,trial,10320537.0,10321788.0,1251.0,25,R,10320991,10321299,310,1479.0,581.9,3262,right
3,1,continuous,25,96,trial,10320537.0,10321788.0,1251.0,25,R,10321319,10322065,748,1546.7,593.4,3142,right
3,1,continuous,25,96,postResponse,10320537.0,10321788.0,1251.0,25,R,10322103,10322133,32,1352.8,594.0,3269,right
3,1,continuous,26,54,fixationCross,10361255.0,10364372.0,3117.0,26,R,10360629,10360745,118,234.8,130.0,4007,NA
3,1,continuous,26,54,fixationCross,10361255.0,10364372.0,3117.0,26,R,10360801,10360955,156,842.7,268.8,3822,NA
3,1,continuous,26,54,trial,10361255.0,10364372.0,3117.0,26,R,10361003,10361455,454,961.1,527.4,3921,NA
3,1,continuous,26,54,trial,10361255.0,10364372.0,3117.0,26,R,10361513,10361737,226,509.5,535.1,4012,left
3,1,continuous,26,54,trial,10361255.0,10364372.0,3117.0,26,R,10361799,10362129,332,1456.1,619.0,3521,right
3,1,continuous,26,54,trial,10361255.0,10364372.0,3117.0,26,R,10362147,10362321,176,1529.8,614.2,3328,right
3,1,continuous,26,54,trial,10361255.0,10364372.0,3117.0,26,R,10362391,10362557,168,414.3,452.5,3417,left
3,1,continuous,26,54,trial,10361255.0,10364372.0,3117.0,26,R,10362577,10362843,268,366.9,488.9,3385,left
3,1,continuous,26,54,trial,10361255.0,10364372.0,3117.0,26,R,10362909,10363155,248,1411.1,612.4,3242,right
3,1,continuous,26,54,trial,10361255.0,10364372.0,3117.0,26,R,10363177,10363597,422,1538.4,630.2,3252,right
3,1,continuous,26,54,trial,10361255.0,10364372.0,3117.0,26,R,10363667,10364137,472,951.9,1020.5,3597,likertHorizontal
3,1,continuous,26,54,trial,10361255.0,10364372.0,3117.0,26,R,10364159,10364223,66,1003.5,956.2,3670,likertHorizontal
3,1,continuous,26,54,trial,10361255.0,10364372.0,3117.0,26,R,10364287,10364619,334,486.2,603.5,3576,left
3,1,continuous,27,1,fixationCross,10366271.0,10368721.0,2450.0,27,R,10365107,10365237,132,1198.7,377.7,3432,right
3,1,continuous,27,1,fixationCross,10366271.0,10368721.0,2450.0,27,R,10365259,10365477,220,1040.9,405.1,3685,NA
3,1,continuous,27,1,fixationCross,10366271.0,10368721.0,2450.0,27,R,10365501,10365801,302,926.2,437.9,3707,NA
3,1,continuous,27,1,fixationCross,10366271.0,10368721.0,2450.0,27,R,10365817,10366055,240,990.9,440.5,3486,NA
3,1,continuous,27,1,fixationCross,10366271.0,10368721.0,2450.0,27,R,10366075,10366133,60,906.6,440.7,3434,NA
3,1,continuous,27,1,trial,10366271.0,10368721.0,2450.0,27,R,10366537,10366589,54,1020.4,496.6,3636,NA
3,1,continuous,27,1,trial,10366271.0,10368721.0,2450.0,27,R,10366629,10366857,230,1417.8,562.6,3729,right
3,1,continuous,27,1,trial,10366271.0,10368721.0,2450.0,27,R,10366931,10367093,164,490.3,511.5,3777,left
3,1,continuous,27,1,trial,10366271.0,10368721.0,2450.0,27,R,10367119,10367259,142,582.1,471.9,3520,left
3,1,continuous,27,1,trial,10366271.0,10368721.0,2450.0,27,R,10367317,10367763,448,1415.1,607.6,3209,right
3,1,continuous,27,1,trial,10366271.0,10368721.0,2450.0,27,R,10367827,10367983,158,844.5,1040.7,3374,likertHorizontal
3,1,continuous,27,1,trial,10366271.0,10368721.0,2450.0,27,R,10368029,10368379,352,508.9,498.7,3408,left
3,1,continuous,27,1,trial,10366271.0,10368721.0,2450.0,27,R,10368399,10368545,148,562.2,480.1,3497,left
3,1,continuous,27,1,trial,10366271.0,10368721.0,2450.0,27,R,10368603,10369017,416,1409.5,591.2,3435,right
3,1,continuous,28,2,fixationCross,10370188.0,10371971.0,1783.0,28,R,10369277,10369691,416,956.9,318.1,3594,NA
3,1,continuous,28,2,fixationCross,10370188.0,10371971.0,1783.0,28,R,10369721,10369907,188,984.7,430.5,3771,NA
3,1,continuous,28,2,trial,10370188.0,10371971.0,1783.0,28,R,10369925,10370329,406,934.3,483.2,3622,NA
3,1,continuous,28,2,trial,10370188.0,10371971.0,1783.0,28,R,10370387,10370555,170,485.2,519.4,3514,left
3,1,continuous,28,2,trial,10370188.0,10371971.0,1783.0,28,R,10370581,10370745,166,417.5,589.0,3359,left
3,1,continuous,28,2,trial,10370188.0,10371971.0,1783.0,28,R,10370811,10371089,280,1449.6,580.2,3074,right
3,1,continuous,28,2,trial,10370188.0,10371971.0,1783.0,28,R,10371107,10371315,210,1482.1,636.9,2975,right
3,1,continuous,28,2,trial,10370188.0,10371971.0,1783.0,28,R,10371391,10371639,250,420.7,525.5,3134,left
3,1,continuous,28,2,trial,10370188.0,10371971.0,1783.0,28,R,10371651,10371929,280,423.8,556.3,3195,left
3,1,continuous,28,2,trial,10370188.0,10371971.0,1783.0,28,R,10371953,10372217,266,348.5,557.5,3205,left
3,1,continuous,28,2,postResponse,10370188.0,10371971.0,1783.0,28,R,10372241,10372305,66,497.0,550.0,3157,left
3,1,continuous,29,1,fixationCross,10373221.0,10374721.0,1500.0,29,R,10372685,10372685,2,966.6,518.4,3184,NA
3,1,continuous,29,1,fixationCross,10373221.0,10374721.0,1500.0,29,R,10372699,10372957,260,945.8,408.2,3472,NA
3,1,continuous,29,1,trial,10373221.0,10374721.0,1500.0,29,R,10372983,10373363,382,987.7,470.0,3670,NA
3,1,continuous,29,1,trial,10373221.0,10374721.0,1500.0,29,R,10373421,10373803,384,505.6,549.4,3392,left
3,1,continuous,29,1,trial,10373221.0,10374721.0,1500.0,29,R,10373869,10374147,280,1450.1,525.7,2974,right
3,1,continuous,29,1,trial,10373221.0,10374721.0,1500.0,29,R,10374175,10374935,762,1503.6,661.9,2984,right
3,1,continuous,30,68,fixationCross,10375855.0,10377738.0,1883.0,30,R,10375175,10375559,386,1106.5,437.3,3522,NA
3,1,continuous,30,68,trial,10375855.0,10377738.0,1883.0,30,R,10375581,10375991,412,978.3,495.0,3868,NA
3,1,continuous,30,68,trial,10375855.0,10377738.0,1883.0,30,R,10376047,10376317,272,548.9,548.7,3681,left
3,1,continuous,30,68,trial,10375855.0,10377738.0,1883.0,30,R,10376377,10376591,216,1431.5,567.0,3310,right
3,1,continuous,30,68,trial,10375855.0,10377738.0,1883.0,30,R,10376617,10376855,240,1622.4,625.2,3094,right
3,1,continuous,30,68,trial,10375855.0,10377738.0,1883.0,30,R,10376929,10377273,346,935.9,969.7,3264,likertHorizontal
3,1,continuous,30,68,trial,10375855.0,10377738.0,1883.0,30,R,10377327,10377655,330,1402.0,544.1,3190,right
3,1,continuous,30,68,trial,10375855.0,10377738.0,1883.0,30,R,10377671,10377955,286,1413.0,519.7,3290,right
3,1,continuous,31,72,fixationCross,10378921.0,10381571.0,2650.0,31,R,10378273,10378593,322,1024.4,418.9,3653,NA
3,1,continuous,31,72,trial,10378921.0,10381571.0,2650.0,31,R,10378615,10379051,438,929.8,478.8,3748,NA
3,1,continuous,31,72,trial,10378921.0,10381571.0,2650.0,31,R,10379107,10379251,146,486.0,504.4,3477,left
3,1,continuous,31,72,trial,10378921.0,10381571.0,2650.0,31,R,10379273,10379427,156,563.0,524.2,3288,left
3,1,continuous,31,72,trial,10378921.0,10381571.0,2650.0,31,R,10379487,10379843,358,1453.4,565.4,3037,right
3,1,continuous,31,72,trial,10378921.0,10381571.0,2650.0,31,R,10379859,10380063,206,1438.0,612.2,2947,right
3,1,continuous,31,72,trial,10378921.0,10381571.0,2650.0,31,R,10380139,10380323,186,436.2,524.8,2944,left
3,1,continuous,31,72,trial,10378921.0,10381571.0,2650.0,31,R,10380333,10380505,174,421.4,511.0,2929,left
3,1,continuous,31,72,trial,10378921.0,10381571.0,2650.0,31,R,10380529,10380779,252,564.3,520.8,2929,left
3,1,continuous,31,72,trial,10378921.0,10381571.0,2650.0,31,R,10380833,10381187,356,1061.3,917.5,3153,likertHorizontal
3,1,continuous,31,72,trial,10378921.0,10381571.0,2650.0,31,R,10381219,10381495,278,1291.4,776.3,3275,NA
3,1,continuous,31,72,trial,10378921.0,10381571.0,2650.0,31,R,10381529,10381781,254,1209.3,969.5,3395,NA
3,1,continuous,32,23,fixationCross,10382538.0,10385722.0,3184.0,32,R,10382053,10382213,162,1091.1,666.0,3626,NA
3,1,continuous,32,23,fixationCross,10382538.0,10385722.0,3184.0,32,R,10382249,10382465,218,1043.0,512.4,3809,NA
3,1,continuous,32,23,trial,10382538.0,10385722.0,3184.0,32,R,10382485,10382705,222,939.0,486.3,3919,NA
3,1,continuous,32,23,trial,10382538.0,10385722.0,3184.0,32,R,10382763,10382953,192,506.5,542.8,3835,left
3,1,continuous,32,23,trial,10382538.0,10385722.0,3184.0,32,R,10382973,10383391,420,452.5,569.8,3452,left
3,1,continuous,32,23,trial,10382538.0,10385722.0,3184.0,32,R,10383403,10384021,620,479.2,566.2,3126,left
3,1,continuous,32,23,trial,10382538.0,10385722.0,3184.0,32,R,10384085,10384423,340,1422.9,536.7,3059,right
3,1,continuous,32,23,trial,10382538.0,10385722.0,3184.0,32,R,10384439,10384813,376,1456.4,585.3,3080,right
3,1,continuous,32,23,trial,10382538.0,10385722.0,3184.0,32,R,10384877,10385057,182,559.5,546.1,3058,left
3,1,continuous,32,23,trial,10382538.0,10385722.0,3184.0,32,R,10385083,10385449,368,450.8,578.0,3089,left
3,1,continuous,32,23,trial,10382538.0,10385722.0,3184.0,32,R,10385461,10385925,466,486.8,580.6,3101,left
3,1,continuous,33,58,trial,10387055.0,10390338.0,3283.0,33,R,10386447,10387165,720,945.7,438.6,3628,NA
3,1,continuous,33,58,trial,10387055.0,10390338.0,3283.0,33,R,10387209,10387425,218,573.8,478.6,3360,left
3,1,continuous,33,58,trial,10387055.0,10390338.0,3283.0,33,R,10387453,10387841,390,462.4,556.4,3241,left
3,1,continuous,33,58,trial,10387055.0,10390338.0,3283.0,33,R,10387917,10388115,200,1413.9,566.8,3093,right
3,1,continuous,33,58,trial,10387055.0,10390338.0,3283.0,33,R,10388139,10388285,148,1470.6,498.0,3034,right
3,1,continuous,33,58,trial,10387055.0,10390338.0,3283.0,33,R,10388303,10388669,368,1450.3,450.6,3069,right
3,1,continuous,33,58,trial,10387055.0,10390338.0,3283.0,33,R,10388681,10389115,436,1408.6,445.2,3158,right
3,1,continuous,33,58,trial,10387055.0,10390338.0,3283.0,33,R,10389129,10389537,410,1445.4,447.5,3322,right
3,1,continuous,33,58,trial,10387055.0,10390338.0,3283.0,33,R,10389553,10389867,316,1505.7,460.2,3290,right
3,1,continuous,33,58,trial,10387055.0,10390338.0,3283.0,33,R,10389921,10390089,170,1181.6,915.8,3431,likertHorizontal
3,1,continuous,33,58,trial,10387055.0,10390338.0,3283.0,33,R,10390115,10390253,140,1048.5,963.1,3452,likertHorizontal
3,1,continuous,33,58,trial,10387055.0,10390338.0,3283.0,33,R,10390307,10390637,332,477.1,577.1,3461,left
3,1,continuous,34,8,fixationCross,10391688.0,10393889.0,2201.0,34,R,10390785,10390811,28,635.8,566.8,3389,left
3,1,continuous,34,8,fixationCross,10391688.0,10393889.0,2201.0,34,R,10391149,10391373,226,739.2,383.6,3513,NA
3,1,continuous,34,8,fixationCross,10391688.0,10393889.0,2201.0,34,R,10391399,10391681,284,890.2,468.5,3808,NA
3,1,continuous,34,8,trial,10391688.0,10393889.0,2201.0,34,R,10391705,10391827,124,767.8,471.2,3800,NA
3,1,continuous,34,8,trial,10391688.0,10393889.0,2201.0,34,R,10391877,10392259,384,500.8,502.3,3508,left
3,1,continuous,34,8,trial,10391688.0,10393889.0,2201.0,34,R,10392319,10392649,332,1331.1,473.9,3083,right
3,1,continuous,34,8,trial,10391688.0,10393889.0,2201.0,34,R,10392669,10393087,420,1425.8,465.1,2989,right
3,1,continuous,34,8,trial,10391688.0,10393889.0,2201.0,34,R,10393161,10393419,260,445.4,448.2,3000,left
3,1,continuous,34,8,trial,10391688.0,10393889.0,2201.0,34,R,10393439,10394119,682,497.7,464.8,2973,left
3,1,continuous,35,100,fixationCross,10394905.0,10396872.0,1967.0,35,R,10394653,10394837,186,900.4,470.2,3446,NA
3,1,continuous,35,100,trial,10394905.0,10396872.0,1967.0,35,R,10394859,10395071,214,950.9,481.1,3676,NA
3,1,continuous,35,100,trial,10394905.0,10396872.0,1967.0,35,R,10395129,10395769,642,478.7,533.1,3250,left
3,1,continuous,35,100,trial,10394905.0,10396872.0,1967.0,35,R,10395835,10396699,866,1440.8,568.4,2911,right
3,1,continuous,35,100,trial,10394905.0,10396872.0,1967.0,35,R,10396727,10397073,348,1579.9,667.2,2878,right
3,1,continuous,36,100,fixationCross,10397955.0,10399755.0,1800.0,36,R,10397371,10397669,300,1072.0,405.1,3514,NA
3,1,continuous,36,100,trial,10397955.0,10399755.0,1800.0,36,R,10397691,10397957,268,968.3,471.8,3806,NA
3,1,continuous,36,100,trial,10397955.0,10399755.0,1800.0,36,R,10397977,10398115,140,891.4,498.2,3754,NA
3,1,continuous,36,100,trial,10397955.0,10399755.0,1800.0,36,R,10398165,10398381,218,550.6,509.6,3567,left
3,1,continuous,36,100,trial,10397955.0,10399755.0,1800.0,36,R,10398441,10398689,250,1412.9,527.1,3284,right
3,1,continuous,36,100,trial,10397955.0,10399755.0,1800.0,36,R,10398713,10399005,294,1426.5,595.9,3227,right
3,1,continuous,36,100,trial,10397955.0,10399755.0,1800.0,36,R,10399071,10399389,320,541.9,503.3,3161,left
3,1,continuous,36,100,trial,10397955.0,10399755.0,1800.0,36,R,10399407,10399579,174,607.8,494.3,3111,left
3,1,continuous,36,100,trial,10397955.0,10399755.0,1800.0,36,R,10399605,10400027,424,503.9,507.9,3201,left
3,1,continuous,36,100,postResponse,10397955.0,10399755.0,1800.0,36,R,10400047,10400105,60,591.5,519.7,3275,left
3,1,continuous,37,13,fixationCross,10400688.0,10403005.0,2317.0,37,R,10400205,10400357,154,775.3,519.3,3284,NA
3,1,continuous,37,13,fixationCross,10400688.0,10403005.0,2317.0,37,R,10400377,10400631,256,905.2,508.8,3305,NA
3,1,continuous,37,13,trial,10400688.0,10403005.0,2317.0,37,R,10400649,10400849,202,967.6,532.1,3389,NA
3,1,continuous,37,13,trial,10400688.0,10403005.0,2317.0,37,R,10400907,10401165,260,474.6,536.1,3407,left
3,1,continuous,37,13,trial,10400688.0,10403005.0,2317.0,37,R,10401229,10401499,272,1431.8,549.2,3095,right
3,1,continuous,37,13,trial,10400688.0,10403005.0,2317.0,37,R,10401513,10401699,188,1469.1,538.0,3020,right
3,1,continuous,37,13,trial,10400688.0,10403005.0,2317.0,37,R,10401709,10401835,128,1457.6,517.3,3083,right
3,1,continuous,37,13,trial,10400688.0,10403005.0,2317.0,37,R,10401911,10402329,420,484.6,515.8,3222,left
3,1,continuous,37,13,trial,10400688.0,10403005.0,2317.0,37,R,10402345,10402717,374,526.6,555.3,3216,left
3,1,continuous,37,13,trial,10400688.0,10403005.0,2317.0,37,R,10402739,10403209,472,428.6,555.2,3154,left
3,1,continuous,38,1,fixationCross,10404238.0,10405205.0,967.0,38,R,10403549,10403939,392,929.0,416.9,3380,NA
3,1,continuous,38,1,trial,10404238.0,10405205.0,967.0,38,R,10403959,10404371,414,977.3,460.8,3511,NA
3,1,continuous,38,1,trial,10404238.0,10405205.0,967.0,38,R,10404429,10404591,164,464.0,502.9,3395,left
3,1,continuous,38,1,trial,10404238.0,10405205.0,967.0,38,R,10404617,10404777,162,435.9,427.3,3239,left
3,1,continuous,38,1,trial,10404238.0,10405205.0,967.0,38,R,10404845,10405325,482,1508.7,629.0,3028,right
3,1,continuous,39,100,fixationCross,10406422.0,10408372.0,1950.0,39,R,10405653,10406101,450,1071.5,392.4,3482,NA
3,1,continuous,39,100,fixationCross,10406422.0,10408372.0,1950.0,39,R,10406125,10406405,282,982.9,482.5,3794,NA
3,1,continuous,39,100,trial,10406422.0,10408372.0,1950.0,39,R,10406421,10406571,152,922.6,488.4,3761,NA
3,1,continuous,39,100,trial,10406422.0,10408372.0,1950.0,39,R,10406631,10406799,170,521.2,511.4,3702,left
3,1,continuous,39,100,trial,10406422.0,10408372.0,1950.0,39,R,10406831,10406989,160,385.8,503.0,3514,left
3,1,continuous,39,100,trial,10406422.0,10408372.0,1950.0,39,R,10407017,10407219,204,544.1,572.8,3315,left
3,1,continuous,39,100,trial,10406422.0,10408372.0,1950.0,39,R,10407279,10407501,224,1455.0,573.2,3135,right
3,1,continuous,39,100,trial,10406422.0,10408372.0,1950.0,39,R,10407515,10407803,290,1463.3,549.7,3056,right
3,1,continuous,39,100,trial,10406422.0,10408372.0,1950.0,39,R,10407865,10408035,172,582.3,559.1,3211,left
3,1,continuous,39,100,trial,10406422.0,10408372.0,1950.0,39,R,10408051,10408397,348,539.3,572.9,3436,left
3,1,continuous,39,100,trial,10406422.0,10408372.0,1950.0,39,R,10408427,10408677,252,407.3,505.3,3642,left
3,1,continuous,40,100,fixationCross,10409522.0,10412105.0,2583.0,40,R,10408809,10408871,64,640.6,508.9,3538,left
3,1,continuous,40,100,fixationCross,10409522.0,10412105.0,2583.0,40,R,10408931,10409209,280,1229.8,479.7,3630,right
3,1,continuous,40,100,fixationCross,10409522.0,10412105.0,2583.0,40,R,10409247,10409415,170,1001.0,485.0,3852,NA
3,1,continuous,40,100,trial,10409522.0,10412105.0,2583.0,40,R,10409441,10409681,242,855.2,503.6,3925,NA
3,1,continuous,40,100,trial,10409522.0,10412105.0,2583.0,40,R,10409737,10410181,446,483.0,547.3,3626,left
3,1,continuous,40,100,trial,10409522.0,10412105.0,2583.0,40,R,10410201,10410501,302,409.2,612.6,3227,left
3,1,continuous,40,100,trial,10409522.0,10412105.0,2583.0,40,R,10410521,10410805,286,457.9,603.5,3141,left
3,1,continuous,40,100,trial,10409522.0,10412105.0,2583.0,40,R,10410871,10411237,368,1408.0,558.8,3023,right
3,1,continuous,40,100,trial,10409522.0,10412105.0,2583.0,40,R,10411253,10411505,254,1441.0,595.9,3023,right
3,1,continuous,40,100,postResponse,10409522.0,10412105.0,2583.0,40,R,10411519,10412439,922,1388.5,616.1,3012,right
3,1,continuous,41,100,fixationCross,10413338.0,10415006.0,1668.0,41,R,10412539,10412599,62,1386.2,602.5,3197,right
3,1,continuous,41,100,fixationCross,10413338.0,10415006.0,1668.0,41,R,10412659,10413045,388,1062.6,454.6,3366,NA
3,1,continuous,41,100,trial,10413338.0,10415006.0,1668.0,41,R,10413061,10413493,434,969.5,463.1,3416,NA
3,1,continuous,41,100,trial,10413338.0,10415006.0,1668.0,41,R,10413539,10413741,204,549.8,519.7,3331,left
3,1,continuous,41,100,trial,10413338.0,10415006.0,1668.0,41,R,10413761,10413821,62,502.8,557.9,3204,left
3,1,continuous,41,100,trial,10413338.0,10415006.0,1668.0,41,R,10413883,10414097,216,1469.8,592.2,3036,right
3,1,continuous,41,100,trial,10413338.0,10415006.0,1668.0,41,R,10414111,10414529,420,1525.3,597.2,2905,right
3,1,continuous,41,100,trial,10413338.0,10415006.0,1668.0,41,R,10414539,10414689,152,1497.3,584.5,2873,right
3,1,continuous,41,100,postResponse,10413338.0,10415006.0,1668.0,41,R,10414759,10415339,582,462.0,584.4,3020,left
3,1,continuous,42,1,fixationCross,10416222.0,10417456.0,1234.0,42,R,10415451,10415633,184,629.8,559.8,2948,left
3,1,continuous,42,1,fixationCross,10416222.0,10417456.0,1234.0,42,R,10415659,10415929,272,831.7,518.0,3010,NA
3,1,continuous,42,1,trial,10416222.0,10417456.0,1234.0,42,R,10415949,10416231,284,911.3,493.2,3084,NA
3,1,continuous,42,1,trial,10416222.0,10417456.0,1234.0,42,R,10416251,10416387,138,815.1,475.6,3119,NA
3,1,continuous,42,1,trial,10416222.0,10417456.0,1234.0,42,R,10416439,10416709,272,455.7,503.9,3192,left
3,1,continuous,42,1,trial,10416222.0,10417456.0,1234.0,42,R,10416735,10416953,220,636.1,572.9,3060,left
3,1,continuous,42,1,trial,10416222.0,10417456.0,1234.0,42,R,10417011,10417513,504,1366.3,617.6,2959,right
3,1,continuous,42,1,postResponse,10416222.0,10417456.0,1234.0,42,R,10417531,10417805,276,1438.6,614.0,3008,right
3,1,continuous,43,1,fixationCross,10418639.0,10420489.0,1850.0,43,R,10417905,10418193,290,1432.7,610.1,3241,right
3,1,continuous,43,1,fixationCross,10418639.0,10420489.0,1850.0,43,R,10418237,10418353,118,1125.6,499.0,3432,NA
3,1,continuous,43,1,trial,10418639.0,10420489.0,1850.0,43,R,10418377,10418779,404,967.9,513.9,3521,NA
3,1,continuous,43,1,trial,10418639.0,10420489.0,1850.0,43,R,10418829,10419245,418,434.3,542.1,3402,left
3,1,continuous,43,1,trial,10418639.0,10420489.0,1850.0,43,R,10419313,10419879,568,1484.5,575.6,2943,right
3,1,continuous,43,1,trial,10418639.0,10420489.0,1850.0,43,R,10420009,10420203,196,461.6,581.2,3092,left
3,1,continuous,43,1,trial,10418639.0,10420489.0,1850.0,43,R,10420221,10420409,190,416.9,583.4,3223,left
3,1,continuous,43,1,postResponse,10418639.0,10420489.0,1850.0,43,R,10420479,10420839,362,1512.5,628.5,3280,right
3,1,continuous,44,100,fixationCross,10421688.0,10423589.0,1901.0,44,R,10420939,10421089,152,1321.2,546.9,3453,right
3,1,continuous,44,100,fixationCross,10421688.0,10423589.0,1901.0,44,R,10421131,10421367,238,1118.5,460.2,3574,NA
3,1,continuous,44,100,fixationCross,10421688.0,10423589.0,1901.0,44,R,10421387,10421641,256,999.3,471.0,3643,NA
3,1,continuous,44,100,trial,10421688.0,10423589.0,1901.0,44,R,10421661,10421843,184,925.2,484.9,3686,NA
3,1,continuous,44,100,trial,10421688.0,10423589.0,1901.0,44,R,10421899,10422051,154,514.2,567.5,3639,left
3,1,continuous,44,100,trial,10421688.0,10423589.0,1901.0,44,R,10422077,10422295,220,453.2,631.0,3412,left
3,1,continuous,44,100,trial,10421688.0,10423589.0,1901.0,44,R,10422359,10422589,232,1442.3,563.2,3141,right
3,1,continuous,44,100,postResponse,10421688.0,10423589.0,1901.0,44,R,10422609,10423923,1316,1417.9,515.1,3144,right
3,1,continuous,45,2,fixationCross,10424755.0,10426105.0,1350.0,45,R,10424027,10424193,168,1256.5,495.7,3509,right
3,1,continuous,45,2,fixationCross,10424755.0,10426105.0,1350.0,45,R,10424217,10424469,254,1062.4,470.3,3638,NA
3,1,continuous,45,2,trial,10424755.0,10426105.0,1350.0,45,R,10424489,10424893,406,960.1,492.5,3644,NA
3,1,continuous,45,2,trial,10424755.0,10426105.0,1350.0,45,R,10424953,10425199,248,399.9,559.0,3411,left
3,1,continuous,45,2,trial,10424755.0,10426105.0,1350.0,45,R,10425211,10425259,50,377.6,580.6,3239,left
3,1,continuous,45,2,trial,10424755.0,10426105.0,1350.0,45,R,10425325,10425691,368,1408.6,651.5,3013,right
3,1,continuous,45,2,postResponse,10424755.0,10426105.0,1350.0,45,R,10425711,10426453,744,1475.3,677.5,2860,right
3,1,continuous,46,1,fixationCross,10427139.0,10429322.0,2183.0,46,R,10426553,10426663,112,1286.4,593.4,3058,right
3,1,continuous,46,1,fixationCross,10427139.0,10429322.0,2183.0,46,R,10426687,10427133,448,1043.2,474.5,3191,NA
3,1,continuous,46,1,trial,10427139.0,10429322.0,2183.0,46,R,10427169,10427295,128,895.8,475.7,3224,NA
3,1,continuous,46,1,trial,10427139.0,10429322.0,2183.0,46,R,10427337,10427599,264,501.5,545.2,3158,left
3,1,continuous,46,1,trial,10427139.0,10429322.0,2183.0,46,R,10427621,10427807,188,466.3,479.3,3056,left
3,1,continuous,46,1,trial,10427139.0,10429322.0,2183.0,46,R,10427817,10428009,194,498.9,475.1,2954,left
3,1,continuous,46,1,trial,10427139.0,10429322.0,2183.0,46,R,10428075,10428431,358,1418.3,611.3,2840,right
3,1,continuous,46,1,trial,10427139.0,10429322.0,2183.0,46,R,10428495,10428807,314,517.6,499.8,2915,left
3,1,continuous,46,1,trial,10427139.0,10429322.0,2183.0,46,R,10428825,10429003,180,481.6,466.3,2958,left
3,1,continuous,46,1,trial,10427139.0,10429322.0,2183.0,46,R,10429063,10429539,478,1420.0,611.7,2986,right
3,1,continuous,47,100,fixationCross,10430606.0,10431939.0,1333.0,47,R,10429797,10430035,240,1080.5,378.3,3050,NA
3,1,continuous,47,100,fixationCross,10430606.0,10431939.0,1333.0,47,R,10430057,10430307,252,962.9,408.7,3331,NA
3,1,continuous,47,100,trial,10430606.0,10431939.0,1333.0,47,R,10430337,10430747,412,915.1,495.1,3417,NA
3,1,continuous,47,100,trial,10430606.0,10431939.0,1333.0,47,R,10430803,10431029,228,538.5,552.1,3333,left
3,1,continuous,47,100,trial,10430606.0,10431939.0,1333.0,47,R,10431047,10431177,132,505.9,580.6,3128,left
3,1,continuous,47,100,trial,10430606.0,10431939.0,1333.0,47,R,10431239,10431537,300,1409.9,552.7,2929,right
3,1,continuous,47,100,trial,10430606.0,10431939.0,1333.0,47,R,10431553,10432155,604,1462.5,569.9,2725,right
3,1,continuous,48,1,fixationCross,10433055.0,10434039.0,984.0,48,R,10432473,10432745,274,1195.9,438.8,3142,right
3,1,continuous,48,1,fixationCross,10433055.0,10434039.0,984.0,48,R,10432773,10432965,194,992.9,470.3,3473,NA
3,1,continuous,48,1,trial,10433055.0,10434039.0,984.0,48,R,10432983,10433203,222,894.7,495.2,3463,NA
3,1,continuous,48,1,trial,10433055.0,10434039.0,984.0,48,R,10433261,10433551,292,440.3,554.4,3286,left
3,1,continuous,48,1,trial,10433055.0,10434039.0,984.0,48,R,10433619,10433943,326,1443.9,578.4,2973,right
3,1,continuous,48,1,trial,10433055.0,10434039.0,984.0,48,R,10433965,10434337,374,1475.1,535.6,2906,right
3,1,continuous,49,100,fixationCross,10435172.0,10436723.0,1551.0,49,R,10434599,10434857,260,1076.9,417.0,3332,NA
3,1,continuous,49,100,trial,10435172.0,10436723.0,1551.0,49,R,10434881,10435181,302,947.8,461.7,3675,NA
3,1,continuous,49,100,trial,10435172.0,10436723.0,1551.0,49,R,10435201,10435321,122,866.6,483.2,3797,NA
3,1,continuous,49,100,trial,10435172.0,10436723.0,1551.0,49,R,10435377,10435597,222,467.5,513.3,3644,left
3,1,continuous,49,100,trial,10435172.0,10436723.0,1551.0,49,R,10435661,10435935,276,1391.5,564.4,3220,right
3,1,continuous,49,100,trial,10435172.0,10436723.0,1551.0,49,R,10435953,10436165,214,1456.1,580.3,3076,right
3,1,continuous,49,100,trial,10435172.0,10436723.0,1551.0,49,R,10436183,10436351,170,1520.4,610.3,3000,right
3,1,continuous,49,100,trial,10435172.0,10436723.0,1551.0,49,R,10436373,10437001,630,1580.7,682.6,3003,right
3,1,continuous,49,100,postResponse,10435172.0,10436723.0,1551.0,49,R,10437025,10437057,34,1422.8,628.7,3157,right
3,1,continuous,50,100,fixationCross,10437988.0,10439123.0,1135.0,50,R,10437469,10437729,262,951.4,403.2,3501,NA
3,1,continuous,50,100,fixationCross,10437988.0,10439123.0,1135.0,50,R,10437757,10437809,54,915.8,503.5,3680,NA
3,1,continuous,50,100,trial,10437988.0,10439123.0,1135.0,50,R,10437829,10438123,296,957.9,541.7,3683,NA
3,1,continuous,50,100,trial,10437988.0,10439123.0,1135.0,50,R,10438177,10438429,254,541.2,544.9,3440,left
3,1,continuous,50,100,trial,10437988.0,10439123.0,1135.0,50,R,10438487,10438763,278,1394.1,532.5,3108,right
3,1,continuous,50,100,postResponse,10437988.0,10439123.0,1135.0,50,R,10438791,10439445,656,1448.1,672.4,3142,right
3,2,binary,1,1,fixationCross,10503790.0,10506440.0,2650.0,51,R,10503082,10503474,394,1242.1,677.9,3646,right
3,2,binary,1,1,fixationCross,10503790.0,10506440.0,2650.0,51,R,10503516,10503732,218,958.3,575.7,3705,NA
3,2,binary,1,1,trial,10503790.0,10506440.0,2650.0,51,R,10503748,10504012,266,940.8,551.1,3671,NA
3,2,binary,1,1,trial,10503790.0,10506440.0,2650.0,51,R,10504074,10504426,354,438.4,593.4,3618,left
3,2,binary,1,1,trial,10503790.0,10506440.0,2650.0,51,R,10505182,10505330,150,1431.1,957.8,3661,NA
3,2,binary,1,1,trial,10503790.0,10506440.0,2650.0,51,R,10505364,10505608,246,1487.5,614.6,3707,right
3,2,binary,1,1,trial,10503790.0,10506440.0,2650.0,51,R,10505636,10505810,176,1411.4,513.5,3775,right
3,2,binary,1,1,trial,10503790.0,10506440.0,2650.0,51,R,10505890,10506192,304,399.1,587.9,3768,left
3,2,binary,1,1,trial,10503790.0,10506440.0,2650.0,51,R,10506254,10506350,98,1374.8,562.4,3614,right
3,2,binary,1,1,trial,10503790.0,10506440.0,2650.0,51,R,10506456,10506486,32,476.9,965.5,3841,NA
3,2,binary,1,1,postResponse,10503790.0,10506440.0,2650.0,51,R,10506718,10506776,60,834.6,814.2,3834,likertHorizontal
3,2,binary,2,2,fixationCross,10507523.0,10508823.0,1300.0,52,R,10506880,10507228,350,976.0,645.0,3966,NA
3,2,binary,2,2,fixationCross,10507523.0,10508823.0,1300.0,52,R,10507254,10507514,262,963.2,575.7,4171,NA
3,2,binary,2,2,trial,10507523.0,10508823.0,1300.0,52,R,10507532,10507682,152,924.9,548.5,4245,NA
3,2,binary,2,2,trial,10507523.0,10508823.0,1300.0,52,R,10507744,10507990,248,389.1,663.3,4147,left
3,2,binary,2,2,trial,10507523.0,10508823.0,1300.0,52,R,10508010,10508282,274,432.6,706.4,3811,left
3,2,binary,2,2,trial,10507523.0,10508823.0,1300.0,52,R,10508674,10508798,126,1475.9,951.8,3356,NA
3,2,binary,2,2,trial,10507523.0,10508823.0,1300.0,52,R,10508834,10509094,262,1435.8,563.6,3361,right
3,2,binary,3,2,fixationCross,10509757.0,10511807.0,2050.0,53,R,10509282,10509570,290,1028.9,465.7,3637,NA
3,2,binary,3,2,trial,10509757.0,10511807.0,2050.0,53,R,10509604,10509918,316,890.2,552.5,3877,NA
3,2,binary,3,2,trial,10509757.0,10511807.0,2050.0,53,R,10509974,10510374,402,462.2,649.9,3783,left
3,2,binary,3,2,trial,10509757.0,10511807.0,2050.0,53,R,10510394,10510614,222,471.2,579.1,3530,left
3,2,binary,3,2,trial,10509757.0,10511807.0,2050.0,53,R,10510678,10510970,294,1368.2,547.1,3450,right
3,2,binary,3,2,trial,10509757.0,10511807.0,2050.0,53,R,10510992,10511110,120,1423.7,610.9,3614,right
3,2,binary,3,2,trial,10509757.0,10511807.0,2050.0,53,R,10511156,10511310,156,1442.8,423.8,3660,right
3,2,binary,3,2,trial,10509757.0,10511807.0,2050.0,53,R,10511328,10511758,432,1425.0,395.2,3642,right
3,2,binary,3,2,trial,10509757.0,10511807.0,2050.0,53,R,10511838,10512072,236,447.8,548.2,3755,left
3,2,binary,3,2,postResponse,10509757.0,10511807.0,2050.0,53,R,10512096,10512140,46,594.3,531.5,3694,left
3,2,binary,4,2,fixationCross,10512989.0,10515140.0,2151.0,54,R,10512240,10512384,146,598.5,532.0,3700,left
3,2,binary,4,2,fixationCross,10512989.0,10515140.0,2151.0,54,R,10512406,10512680,276,715.4,491.9,3693,left
3,2,binary,4,2,trial,10512989.0,10515140.0,2151.0,54,R,10512706,10513134,430,888.5,487.7,3866,NA
3,2,binary,4,2,trial,10512989.0,10515140.0,2151.0,54,R,10513186,10513424,240,520.8,562.8,3852,left
3,2,binary,4,2,trial,10512989.0,10515140.0,2151.0,54,R,10513486,10513704,220,1427.8,499.3,3339,right
3,2,binary,4,2,trial,10512989.0,10515140.0,2151.0,54,R,10513732,10513942,212,1458.0,400.3,3082,right
3,2,binary,4,2,trial,10512989.0,10515140.0,2151.0,54,R,10514008,10514350,344,506.4,542.3,3127,left
3,2,binary,4,2,trial,10512989.0,10515140.0,2151.0,54,R,10514412,10514648,238,1445.2,508.5,3078,right
3,2,binary,4,2,trial,10512989.0,10515140.0,2151.0,54,R,10514674,10515056,384,1546.6,572.2,3000,right
3,2,binary,4,2,trial,10512989.0,10515140.0,2151.0,54,R,10515084,10515410,328,1450.9,402.9,3015,right
3,2,binary,5,1,fixationCross,10516439.0,10518257.0,1818.0,55,R,10515704,10515848,146,777.8,430.5,3385,NA
3,2,binary,5,1,fixationCross,10516439.0,10518257.0,1818.0,55,R,10515870,10516132,264,857.9,440.4,3587,NA
3,2,binary,5,1,fixationCross,10516439.0,10518257.0,1818.0,55,R,10516154,10516356,204,977.8,491.4,3635,NA
3,2,binary,5,1,trial,10516439.0,10518257.0,1818.0,55,R,10516396,10516586,192,800.5,514.3,3529,NA
3,2,binary,5,1,trial,10516439.0,10518257.0,1818.0,55,R,10516640,10516752,114,436.5,535.8,3442,left
3,2,binary,5,1,trial,10516439.0,10518257.0,1818.0,55,R,10516778,10516924,148,347.1,437.9,3367,left
3,2,binary,5,1,trial,10516439.0,10518257.0,1818.0,55,R,10516988,10517392,406,1392.7,523.8,3088,right
3,2,binary,5,1,trial,10516439.0,10518257.0,1818.0,55,R,10517466,10517674,210,449.7,689.5,3189,left
3,2,binary,5,1,trial,10516439.0,10518257.0,1818.0,55,R,10517756,10517912,158,433.2,952.1,3252,NA
3,2,binary,5,1,trial,10516439.0,10518257.0,1818.0,55,R,10517954,10518130,178,356.1,483.8,3392,left
3,2,binary,5,1,trial,10516439.0,10518257.0,1818.0,55,R,10518150,10518468,320,323.9,453.1,3477,left
3,2,binary,5,1,postResponse,10516439.0,10518257.0,1818.0,55,R,10518510,10518592,84,684.7,480.6,3420,left
3,2,binary,6,2,fixationCross,10519406.0,10520323.0,917.0,56,R,10518668,10518722,56,693.4,486.6,3457,left
3,2,binary,6,2,fixationCross,10519406.0,10520323.0,917.0,56,R,10518746,10519112,368,845.3,513.6,3593,NA
3,2,binary,6,2,trial,10519406.0,10520323.0,917.0,56,R,10519132,10519416,286,929.1,539.6,3757,NA
3,2,binary,6,2,trial,10519406.0,10520323.0,917.0,56,R,10519436,10519588,154,822.4,533.0,3813,NA
3,2,binary,6,2,trial,10519406.0,10520323.0,917.0,56,R,10519642,10519772,132,423.1,584.4,3730,left
3,2,binary,6,2,trial,10519406.0,10520323.0,917.0,56,R,10519846,10520294,450,1439.2,533.7,3332,right
3,2,binary,6,2,trial,10519406.0,10520323.0,917.0,56,R,10520316,10520606,292,1430.3,461.1,3159,right
3,2,binary,7,2,fixationCross,10521990.0,10523473.0,1483.0,57,R,10520772,10521684,914,863.7,434.1,3568,NA
3,2,binary,7,2,trial,10521990.0,10523473.0,1483.0,57,R,10521706,10522130,426,966.6,488.1,3724,NA
3,2,binary,7,2,trial,10521990.0,10523473.0,1483.0,57,R,10522192,10522482,292,490.7,564.2,3677,left
3,2,binary,7,2,trial,10521990.0,10523473.0,1483.0,57,R,10522550,10522770,222,1481.8,493.6,3124,right
3,2,binary,7,2,trial,10521990.0,10523473.0,1483.0,57,R,10522794,10523346,554,1507.1,425.0,2860,right
3,2,binary,7,2,trial,10521990.0,10523473.0,1483.0,57,R,10523396,10523776,382,1477.9,816.4,3088,NA
3,2,binary,8,2,fixationCross,10524640.0,10525706.0,1066.0,58,R,10524026,10524334,310,1175.2,388.6,3436,NA
3,2,binary,8,2,trial,10524640.0,10525706.0,1066.0,58,R,10524374,10524710,338,944.0,500.3,3612,NA
3,2,binary,8,2,trial,10524640.0,10525706.0,1066.0,58,R,10524744,10524856,114,803.1,526.1,3558,NA
3,2,binary,8,2,trial,10524640.0,10525706.0,1066.0,58,R,10524910,10525066,158,456.4,565.6,3446,left
3,2,binary,8,2,trial,10524640.0,10525706.0,1066.0,58,R,10525132,10525376,246,1441.7,585.9,3130,right
3,2,binary,8,2,trial,10524640.0,10525706.0,1066.0,58,R,10525396,10526006,612,1462.1,646.2,2967,right
3,2,binary,9,1,fixationCross,10526640.0,10528007.0,1367.0,59,R,10526136,10526576,442,895.3,538.4,3140,NA
3,2,binary,9,1,trial,10526640.0,10528007.0,1367.0,59,R,10526592,10526786,196,939.7,533.2,3388,NA
3,2,binary,9,1,trial,10526640.0,10528007.0,1367.0,59,R,10526840,10527044,206,505.5,566.9,3383,left
3,2,binary,9,1,trial,10526640.0,10528007.0,1367.0,59,R,10527106,10527248,144,1420.7,505.2,3058,right
3,2,binary,9,1,postResponse,10526640.0,10528007.0,1367.0,59,R,10527270,10528352,1084,1370.1,475.9,2899,right
3,2,binary,10,2,fixationCross,10529174.0,10530807.0,1633.0,60,R,10528592,10528878,288,1032.4,352.6,3224,NA
3,2,binary,10,2,trial,10529174.0,10530807.0,1633.0,60,R,10528910,10529314,406,935.8,465.5,3607,NA
3,2,binary,10,2,trial,10529174.0,10530807.0,1633.0,60,R,10529374,10529520,148,472.5,542.0,3590,left
3,2,binary,10,2,trial,10529174.0,10530807.0,1633.0,60,R,10529550,10529672,124,291.5,566.5,3440,left
3,2,binary,10,2,trial,10529174.0,10530807.0,1633.0,60,R,10529744,10529962,220,1508.3,496.3,3065,right
3,2,binary,10,2,trial,10529174.0,10530807.0,1633.0,60,R,10529982,10530678,698,1615.7,456.2,2833,right
3,2,binary,10,2,trial,10529174.0,10530807.0,1633.0,60,R,10530740,10531044,306,1461.7,957.5,2926,NA
3,2,binary,11,2,fixationCross,10531990.0,10533191.0,1201.0,61,R,10531282,10531678,398,1045.8,403.0,3253,NA
3,2,binary,11,2,fixationCross,10531990.0,10533191.0,1201.0,61,R,10531702,10531974,274,947.7,481.7,3476,NA
3,2,binary,11,2,trial,10531990.0,10533191.0,1201.0,61,R,10531994,10532144,152,844.5,498.0,3409,NA
3,2,binary,11,2,trial,10531990.0,10533191.0,1201.0,61,R,10532198,10532394,198,476.2,549.7,3305,left
3,2,binary,11,2,trial,10531990.0,10533191.0,1201.0,61,R,10532456,10532708,254,1403.9,528.1,3003,right
3,2,binary,11,2,trial,10531990.0,10533191.0,1201.0,61,R,10532726,10533174,450,1470.9,504.1,2762,right
3,2,binary,11,2,postResponse,10531990.0,10533191.0,1201.0,61,R,10533196,10533524,330,1366.3,522.1,2756,right
3,2,binary,12,1,fixationCross,10534323.0,10536640.0,2317.0,62,R,10533812,10534030,220,1102.6,459.8,3115,NA
3,2,binary,12,1,trial,10534323.0,10536640.0,2317.0,62,R,10534062,10534482,422,952.1,502.6,3322,NA
3,2,binary,12,1,trial,10534323.0,10536640.0,2317.0,62,R,10534536,10534748,214,553.9,576.2,3163,left
3,2,binary,12,1,trial,10534323.0,10536640.0,2317.0,62,R,10534802,10535074,274,1333.5,608.5,2970,right
3,2,binary,12,1,trial,10534323.0,10536640.0,2317.0,62,R,10535140,10535566,428,421.9,582.2,2909,left
3,2,binary,12,1,trial,10534323.0,10536640.0,2317.0,62,R,10535630,10535914,286,1410.4,532.1,2851,right
3,2,binary,12,1,trial,10534323.0,10536640.0,2317.0,62,R,10535930,10536106,178,1360.5,511.9,2934,right
3,2,binary,12,1,trial,10534323.0,10536640.0,2317.0,62,R,10536186,10536436,252,359.1,565.9,3009,left
3,2,binary,12,1,trial,10534323.0,10536640.0,2317.0,62,R,10536460,10536940,482,384.5,645.7,3069,left
3,2,binary,12,1,postResponse,10534323.0,10536640.0,2317.0,62,R,10536954,10536980,28,352.0,665.9,3142,left
3,2,binary,13,1,fixationCross,10537574.0,10538774.0,1200.0,63,R,10537102,10537328,228,920.4,534.4,3220,NA
3,2,binary,13,1,trial,10537574.0,10538774.0,1200.0,63,R,10537346,10537716,372,968.6,492.4,3279,NA
3,2,binary,13,1,trial,10537574.0,10538774.0,1200.0,63,R,10537760,10538006,248,605.6,555.9,3303,left
3,2,binary,13,1,trial,10537574.0,10538774.0,1200.0,63,R,10538024,10538156,134,564.0,519.4,3131,left
3,2,binary,13,1,postResponse,10537574.0,10538774.0,1200.0,63,R,10538212,10539110,900,1335.8,515.1,2929,right
3,2,binary,14,2,fixationCross,10539907.0,10541040.0,1133.0,64,R,10539210,10539236,28,1338.7,514.7,3147,right
3,2,binary,14,2,fixationCross,10539907.0,10541040.0,1133.0,64,R,10539254,10539596,344,1187.3,487.4,3331,right
3,2,binary,14,2,trial,10539907.0,10541040.0,1133.0,64,R,10539632,10540068,438,944.6,518.4,3506,NA
3,2,binary,14,2,trial,10539907.0,10541040.0,1133.0,64,R,10540118,10540372,256,510.1,565.4,3398,left
3,2,binary,14,2,trial,10539907.0,10541040.0,1133.0,64,R,10540438,10540822,386,1415.2,531.2,3074,right
3,2,binary,14,2,trial,10539907.0,10541040.0,1133.0,64,R,10540870,10540998,130,1454.7,799.1,3053,NA
3,2,binary,14,2,trial,10539907.0,10541040.0,1133.0,64,R,10541044,10541320,278,1455.1,990.1,3078,NA
3,2,binary,15,2,trial,10541957.0,10543023.0,1066.0,65,R,10541474,10542100,628,964.1,533.9,3448,NA
3,2,binary,15,2,trial,10541957.0,10543023.0,1066.0,65,R,10542148,10542350,204,567.4,566.9,3423,left
3,2,binary,15,2,trial,10541957.0,10543023.0,1066.0,65,R,10542410,10543310,902,1375.3,568.7,3030,right
3,2,binary,16,2,fixationCross,10544191.0,10545207.0,1016.0,66,R,10543602,10543874,274,1075.7,485.9,3048,NA
3,2,binary,16,2,trial,10544191.0,10545207.0,1016.0,66,R,10543896,10544330,436,936.4,523.8,3397,NA
3,2,binary,16,2,trial,10544191.0,10545207.0,1016.0,66,R,10544390,10544656,268,497.6,588.3,3389,left
3,2,binary,16,2,postResponse,10544191.0,10545207.0,1016.0,66,R,10544716,10545540,826,1358.3,589.7,3193,right
3,2,binary,17,2,fixationCross,10546174.0,10547857.0,1683.0,67,R,10545616,10545848,234,1119.6,491.3,3539,NA
3,2,binary,17,2,fixationCross,10546174.0,10547857.0,1683.0,67,R,10545868,10546116,250,1003.4,513.2,3743,NA
3,2,binary,17,2,trial,10546174.0,10547857.0,1683.0,67,R,10546132,10546330,200,941.1,533.2,3866,NA
3,2,binary,17,2,trial,10546174.0,10547857.0,1683.0,67,R,10546384,10546542,160,524.3,579.5,3754,left
3,2,binary,17,2,trial,10546174.0,10547857.0,1683.0,67,R,10546600,10546776,178,1348.1,548.0,3355,right
3,2,binary,17,2,trial,10546174.0,10547857.0,1683.0,67,R,10546802,10547182,382,1339.6,454.2,3077,right
3,2,binary,17,2,trial,10546174.0,10547857.0,1683.0,67,R,10547246,10547478,234,474.1,520.8,2957,left
3,2,binary,17,2,trial,10546174.0,10547857.0,1683.0,67,R,10547502,10548100,600,534.0,604.3,2955,left
3,2,binary,17,2,postResponse,10546174.0,10547857.0,1683.0,67,R,10548122,10548176,56,672.6,596.9,2988,left
3,2,binary,18,1,fixationCross,10548890.0,10549857.0,967.0,68,R,10548444,10548582,140,1157.0,424.0,3074,NA
3,2,binary,18,1,fixationCross,10548890.0,10549857.0,967.0,68,R,10548616,10548852,238,969.6,462.0,3302,NA
3,2,binary,18,1,trial,10548890.0,10549857.0,967.0,68,R,10548872,10549048,178,873.1,495.8,3375,NA
3,2,binary,18,1,trial,10548890.0,10549857.0,967.0,68,R,10549104,10549248,146,395.9,564.9,3367,left
3,2,binary,18,1,postResponse,10548890.0,10549857.0,967.0,68,R,10549314,10550204,892,1439.6,504.7,3124,right
3,2,binary,19,2,fixationCross,10550890.0,10552308.0,1418.0,69,R,10550458,10550740,284,1036.3,481.0,3446,NA
3,2,binary,19,2,trial,10550890.0,10552308.0,1418.0,69,R,10550762,10551046,286,945.2,515.7,3717,NA
3,2,binary,19,2,trial,10550890.0,10552308.0,1418.0,69,R,10551106,10551306,202,449.9,568.4,3620,left
3,2,binary,19,2,trial,10550890.0,10552308.0,1418.0,69,R,10551370,10551758,390,1444.7,591.4,3143,right
3,2,binary,19,2,trial,10550890.0,10552308.0,1418.0,69,R,10551812,10552166,356,1452.6,916.2,2982,NA
3,2,binary,19,2,postResponse,10550890.0,10552308.0,1418.0,69,R,10552206,10552640,436,1446.6,591.9,2888,right
3,2,binary,20,1,fixationCross,10553441.0,10554891.0,1450.0,70,R,10552772,10553142,372,1137.3,509.9,3252,NA
3,2,binary,20,1,trial,10553441.0,10554891.0,1450.0,70,R,10553176,10553612,438,949.0,543.8,3539,NA
3,2,binary,20,1,trial,10553441.0,10554891.0,1450.0,70,R,10553672,10553942,272,461.5,565.3,3525,left
3,2,binary,20,1,trial,10553441.0,10554891.0,1450.0,70,R,10554006,10554438,434,1421.0,519.6,3177,right
3,2,binary,20,1,trial,10553441.0,10554891.0,1450.0,70,R,10554550,10554582,34,568.1,939.9,3336,NA
3,2,binary,20,1,trial,10553441.0,10554891.0,1450.0,70,R,10554634,10554710,78,565.9,943.9,3326,NA
3,2,binary,21,2,fixationCross,10556057.0,10557557.0,1500.0,71,R,10555338,10555752,416,1090.6,474.7,3306,NA
3,2,binary,21,2,trial,10556057.0,10557557.0,1500.0,71,R,10555776,10556220,446,970.6,530.0,3477,NA
3,2,binary,21,2,trial,10556057.0,10557557.0,1500.0,71,R,10556268,10556532,266,540.5,553.4,3482,left
3,2,binary,21,2,trial,10556057.0,10557557.0,1500.0,71,R,10556570,10556622,54,353.1,593.1,3287,left
3,2,binary,21,2,trial,10556057.0,10557557.0,1500.0,71,R,10556692,10557406,716,1422.5,557.6,2985,right
3,2,binary,21,2,postResponse,10556057.0,10557557.0,1500.0,71,R,10557476,10557904,430,542.4,537.3,3117,left
3,2,binary,22,2,fixationCross,10558657.0,10560224.0,1567.0,72,R,10558004,10558340,338,558.2,540.7,3121,left
3,2,binary,22,2,trial,10558657.0,10560224.0,1567.0,72,R,10558384,10558866,484,979.6,540.9,3179,NA
3,2,binary,22,2,trial,10558657.0,10560224.0,1567.0,72,R,10558912,10559230,320,500.8,568.9,3198,left
3,2,binary,22,2,postResponse,10558657.0,10560224.0,1567.0,72,R,10559296,10560568,1274,1403.6,544.9,2960,right
3,2,binary,23,1,fixationCross,10561358.0,10562741.0,1383.0,73,R,10560644,10561022,380,1393.0,535.6,3445,right
3,2,binary,23,1,trial,10561358.0,10562741.0,1383.0,73,R,10561070,10561544,476,953.2,554.2,3575,NA
3,2,binary,23,1,trial,10561358.0,10562741.0,1383.0,73,R,10561594,10561876,284,493.6,588.6,3519,left
3,2,binary,23,1,trial,10561358.0,10562741.0,1383.0,73,R,10561938,10562194,258,1392.9,556.2,3139,right
3,2,binary,23,1,postResponse,10561358.0,10562741.0,1383.0,73,R,10562214,10563074,862,1480.3,576.9,2892,right
3,2,binary,24,1,fixationCross,10563957.0,10565357.0,1400.0,74,R,10563150,10563452,304,1468.8,575.3,3068,right
3,2,binary,24,1,fixationCross,10563957.0,10565357.0,1400.0,74,R,10563500,10563644,146,1078.9,520.5,3357,NA
3,2,binary,24,1,trial,10563957.0,10565357.0,1400.0,74,R,10563666,10564114,450,956.8,520.0,3486,NA
3,2,binary,24,1,trial,10563957.0,10565357.0,1400.0,74,R,10564164,10564758,596,481.7,578.2,3298,left
3,2,binary,24,1,trial,10563957.0,10565357.0,1400.0,74,R,10564780,10564972,194,596.7,579.6,2927,left
3,2,binary,24,1,postResponse,10563957.0,10565357.0,1400.0,74,R,10565032,10565702,672,1406.0,552.4,2718,right
3,2,binary,25,1,fixationCross,10566624.0,10567974.0,1350.0,75,R,10565802,10566300,500,1398.7,554.2,2881,right
3,2,binary,25,1,trial,10566624.0,10567974.0,1350.0,75,R,10566344,10566818,476,985.6,556.1,3254,NA
3,2,binary,25,1,trial,10566624.0,10567974.0,1350.0,75,R,10566860,10567112,254,553.4,572.1,3331,left
3,2,binary,25,1,trial,10566624.0,10567974.0,1350.0,75,R,10567170,10567692,524,1357.8,498.2,3129,right
3,2,binary,25,1,postResponse,10566624.0,10567974.0,1350.0,75,R,10567750,10568318,570,636.9,548.5,3081,left
3,2,binary,26,1,fixationCross,10598907.0,10600524.0,1617.0,76,R,10598196,10598416,222,957.4,222.8,4264,NA
3,2,binary,26,1,fixationCross,10598907.0,10600524.0,1617.0,76,R,10598456,10598594,140,1061.8,440.4,4277,NA
3,2,binary,26,1,trial,10598907.0,10600524.0,1617.0,76,R,10598624,10598928,306,935.2,540.5,4182,NA
3,2,binary,26,1,trial,10598907.0,10600524.0,1617.0,76,R,10598942,10599068,128,976.7,539.2,4164,NA
3,2,binary,26,1,trial,10598907.0,10600524.0,1617.0,76,R,10599098,10599230,134,1166.2,534.5,4091,NA
3,2,binary,26,1,trial,10598907.0,10600524.0,1617.0,76,R,10599290,10599392,104,527.5,597.6,3934,left
3,2,binary,26,1,trial,10598907.0,10600524.0,1617.0,76,R,10599444,10599592,150,456.8,950.4,3961,NA
3,2,binary,26,1,trial,10598907.0,10600524.0,1617.0,76,R,10599614,10599698,86,451.0,1025.5,3978,NA
3,2,binary,26,1,trial,10598907.0,10600524.0,1617.0,76,R,10599742,10600028,288,445.5,448.1,3900,left
3,2,binary,26,1,trial,10598907.0,10600524.0,1617.0,76,R,10600092,10600468,378,1451.0,553.7,3836,right
3,2,binary,26,1,trial,10598907.0,10600524.0,1617.0,76,R,10600512,10600738,228,1468.2,763.1,3909,NA
3,2,binary,26,1,postResponse,10598907.0,10600524.0,1617.0,76,R,10600776,10600858,84,1232.2,584.9,4110,right
3,2,binary,27,2,fixationCross,10601441.0,10602474.0,1033.0,77,R,10600938,10601126,190,1075.3,470.7,4213,NA
3,2,binary,27,2,fixationCross,10601441.0,10602474.0,1033.0,77,R,10601162,10601390,230,887.0,491.1,4341,NA
3,2,binary,27,2,trial,10601441.0,10602474.0,1033.0,77,R,10601408,10601612,206,932.8,526.0,4359,NA
3,2,binary,27,2,trial,10601441.0,10602474.0,1033.0,77,R,10601670,10601840,172,449.0,615.4,4291,left
3,2,binary,27,2,trial,10601441.0,10602474.0,1033.0,77,R,10601904,10602380,478,1411.6,607.3,3716,right
3,2,binary,27,2,trial,10601441.0,10602474.0,1033.0,77,R,10602396,10602766,372,1461.3,638.0,3451,right
3,2,binary,28,1,fixationCross,10603558.0,10604608.0,1050.0,78,R,10602998,10603254,258,1085.8,379.2,3468,NA
3,2,binary,28,1,fixationCross,10603558.0,10604608.0,1050.0,78,R,10603280,10603472,194,962.1,459.2,3736,NA
3,2,binary,28,1,trial,10603558.0,10604608.0,1050.0,78,R,10603494,10603702,210,863.9,526.2,3828,NA
3,2,binary,28,1,trial,10603558.0,10604608.0,1050.0,78,R,10603754,10604038,286,467.9,588.4,3669,left
3,2,binary,28,1,trial,10603558.0,10604608.0,1050.0,78,R,10604104,10604826,724,1451.2,577.1,3178,right
3,2,binary,28,1,trial,10603558.0,10604608.0,1050.0,78,R,10604862,10604880,20,1220.8,560.4,3101,right
3,2,binary,29,2,fixationCross,10605508.0,10606525.0,1017.0,79,R,10605118,10605348,232,950.6,468.0,3355,NA
3,2,binary,29,2,trial,10605508.0,10606525.0,1017.0,79,R,10605368,10605658,292,892.6,500.9,3681,NA
3,2,binary,29,2,trial,10605508.0,10606525.0,1017.0,79,R,10605700,10605884,186,567.3,571.2,3791,left
3,2,binary,29,2,trial,10605508.0,10606525.0,1017.0,79,R,10605938,10606446,510,1368.0,571.6,3409,right
3,2,binary,29,2,postResponse,10605508.0,10606525.0,1017.0,79,R,10606520,10606858,340,493.5,544.3,3403,left
3,2,binary,30,2,fixationCross,10607658.0,10608659.0,1001.0,80,R,10606964,10607348,386,686.6,537.9,3601,left
3,2,binary,30,2,trial,10607658.0,10608659.0,1001.0,80,R,10607374,10607808,436,910.3,531.7,3764,NA
3,2,binary,30,2,trial,10607658.0,10608659.0,1001.0,80,R,10607854,10608038,186,511.8,588.4,3732,left
3,2,binary,30,2,trial,10607658.0,10608659.0,1001.0,80,R,10608112,10608354,244,1444.4,561.7,3411,right
3,2,binary,30,2,trial,10607658.0,10608659.0,1001.0,80,R,10608376,10608870,496,1554.9,639.0,3243,right
3,2,binary,31,1,fixationCross,10609774.0,10610824.0,1050.0,81,R,10609202,10609470,270,1081.0,432.4,3319,NA
3,2,binary,31,1,fixationCross,10609774.0,10610824.0,1050.0,81,R,10609496,10609736,242,950.7,493.4,3626,NA
3,2,binary,31,1,trial,10609774.0,10610824.0,1050.0,81,R,10609762,10609918,158,831.1,548.9,3595,NA
3,2,binary,31,1,trial,10609774.0,10610824.0,1050.0,81,R,10609958,10610134,178,467.8,592.2,3498,left
3,2,binary,31,1,trial,10609774.0,10610824.0,1050.0,81,R,10610198,10610556,360,1433.9,552.8,3078,right
3,2,binary,31,1,trial,10609774.0,10610824.0,1050.0,81,R,10610620,10611008,390,538.1,563.1,2854,left
3,2,binary,31,1,trial,10609774.0,10610824.0,1050.0,81,R,10611038,10611138,102,811.2,550.3,2836,NA
3,2,binary,32,1,fixationCross,10611974.0,10613058.0,1084.0,82,R,10611482,10611646,166,1110.1,414.7,3134,NA
3,2,binary,32,1,fixationCross,10611974.0,10613058.0,1084.0,82,R,10611670,10611910,242,974.2,474.0,3423,NA
3,2,binary,32,1,trial,10611974.0,10613058.0,1084.0,82,R,10611930,10612154,226,895.3,519.3,3489,NA
3,2,binary,32,1,trial,10611974.0,10613058.0,1084.0,82,R,10612206,10612528,324,523.5,589.3,3292,left
3,2,binary,32,1,trial,10611974.0,10613058.0,1084.0,82,R,10612588,10612722,136,1392.0,506.5,3099,right
3,2,binary,32,1,postResponse,10611974.0,10613058.0,1084.0,82,R,10612744,10613404,662,1359.9,451.9,3048,right
3,2,binary,33,2,fixationCross,10614408.0,10615725.0,1317.0,83,R,10613480,10613542,64,1350.5,452.9,3158,right
3,2,binary,33,2,fixationCross,10614408.0,10615725.0,1317.0,83,R,10613558,10613868,312,1261.2,448.1,3235,right
3,2,binary,33,2,fixationCross,10614408.0,10615725.0,1317.0,83,R,10614104,10614390,288,957.9,441.5,3402,NA
3,2,binary,33,2,trial,10614408.0,10615725.0,1317.0,83,R,10614406,10614558,154,912.7,474.8,3572,NA
3,2,binary,33,2,trial,10614408.0,10615725.0,1317.0,83,R,10614618,10614820,204,426.3,535.5,3628,left
3,2,binary,33,2,trial,10614408.0,10615725.0,1317.0,83,R,10614884,10615192,310,1383.4,601.7,3239,right
3,2,binary,33,2,trial,10614408.0,10615725.0,1317.0,83,R,10615204,10615352,150,1415.1,586.0,3075,right
3,2,binary,33,2,trial,10614408.0,10615725.0,1317.0,83,R,10615366,10616014,650,1387.1,563.2,2807,right
3,2,binary,34,2,fixationCross,10616875.0,10618041.0,1166.0,84,R,10616336,10616570,236,1098.2,437.5,3304,NA
3,2,binary,34,2,trial,10616875.0,10618041.0,1166.0,84,R,10616592,10617020,430,969.7,468.3,3457,NA
3,2,binary,34,2,trial,10616875.0,10618041.0,1166.0,84,R,10617080,10617412,334,465.2,556.8,3177,left
3,2,binary,34,2,trial,10616875.0,10618041.0,1166.0,84,R,10617470,10617696,228,1309.2,480.4,2856,right
3,2,binary,34,2,trial,10616875.0,10618041.0,1166.0,84,R,10617710,10618332,624,1318.2,448.8,2712,right
3,2,binary,35,2,fixationCross,10619158.0,10620475.0,1317.0,85,R,10618642,10618828,188,1194.3,443.5,2995,right
3,2,binary,35,2,fixationCross,10619158.0,10620475.0,1317.0,85,R,10618854,10619020,168,1017.6,465.0,3255,NA
3,2,binary,35,2,trial,10619158.0,10620475.0,1317.0,85,R,10619040,10619318,280,924.6,509.3,3393,NA
3,2,binary,35,2,trial,10619158.0,10620475.0,1317.0,85,R,10619364,10619654,292,505.2,562.9,3305,left
3,2,binary,35,2,trial,10619158.0,10620475.0,1317.0,85,R,10619668,10619848,182,549.3,554.3,3057,left
3,2,binary,35,2,trial,10619158.0,10620475.0,1317.0,85,R,10619914,10620204,292,1495.6,531.5,2814,right
3,2,binary,35,2,trial,10619158.0,10620475.0,1317.0,85,R,10620220,10620726,508,1439.8,514.9,2785,right
3,2,binary,36,2,fixationCross,10621641.0,10622842.0,1201.0,86,R,10621080,10621332,254,1110.2,410.9,3177,NA
3,2,binary,36,2,fixationCross,10621641.0,10622842.0,1201.0,86,R,10621358,10621584,228,955.1,460.6,3419,NA
3,2,binary,36,2,trial,10621641.0,10622842.0,1201.0,86,R,10621606,10621790,186,866.9,514.2,3373,NA
3,2,binary,36,2,trial,10621641.0,10622842.0,1201.0,86,R,10621846,10622108,264,449.7,585.5,3287,left
3,2,binary,36,2,trial,10621641.0,10622842.0,1201.0,86,R,10622172,10622356,186,1388.9,484.9,3007,right
3,2,binary,36,2,trial,10621641.0,10622842.0,1201.0,86,R,10622382,10622790,410,1366.2,429.3,2868,right
3,2,binary,36,2,trial,10621641.0,10622842.0,1201.0,86,R,10622820,10623068,250,1503.0,546.0,2965,right
3,2,binary,37,1,fixationCross,10625141.0,10626658.0,1517.0,87,R,10623624,10623748,126,1138.9,365.8,3297,NA
3,2,binary,37,1,fixationCross,10625141.0,10626658.0,1517.0,87,R,10623778,10623862,86,945.3,431.6,3384,NA
3,2,binary,37,1,fixationCross,10625141.0,10626658.0,1517.0,87,R,10623888,10624458,572,720.0,490.3,3225,left
3,2,binary,37,1,fixationCross,10625141.0,10626658.0,1517.0,87,R,10624478,10624744,268,815.3,487.6,3007,NA
3,2,binary,37,1,fixationCross,10625141.0,10626658.0,1517.0,87,R,10624758,10625024,268,871.7,491.5,2984,NA
3,2,binary,37,1,trial,10625141.0,10626658.0,1517.0,87,R,10625040,10625274,236,917.5,507.4,3027,NA
3,2,binary,37,1,trial,10625141.0,10626658.0,1517.0,87,R,10625292,10625436,146,972.5,516.5,3041,NA
3,2,binary,37,1,trial,10625141.0,10626658.0,1517.0,87,R,10625484,10625850,368,1451.2,545.0,2878,right
3,2,binary,37,1,trial,10625141.0,10626658.0,1517.0,87,R,10625860,10625944,86,1486.6,543.8,2768,right
3,2,binary,37,1,trial,10625141.0,10626658.0,1517.0,87,R,10626010,10626322,314,537.4,544.7,2714,left
3,2,binary,37,1,trial,10625141.0,10626658.0,1517.0,87,R,10626358,10626964,608,292.6,572.1,2874,left
3,2,binary,38,1,fixationCross,10627875.0,10628775.0,900.0,88,R,10627328,10627624,298,980.5,413.1,3211,NA
3,2,binary,38,1,trial,10627875.0,10628775.0,900.0,88,R,10627648,10627926,280,916.9,469.4,3392,NA
3,2,binary,38,1,trial,10627875.0,10628775.0,900.0,88,R,10627948,10628066,120,853.1,520.1,3261,NA
3,2,binary,38,1,trial,10627875.0,10628775.0,900.0,88,R,10628110,10628416,308,460.9,568.4,3122,left
3,2,binary,38,1,trial,10627875.0,10628775.0,900.0,88,R,10628478,10628720,244,1355.1,511.1,2898,right
3,2,binary,38,1,trial,10627875.0,10628775.0,900.0,88,R,10628738,10629084,348,1367.9,462.0,2908,right
3,2,binary,39,2,fixationCross,10629942.0,10631692.0,1750.0,89,R,10629308,10629604,298,1149.6,379.0,3161,NA
3,2,binary,39,2,fixationCross,10629942.0,10631692.0,1750.0,89,R,10629634,10629900,268,977.6,449.9,3463,NA
3,2,binary,39,2,trial,10629942.0,10631692.0,1750.0,89,R,10629918,10630094,178,899.8,487.9,3381,NA
3,2,binary,39,2,trial,10629942.0,10631692.0,1750.0,89,R,10630136,10630352,218,535.1,533.6,3263,left
3,2,binary,39,2,trial,10629942.0,10631692.0,1750.0,89,R,10630412,10630810,400,1448.3,494.6,2846,right
3,2,binary,39,2,trial,10629942.0,10631692.0,1750.0,89,R,10630820,10631228,410,1464.6,477.7,2602,right
3,2,binary,39,2,postResponse,10629942.0,10631692.0,1750.0,89,R,10631238,10632026,790,1461.0,464.8,2555,right
3,2,binary,40,2,fixationCross,10632874.0,10634175.0,1301.0,90,R,10632364,10632544,182,1286.0,357.9,3095,right
3,2,binary,40,2,fixationCross,10632874.0,10634175.0,1301.0,90,R,10632590,10632818,230,973.2,475.4,3428,NA
3,2,binary,40,2,trial,10632874.0,10634175.0,1301.0,90,R,10632838,10633022,186,929.8,519.8,3576,NA
3,2,binary,40,2,trial,10632874.0,10634175.0,1301.0,90,R,10633074,10633482,410,553.4,565.3,3403,left
3,2,binary,40,2,trial,10632874.0,10634175.0,1301.0,90,R,10633540,10633690,152,1383.9,490.2,2988,right
3,2,binary,40,2,trial,10632874.0,10634175.0,1301.0,90,R,10633706,10634418,714,1418.3,470.5,2873,right
3,2,binary,41,1,fixationCross,10635258.0,10636141.0,883.0,91,R,10634630,10634940,312,1119.2,432.6,3353,NA
3,2,binary,41,1,trial,10635258.0,10636141.0,883.0,91,R,10634972,10635418,448,963.2,526.1,3806,NA
3,2,binary,41,1,trial,10635258.0,10636141.0,883.0,91,R,10635476,10635710,236,451.0,583.5,3836,left
3,2,binary,41,1,postResponse,10635258.0,10636141.0,883.0,91,R,10635776,10636484,710,1447.6,527.5,3205,right
3,2,binary,42,2,fixationCross,10637208.0,10638408.0,1200.0,92,R,10636712,10636908,198,1085.8,418.4,3218,NA
3,2,binary,42,2,trial,10637208.0,10638408.0,1200.0,92,R,10636930,10637354,426,968.8,469.0,3573,NA
3,2,binary,42,2,trial,10637208.0,10638408.0,1200.0,92,R,10637412,10637708,298,498.0,541.4,3583,left
3,2,binary,42,2,trial,10637208.0,10638408.0,1200.0,92,R,10637772,10638022,252,1478.8,532.1,3144,right
3,2,binary,42,2,postResponse,10637208.0,10638408.0,1200.0,92,R,10638038,10638742,706,1526.0,493.7,2956,right
3,2,binary,43,2,fixationCross,10639542.0,10640842.0,1300.0,93,R,10639034,10639242,210,1080.1,444.2,3014,NA
3,2,binary,43,2,trial,10639542.0,10640842.0,1300.0,93,R,10639268,10639688,422,930.9,519.2,3245,NA
3,2,binary,43,2,trial,10639542.0,10640842.0,1300.0,93,R,10639730,10640082,354,517.9,586.9,3170,left
3,2,binary,43,2,trial,10639542.0,10640842.0,1300.0,93,R,10640142,10640358,218,1403.9,500.1,2895,right
3,2,binary,43,2,trial,10639542.0,10640842.0,1300.0,93,R,10640376,10641132,758,1472.5,487.2,2685,right
3,2,binary,44,2,fixationCross,10641975.0,10643725.0,1750.0,94,R,10641440,10641640,202,1281.0,369.2,2843,right
3,2,binary,44,2,fixationCross,10641975.0,10643725.0,1750.0,94,R,10641682,10641910,230,1011.2,466.4,3207,NA
3,2,binary,44,2,trial,10641975.0,10643725.0,1750.0,94,R,10641928,10642124,198,948.1,500.8,3391,NA
3,2,binary,44,2,trial,10641975.0,10643725.0,1750.0,94,R,10642184,10642406,224,489.1,541.4,3361,left
3,2,binary,44,2,trial,10641975.0,10643725.0,1750.0,94,R,10642470,10642616,148,1479.0,450.9,2948,right
3,2,binary,44,2,trial,10641975.0,10643725.0,1750.0,94,R,10642634,10644010,1378,1549.9,444.5,2928,right
3,2,binary,45,1,fixationCross,10644642.0,10645508.0,866.0,95,R,10644180,10644580,402,1013.0,473.8,3859,NA
3,2,binary,45,1,trial,10644642.0,10645508.0,866.0,95,R,10644598,10644788,192,941.1,515.8,4071,NA
3,2,binary,45,1,trial,10644642.0,10645508.0,866.0,95,R,10644850,10645168,320,393.6,613.9,3883,left
3,2,binary,45,1,trial,10644642.0,10645508.0,866.0,95,R,10645186,10645332,148,441.7,644.4,3471,left
3,2,binary,45,1,trial,10644642.0,10645508.0,866.0,95,R,10645394,10645770,378,1375.9,545.6,3198,right
3,2,binary,46,1,fixationCross,10646542.0,10647591.0,1049.0,96,R,10646056,10646244,190,1091.0,441.0,3429,NA
3,2,binary,46,1,trial,10646542.0,10647591.0,1049.0,96,R,10646268,10646692,426,926.8,476.7,3758,NA
3,2,binary,46,1,trial,10646542.0,10647591.0,1049.0,96,R,10646746,10646960,216,540.3,556.6,3721,left
3,2,binary,46,1,trial,10646542.0,10647591.0,1049.0,96,R,10647020,10647276,258,1434.8,526.0,3359,right
3,2,binary,46,1,trial,10646542.0,10647591.0,1049.0,96,R,10647338,10647560,224,742.2,880.8,3376,likertHorizontal
3,2,binary,46,1,trial,10646542.0,10647591.0,1049.0,96,R,10647620,10647898,280,1468.1,570.7,3303,right
3,2,binary,47,2,fixationCross,10648659.0,10649641.0,982.0,97,R,10648150,10648344,196,1174.7,481.4,3618,NA
3,2,binary,47,2,fixationCross,10648659.0,10649641.0,982.0,97,R,10648376,10648650,276,969.4,513.3,3821,NA
3,2,binary,47,2,trial,10648659.0,10649641.0,982.0,97,R,10648674,10648820,148,845.3,536.2,3744,NA
3,2,binary,47,2,trial,10648659.0,10649641.0,982.0,97,R,10648876,10649054,180,408.6,608.7,3578,left
3,2,binary,47,2,trial,10648659.0,10649641.0,982.0,97,R,10649124,10649898,776,1417.1,546.9,3086,right
3,2,binary,48,1,fixationCross,10650775.0,10651659.0,884.0,98,R,10650318,10650450,134,1302.0,457.6,3145,right
3,2,binary,48,1,fixationCross,10650775.0,10651659.0,884.0,98,R,10650494,10650650,158,1044.3,490.7,3436,NA
3,2,binary,48,1,trial,10650775.0,10651659.0,884.0,98,R,10650674,10650938,266,926.0,512.8,3475,NA
3,2,binary,48,1,trial,10650775.0,10651659.0,884.0,98,R,10650984,10651184,202,511.0,584.1,3307,left
3,2,binary,48,1,postResponse,10650775.0,10651659.0,884.0,98,R,10651244,10652006,764,1432.8,560.3,2840,right
3,2,binary,49,2,fixationCross,10652891.0,10653908.0,1017.0,99,R,10652108,10652246,140,1406.3,560.7,2774,right
3,2,binary,49,2,fixationCross,10652891.0,10653908.0,1017.0,99,R,10652264,10652466,204,1292.7,532.2,2847,right
3,2,binary,49,2,fixationCross,10652891.0,10653908.0,1017.0,99,R,10652502,10652602,102,1084.1,538.9,2928,NA
3,2,binary,49,2,fixationCross,10652891.0,10653908.0,1017.0,99,R,10652622,10652860,240,942.7,533.0,2962,NA
3,2,binary,49,2,trial,10652891.0,10653908.0,1017.0,99,R,10652882,10653064,184,790.6,528.0,2991,NA
3,2,binary,49,2,trial,10652891.0,10653908.0,1017.0,99,R,10653112,10653302,192,464.1,563.3,2982,left
3,2,binary,49,2,trial,10652891.0,10653908.0,1017.0,99,R,10653366,10653604,240,1407.2,561.7,2811,right
3,2,binary,49,2,postResponse,10652891.0,10653908.0,1017.0,99,R,10653616,10654242,628,1441.0,569.7,2588,right
3,2,binary,50,1,fixationCross,10655842.0,10657158.0,1316.0,100,R,10654544,10655010,468,839.8,492.2,2798,NA
3,2,binary,50,1,fixationCross,10655842.0,10657158.0,1316.0,100,R,10655026,10655388,364,781.3,509.1,2943,NA
3,2,binary,50,1,fixationCross,10655842.0,10657158.0,1316.0,100,R,10655402,10655578,178,840.3,514.5,2877,NA
3,2,binary,50,1,trial,10655842.0,10657158.0,1316.0,100,R,10655598,10655996,400,955.7,526.4,2895,NA
3,2,binary,50,1,trial,10655842.0,10657158.0,1316.0,100,R,10656054,10656290,238,419.9,563.2,3012,left
3,2,binary,50,1,trial,10655842.0,10657158.0,1316.0,100,R,10656356,10656632,278,1438.9,532.0,2797,right
3,2,binary,50,1,trial,10655842.0,10657158.0,1316.0,100,R,10656658,10656834,178,1328.0,421.5,2763,right
3,2,binary,50,1,trial,10655842.0,10657158.0,1316.0,100,R,10656900,10657396,498,471.3,514.9,2910,left
3,3,valuation,1,5,fixationCross,10738126.0,10740993.0,2867.0,101,R,10737068,10737472,406,1158.2,666.4,4028,NA
3,3,valuation,1,5,trial,10738126.0,10740993.0,2867.0,101,R,10737862,10738404,544,961.0,521.3,4337,NA
3,3,valuation,1,5,trial,10738126.0,10740993.0,2867.0,101,R,10738462,10738696,236,470.8,679.9,4213,likertVertical
3,3,valuation,1,5,trial,10738126.0,10740993.0,2867.0,101,R,10738712,10738828,118,497.3,662.8,3963,likertVertical
3,3,valuation,1,5,trial,10738126.0,10740993.0,2867.0,101,R,10738880,10739128,250,533.4,308.9,3794,likertVertical
3,3,valuation,1,5,trial,10738126.0,10740993.0,2867.0,101,R,10739146,10739486,342,601.9,278.7,3813,likertVertical
3,3,valuation,1,5,trial,10738126.0,10740993.0,2867.0,101,R,10739550,10739856,308,1455.4,597.5,3894,right
3,3,valuation,1,5,trial,10738126.0,10740993.0,2867.0,101,R,10739874,10740030,158,1392.0,580.3,3952,right
3,3,valuation,1,5,trial,10738126.0,10740993.0,2867.0,101,R,10740092,10740240,150,596.4,567.6,3840,likertVertical
3,3,valuation,1,5,trial,10738126.0,10740993.0,2867.0,101,R,10740264,10740392,130,516.7,514.6,3774,likertVertical
3,3,valuation,1,5,trial,10738126.0,10740993.0,2867.0,101,R,10740418,10740634,218,523.8,468.4,3810,likertVertical
3,3,valuation,1,5,trial,10738126.0,10740993.0,2867.0,101,R,10740652,10740890,240,493.3,502.9,3972,likertVertical
3,3,valuation,1,5,trial,10738126.0,10740993.0,2867.0,101,R,10740910,10740994,86,496.3,456.9,4079,likertVertical
3,3,valuation,1,5,postResponse,10738126.0,10740993.0,2867.0,101,R,10741052,10741314,264,1214.2,493.6,3986,right
3,3,valuation,2,4,fixationCross,10742126.0,10743243.0,1117.0,102,R,10741536,10741740,206,1111.9,434.5,4129,NA
3,3,valuation,2,4,fixationCross,10742126.0,10743243.0,1117.0,102,R,10741762,10741898,138,1027.8,460.9,4255,NA
3,3,valuation,2,4,trial,10742126.0,10743243.0,1117.0,102,R,10741924,10742318,396,964.3,526.1,4195,NA
3,3,valuation,2,4,trial,10742126.0,10743243.0,1117.0,102,R,10742358,10742696,340,1331.6,534.9,3883,right
3,3,valuation,2,4,trial,10742126.0,10743243.0,1117.0,102,R,10742768,10742982,216,487.3,476.0,3637,likertVertical
3,3,valuation,2,4,trial,10742126.0,10743243.0,1117.0,102,R,10743006,10743450,446,506.0,558.7,3621,likertVertical
3,3,valuation,2,4,postResponse,10742126.0,10743243.0,1117.0,102,R,10743510,10743588,80,1004.7,478.0,3865,NA
3,3,valuation,3,4,trial,10744160.0,10745160.0,1000.0,103,R,10743688,10744238,552,1003.0,482.6,3973,NA
3,3,valuation,3,4,trial,10744160.0,10745160.0,1000.0,103,R,10744276,10744450,176,1300.2,511.1,3776,right
3,3,valuation,3,4,trial,10744160.0,10745160.0,1000.0,103,R,10744474,10744662,190,1452.0,525.1,3584,right
3,3,valuation,3,4,trial,10744160.0,10745160.0,1000.0,103,R,10744674,10744822,150,1488.3,553.3,3424,right
3,3,valuation,3,4,trial,10744160.0,10745160.0,1000.0,103,R,10744888,10745016,130,592.2,493.3,3353,likertVertical
3,3,valuation,3,4,trial,10744160.0,10745160.0,1000.0,103,R,10745040,10745434,396,500.7,529.8,3291,likertVertical
3,3,valuation,3,4,postResponse,10744160.0,10745160.0,1000.0,103,R,10745458,10745506,50,680.2,520.0,3402,likertVertical
3,3,valuation,4,4,fixationCross,10746043.0,10747410.0,1367.0,104,R,10745582,10745648,68,691.9,522.5,3538,likertVertical
3,3,valuation,4,4,trial,10746043.0,10747410.0,1367.0,104,R,10745678,10746066,390,924.5,510.3,3730,NA
3,3,valuation,4,4,trial,10746043.0,10747410.0,1367.0,104,R,10746078,10746252,176,943.0,534.3,3908,NA
3,3,valuation,4,4,trial,10746043.0,10747410.0,1367.0,104,R,10746312,10746408,98,447.9,567.0,3980,likertVertical
3,3,valuation,4,4,trial,10746043.0,10747410.0,1367.0,104,R,10746482,10746900,420,1435.2,527.2,3606,right
3,3,valuation,4,4,trial,10746043.0,10747410.0,1367.0,104,R,10746920,10747158,240,1384.3,485.6,3396,right
3,3,valuation,4,4,trial,10746043.0,10747410.0,1367.0,104,R,10747228,10747410,184,485.0,568.7,3254,likertVertical
3,3,valuation,4,4,trial,10746043.0,10747410.0,1367.0,104,R,10747424,10747676,254,520.6,555.1,3192,likertVertical
3,3,valuation,4,4,postResponse,10746043.0,10747410.0,1367.0,104,R,10747700,10747758,60,687.8,528.6,3245,likertVertical
3,3,valuation,5,4,fixationCross,10748593.0,10750443.0,1850.0,105,R,10747860,10748116,258,696.1,540.5,3534,likertVertical
3,3,valuation,5,4,fixationCross,10748593.0,10750443.0,1850.0,105,R,10748170,10748350,182,1186.2,520.8,3722,right
3,3,valuation,5,4,trial,10748593.0,10750443.0,1850.0,105,R,10748382,10748746,366,991.0,530.4,3865,NA
3,3,valuation,5,4,trial,10748593.0,10750443.0,1850.0,105,R,10748786,10748980,196,1309.4,521.8,3863,right
3,3,valuation,5,4,trial,10748593.0,10750443.0,1850.0,105,R,10749012,10749280,270,1577.9,467.7,3467,right
3,3,valuation,5,4,trial,10748593.0,10750443.0,1850.0,105,R,10749352,10749588,238,531.3,503.5,3391,likertVertical
3,3,valuation,5,4,trial,10748593.0,10750443.0,1850.0,105,R,10749606,10750138,534,499.8,474.0,3465,likertVertical
3,3,valuation,5,4,trial,10748593.0,10750443.0,1850.0,105,R,10750202,10750686,486,1300.6,496.4,3674,right
3,3,valuation,6,4,fixationCross,10752243.0,10753860.0,1617.0,106,R,10750952,10751332,382,1185.6,407.3,3647,right
3,3,valuation,6,4,fixationCross,10752243.0,10753860.0,1617.0,106,R,10751356,10751966,612,1038.8,448.1,3617,NA
3,3,valuation,6,4,trial,10752243.0,10753860.0,1617.0,106,R,10751988,10752388,402,997.7,525.2,3539,NA
3,3,valuation,6,4,trial,10752243.0,10753860.0,1617.0,106,R,10752430,10752570,142,1349.6,533.9,3512,right
3,3,valuation,6,4,trial,10752243.0,10753860.0,1617.0,106,R,10752598,10753196,600,1378.6,464.7,3336,right
3,3,valuation,6,4,trial,10752243.0,10753860.0,1617.0,106,R,10753268,10753392,126,612.6,487.7,3418,likertVertical
3,3,valuation,6,4,trial,10752243.0,10753860.0,1617.0,106,R,10753416,10753622,208,510.1,507.2,3441,likertVertical
3,3,valuation,6,4,trial,10752243.0,10753860.0,1617.0,106,R,10753690,10754108,420,1407.2,480.7,3473,right
3,3,valuation,7,4,fixationCross,10755477.0,10757010.0,1533.0,107,R,10754384,10754562,180,1225.7,434.4,3518,right
3,3,valuation,7,4,fixationCross,10755477.0,10757010.0,1533.0,107,R,10754586,10755192,608,1117.0,471.5,3698,NA
3,3,valuation,7,4,trial,10755477.0,10757010.0,1533.0,107,R,10755212,10755528,318,1019.4,509.2,3667,NA
3,3,valuation,7,4,trial,10755477.0,10757010.0,1533.0,107,R,10755546,10755596,52,963.4,519.8,3654,NA
3,3,valuation,7,4,trial,10755477.0,10757010.0,1533.0,107,R,10755640,10755822,184,1348.9,498.9,3558,right
3,3,valuation,7,4,trial,10755477.0,10757010.0,1533.0,107,R,10755850,10756028,180,1585.1,548.2,3321,right
3,3,valuation,7,4,trial,10755477.0,10757010.0,1533.0,107,R,10756040,10756300,262,1592.3,591.7,3217,right
3,3,valuation,7,4,trial,10755477.0,10757010.0,1533.0,107,R,10756388,10756540,154,510.5,609.8,3288,likertVertical
3,3,valuation,7,4,trial,10755477.0,10757010.0,1533.0,107,R,10756566,10756792,228,512.7,533.6,3323,likertVertical
3,3,valuation,7,4,trial,10755477.0,10757010.0,1533.0,107,R,10756854,10757062,210,1422.5,491.6,3323,right
3,3,valuation,7,4,trial,10755477.0,10757010.0,1533.0,107,R,10757072,10757260,190,1381.9,496.0,3398,right
3,3,valuation,8,4,fixationCross,10758660.0,10759927.0,1267.0,108,R,10757510,10757722,214,1229.8,397.3,3514,right
3,3,valuation,8,4,fixationCross,10758660.0,10759927.0,1267.0,108,R,10757742,10758378,638,1100.9,472.8,3786,NA
3,3,valuation,8,4,fixationCross,10758660.0,10759927.0,1267.0,108,R,10758396,10758624,230,1027.5,484.1,3726,NA
3,3,valuation,8,4,trial,10758660.0,10759927.0,1267.0,108,R,10758642,10758806,166,962.7,512.0,3744,NA
3,3,valuation,8,4,trial,10758660.0,10759927.0,1267.0,108,R,10758852,10759074,224,1393.0,504.1,3688,right
3,3,valuation,8,4,trial,10758660.0,10759927.0,1267.0,108,R,10759100,10759388,290,1504.5,597.8,3534,right
3,3,valuation,8,4,trial,10758660.0,10759927.0,1267.0,108,R,10759400,10759838,440,1462.7,604.7,3357,right
3,3,valuation,8,4,trial,10758660.0,10759927.0,1267.0,108,R,10759898,10760198,302,951.7,541.6,3246,NA
3,3,valuation,9,4,fixationCross,10763010.0,10764226.0,1216.0,109,R,10760476,10760906,432,1123.2,441.5,3555,NA
3,3,valuation,9,4,fixationCross,10763010.0,10764226.0,1216.0,109,R,10760924,10761396,474,1067.8,480.0,3703,NA
3,3,valuation,9,4,fixationCross,10763010.0,10764226.0,1216.0,109,R,10761424,10761672,250,1270.9,502.3,3632,right
3,3,valuation,9,4,fixationCross,10763010.0,10764226.0,1216.0,109,R,10761694,10761936,244,1138.5,510.3,3648,NA
3,3,valuation,9,4,fixationCross,10763010.0,10764226.0,1216.0,109,R,10761954,10762270,318,1211.7,493.9,3674,right
3,3,valuation,9,4,fixationCross,10763010.0,10764226.0,1216.0,109,R,10762532,10762714,184,1282.3,482.2,3518,right
3,3,valuation,9,4,fixationCross,10763010.0,10764226.0,1216.0,109,R,10762756,10762914,160,1009.6,529.5,3633,NA
3,3,valuation,9,4,trial,10763010.0,10764226.0,1216.0,109,R,10762930,10763112,184,953.7,551.9,3618,NA
3,3,valuation,9,4,trial,10763010.0,10764226.0,1216.0,109,R,10763230,10763550,322,1437.4,570.6,3288,right
3,3,valuation,9,4,trial,10763010.0,10764226.0,1216.0,109,R,10763566,10763740,176,1507.5,560.7,3136,right
3,3,valuation,9,4,trial,10763010.0,10764226.0,1216.0,109,R,10763822,10763986,166,536.6,594.6,3097,likertVertical
3,3,valuation,9,4,trial,10763010.0,10764226.0,1216.0,109,R,10764006,10764156,152,480.5,565.1,3102,likertVertical
3,3,valuation,9,4,trial,10763010.0,10764226.0,1216.0,109,R,10764220,10764492,274,1374.0,530.5,3248,right
3,3,valuation,10,6,fixationCross,10765843.0,10767643.0,1800.0,110,R,10764804,10765032,230,1330.1,481.5,3661,right
3,3,valuation,10,6,fixationCross,10765843.0,10767643.0,1800.0,110,R,10765074,10765560,488,1069.0,513.8,3762,NA
3,3,valuation,10,6,trial,10765843.0,10767643.0,1800.0,110,R,10765576,10765972,398,1019.5,482.8,3627,NA
3,3,valuation,10,6,trial,10765843.0,10767643.0,1800.0,110,R,10766010,10766158,150,1328.4,531.2,3632,right
3,3,valuation,10,6,trial,10765843.0,10767643.0,1800.0,110,R,10766178,10766472,296,1426.0,556.5,3455,right
3,3,valuation,10,6,trial,10765843.0,10767643.0,1800.0,110,R,10766552,10766976,426,494.2,442.8,3229,likertVertical
3,3,valuation,10,6,trial,10765843.0,10767643.0,1800.0,110,R,10766998,10767526,530,497.8,405.3,3531,likertVertical
3,3,valuation,10,6,trial,10765843.0,10767643.0,1800.0,110,R,10767584,10767876,294,1305.1,503.6,3768,right
3,3,valuation,11,5,fixationCross,10769444.0,10770794.0,1350.0,111,R,10768340,10768544,206,1327.1,419.1,3848,right
3,3,valuation,11,5,fixationCross,10769444.0,10770794.0,1350.0,111,R,10768566,10768912,348,1192.4,448.5,3984,right
3,3,valuation,11,5,fixationCross,10769444.0,10770794.0,1350.0,111,R,10768930,10769168,240,1109.3,465.7,3702,NA
3,3,valuation,11,5,trial,10769444.0,10770794.0,1350.0,111,R,10769188,10769468,282,1016.8,504.1,3544,NA
3,3,valuation,11,5,trial,10769444.0,10770794.0,1350.0,111,R,10769508,10769646,140,1230.6,489.0,3456,right
3,3,valuation,11,5,trial,10769444.0,10770794.0,1350.0,111,R,10769674,10769914,242,1451.0,496.9,3388,right
3,3,valuation,11,5,trial,10769444.0,10770794.0,1350.0,111,R,10769938,10770062,126,1424.9,419.2,3357,right
3,3,valuation,11,5,trial,10769444.0,10770794.0,1350.0,111,R,10770134,10770272,140,558.1,435.0,3396,likertVertical
3,3,valuation,11,5,trial,10769444.0,10770794.0,1350.0,111,R,10770290,10770744,456,504.8,445.9,3359,likertVertical
3,3,valuation,11,5,trial,10769444.0,10770794.0,1350.0,111,R,10770802,10771006,206,1314.6,441.9,3454,right
3,3,valuation,12,3,fixationCross,10771943.0,10773610.0,1667.0,112,R,10771520,10771664,146,1254.8,455.7,3812,right
3,3,valuation,12,3,trial,10771943.0,10773610.0,1667.0,112,R,10771706,10772072,368,954.8,528.3,4048,NA
3,3,valuation,12,3,trial,10771943.0,10773610.0,1667.0,112,R,10772118,10772412,296,1384.9,563.5,3767,right
3,3,valuation,12,3,trial,10771943.0,10773610.0,1667.0,112,R,10772434,10773008,576,1483.5,526.6,3303,right
3,3,valuation,12,3,trial,10771943.0,10773610.0,1667.0,112,R,10773078,10773264,188,533.8,548.3,3229,likertVertical
3,3,valuation,12,3,trial,10771943.0,10773610.0,1667.0,112,R,10773282,10773542,262,492.9,581.8,3286,likertVertical
3,3,valuation,12,3,trial,10771943.0,10773610.0,1667.0,112,R,10773604,10773914,312,1385.4,498.3,3537,right
3,3,valuation,13,4,fixationCross,10775177.0,10776443.0,1266.0,113,R,10774168,10774392,226,1302.1,446.9,3667,right
3,3,valuation,13,4,fixationCross,10775177.0,10776443.0,1266.0,113,R,10774430,10774906,478,1094.7,490.9,3878,NA
3,3,valuation,13,4,trial,10775177.0,10776443.0,1266.0,113,R,10774926,10775286,362,996.9,510.3,3717,NA
3,3,valuation,13,4,trial,10775177.0,10776443.0,1266.0,113,R,10775328,10775494,168,1361.8,538.5,3476,right
3,3,valuation,13,4,trial,10775177.0,10776443.0,1266.0,113,R,10775518,10775716,200,1499.3,513.2,3313,right
