participantNo,block,task,blockTrial,response,trialStage,trialStartTime,trialFinishTime,rt,trial,eye,fixStart,fixEnd,fixLength,fixPosX,fixPosY,dilation,aoi
35,1,continuous,1,81,fixationCross,18520133.0,18529000.0,8867.0,1,R,18519520,18519790,272,868.1,465.7,5197,NA
35,1,continuous,1,81,fixationCross,18520133.0,18529000.0,8867.0,1,R,18519816,18520098,284,958.1,562.6,5258,NA
35,1,continuous,1,81,trial,18520133.0,18529000.0,8867.0,1,R,18520296,18520458,164,967.5,572.1,5288,NA
35,1,continuous,1,81,trial,18520133.0,18529000.0,8867.0,1,R,18520526,18520688,164,434.9,533.4,5357,left
35,1,continuous,1,81,trial,18520133.0,18529000.0,8867.0,1,R,18520750,18520896,148,797.8,980.7,4864,likertHorizontal
35,1,continuous,1,81,trial,18520133.0,18529000.0,8867.0,1,R,18520926,18521142,218,957.4,990.1,4581,likertHorizontal
35,1,continuous,1,81,trial,18520133.0,18529000.0,8867.0,1,R,18521206,18521440,236,1423.0,577.7,4485,right
35,1,continuous,1,81,trial,18520133.0,18529000.0,8867.0,1,R,18521504,18521720,218,980.3,1008.8,4784,likertHorizontal
35,1,continuous,1,81,trial,18520133.0,18529000.0,8867.0,1,R,18521738,18522236,500,954.4,990.4,4842,likertHorizontal
35,1,continuous,1,81,trial,18520133.0,18529000.0,8867.0,1,R,18522300,18522670,372,1251.6,697.1,4817,right
35,1,continuous,1,81,trial,18520133.0,18529000.0,8867.0,1,R,18522696,18522864,170,1411.3,648.0,4742,right
35,1,continuous,1,81,trial,18520133.0,18529000.0,8867.0,1,R,18522936,18523068,134,557.3,557.7,4814,left
35,1,continuous,1,81,trial,18520133.0,18529000.0,8867.0,1,R,18523094,18523268,176,411.5,512.3,4738,left
35,1,continuous,1,81,trial,18520133.0,18529000.0,8867.0,1,R,18523282,18523528,248,379.1,469.6,4740,left
35,1,continuous,1,81,trial,18520133.0,18529000.0,8867.0,1,R,18523622,18524026,406,1476.4,597.5,4692,right
35,1,continuous,1,81,trial,18520133.0,18529000.0,8867.0,1,R,18524086,18524472,388,1200.8,876.7,4593,NA
35,1,continuous,1,81,trial,18520133.0,18529000.0,8867.0,1,R,18524498,18525062,566,1218.5,981.4,4856,NA
35,1,continuous,1,81,trial,18520133.0,18529000.0,8867.0,1,R,18525088,18525292,206,1346.6,1004.4,4914,NA
35,1,continuous,1,81,trial,18520133.0,18529000.0,8867.0,1,R,18525338,18525522,186,966.6,1114.6,5053,likertHorizontal
35,1,continuous,1,81,trial,18520133.0,18529000.0,8867.0,1,R,18525584,18525812,230,1296.3,1008.3,5052,NA
35,1,continuous,1,81,trial,18520133.0,18529000.0,8867.0,1,R,18525828,18526430,604,1262.4,970.4,4868,NA
35,1,continuous,1,81,trial,18520133.0,18529000.0,8867.0,1,R,18526486,18526822,338,1416.9,646.5,4608,right
35,1,continuous,1,81,trial,18520133.0,18529000.0,8867.0,1,R,18527020,18527200,182,1283.2,965.1,4624,NA
35,1,continuous,1,81,trial,18520133.0,18529000.0,8867.0,1,R,18527416,18527576,162,1321.7,773.8,4736,NA
35,1,continuous,1,81,trial,18520133.0,18529000.0,8867.0,1,R,18527594,18528148,556,1355.3,679.0,4612,right
35,1,continuous,1,81,trial,18520133.0,18529000.0,8867.0,1,R,18528188,18528526,340,1288.9,473.4,4492,right
35,1,continuous,1,81,trial,18520133.0,18529000.0,8867.0,1,R,18528602,18528882,282,1250.9,992.1,4596,NA
35,1,continuous,1,81,postResponse,18520133.0,18529000.0,8867.0,1,R,18528896,18529368,474,1271.5,958.7,4724,NA
35,1,continuous,2,18,fixationCross,18529966.0,18532683.0,2717.0,2,R,18529538,18529850,314,917.0,556.3,5241,NA
35,1,continuous,2,18,trial,18529966.0,18532683.0,2717.0,2,R,18529864,18530170,308,941.0,545.5,5319,NA
35,1,continuous,2,18,trial,18529966.0,18532683.0,2717.0,2,R,18530220,18530560,342,508.2,532.2,4956,left
35,1,continuous,2,18,trial,18529966.0,18532683.0,2717.0,2,R,18530580,18530658,80,521.0,566.6,4671,left
35,1,continuous,2,18,trial,18529966.0,18532683.0,2717.0,2,R,18530744,18530980,238,1510.0,516.0,4414,right
35,1,continuous,2,18,trial,18529966.0,18532683.0,2717.0,2,R,18531058,18531294,238,967.2,723.3,4678,NA
35,1,continuous,2,18,trial,18529966.0,18532683.0,2717.0,2,R,18531358,18531890,534,566.4,658.3,4951,left
35,1,continuous,2,18,trial,18529966.0,18532683.0,2717.0,2,R,18531944,18532210,268,608.7,982.0,4921,NA
35,1,continuous,2,18,trial,18529966.0,18532683.0,2717.0,2,R,18532290,18532486,198,503.5,466.3,4809,left
35,1,continuous,2,18,trial,18529966.0,18532683.0,2717.0,2,R,18532572,18532956,386,1478.7,524.1,4663,right
35,1,continuous,3,97,fixationCross,18534450.0,18536916.0,2466.0,3,R,18533148,18534134,988,781.2,609.5,5184,NA
35,1,continuous,3,97,fixationCross,18534450.0,18536916.0,2466.0,3,R,18534162,18534384,224,917.2,564.1,5392,NA
35,1,continuous,3,97,trial,18534450.0,18536916.0,2466.0,3,R,18534404,18534672,270,956.0,567.9,5261,NA
35,1,continuous,3,97,trial,18534450.0,18536916.0,2466.0,3,R,18534730,18534974,246,575.4,526.9,5067,left
35,1,continuous,3,97,trial,18534450.0,18536916.0,2466.0,3,R,18535046,18535282,238,1406.4,524.2,4514,right
35,1,continuous,3,97,trial,18534450.0,18536916.0,2466.0,3,R,18535302,18535628,328,1500.4,499.7,4452,right
35,1,continuous,3,97,trial,18534450.0,18536916.0,2466.0,3,R,18535690,18536002,314,1244.6,874.7,4596,NA
35,1,continuous,3,97,trial,18534450.0,18536916.0,2466.0,3,R,18536030,18536392,364,1356.9,951.7,4849,NA
35,1,continuous,3,97,postResponse,18534450.0,18536916.0,2466.0,3,R,18536408,18537262,856,1412.8,972.3,4799,NA
35,1,continuous,4,70,fixationCross,18538000.0,18540400.0,2400.0,4,R,18537530,18537672,144,957.1,339.8,5153,NA
35,1,continuous,4,70,trial,18538000.0,18540400.0,2400.0,4,R,18537718,18538146,430,919.9,493.7,5142,NA
35,1,continuous,4,70,trial,18538000.0,18540400.0,2400.0,4,R,18538176,18538370,196,717.5,511.5,4930,left
35,1,continuous,4,70,trial,18538000.0,18540400.0,2400.0,4,R,18538392,18538560,170,593.0,532.5,4874,left
35,1,continuous,4,70,trial,18538000.0,18540400.0,2400.0,4,R,18538640,18538914,276,1394.7,517.7,4530,right
35,1,continuous,4,70,trial,18538000.0,18540400.0,2400.0,4,R,18538982,18539428,448,568.5,568.1,4812,left
35,1,continuous,4,70,trial,18538000.0,18540400.0,2400.0,4,R,18539504,18540136,634,1135.6,828.5,4666,likertHorizontal
35,1,continuous,4,70,trial,18538000.0,18540400.0,2400.0,4,R,18540172,18540352,182,1158.2,940.5,5194,likertHorizontal
35,1,continuous,4,70,trial,18538000.0,18540400.0,2400.0,4,R,18540374,18540702,330,1154.2,969.4,5183,likertHorizontal
35,1,continuous,5,83,fixationCross,18541766.0,18544267.0,2501.0,5,R,18540882,18541090,210,1016.9,395.8,4886,NA
35,1,continuous,5,83,fixationCross,18541766.0,18544267.0,2501.0,5,R,18541112,18541458,348,872.6,458.9,5153,NA
35,1,continuous,5,83,trial,18541766.0,18544267.0,2501.0,5,R,18541484,18541956,474,937.6,546.7,5078,NA
35,1,continuous,5,83,trial,18541766.0,18544267.0,2501.0,5,R,18542014,18542284,272,499.5,521.3,4940,left
35,1,continuous,5,83,trial,18541766.0,18544267.0,2501.0,5,R,18542358,18543006,650,1503.6,454.6,4392,right
35,1,continuous,5,83,trial,18541766.0,18544267.0,2501.0,5,R,18543090,18543412,324,1169.2,936.4,4524,likertHorizontal
35,1,continuous,5,83,trial,18541766.0,18544267.0,2501.0,5,R,18543442,18543602,162,1294.6,796.0,4600,NA
35,1,continuous,5,83,trial,18541766.0,18544267.0,2501.0,5,R,18543624,18544144,522,1312.5,698.0,4769,right
35,1,continuous,5,83,postResponse,18541766.0,18544267.0,2501.0,5,R,18544186,18544624,440,1468.4,458.1,4624,right
35,1,continuous,6,82,fixationCross,18547433.0,18550633.0,3200.0,6,R,18544784,18545406,624,682.1,396.9,4755,left
35,1,continuous,6,82,fixationCross,18547433.0,18550633.0,3200.0,6,R,18545426,18547106,1682,748.2,433.3,4823,NA
35,1,continuous,6,82,trial,18547433.0,18550633.0,3200.0,6,R,18547144,18547706,564,921.0,500.9,4944,NA
35,1,continuous,6,82,trial,18547433.0,18550633.0,3200.0,6,R,18547764,18548024,262,619.9,473.6,4606,left
35,1,continuous,6,82,trial,18547433.0,18550633.0,3200.0,6,R,18548040,18548210,172,662.8,454.9,4343,left
35,1,continuous,6,82,trial,18547433.0,18550633.0,3200.0,6,R,18548280,18548570,292,1377.6,512.4,4016,right
35,1,continuous,6,82,trial,18547433.0,18550633.0,3200.0,6,R,18548594,18549124,532,1419.2,641.3,4193,right
35,1,continuous,6,82,trial,18547433.0,18550633.0,3200.0,6,R,18549160,18549632,474,1409.3,547.0,4331,right
35,1,continuous,6,82,trial,18547433.0,18550633.0,3200.0,6,R,18549656,18550010,356,1451.8,429.3,4492,right
35,1,continuous,6,82,trial,18547433.0,18550633.0,3200.0,6,R,18550040,18550362,324,1417.4,637.3,4610,right
35,1,continuous,6,82,trial,18547433.0,18550633.0,3200.0,6,R,18550416,18550840,426,1343.8,912.4,4763,NA
35,1,continuous,7,88,fixationCross,18552083.0,18554133.0,2050.0,7,R,18551054,18551172,120,739.4,417.6,4966,NA
35,1,continuous,7,88,fixationCross,18552083.0,18554133.0,2050.0,7,R,18551200,18551728,530,775.9,522.0,4984,NA
35,1,continuous,7,88,trial,18552083.0,18554133.0,2050.0,7,R,18551746,18552212,468,861.2,518.6,4872,NA
35,1,continuous,7,88,trial,18552083.0,18554133.0,2050.0,7,R,18552242,18552486,246,610.7,528.2,5061,left
35,1,continuous,7,88,trial,18552083.0,18554133.0,2050.0,7,R,18552502,18552682,182,653.8,544.4,4830,left
35,1,continuous,7,88,trial,18552083.0,18554133.0,2050.0,7,R,18552748,18553162,416,1388.6,529.7,4608,right
35,1,continuous,7,88,trial,18552083.0,18554133.0,2050.0,7,R,18553178,18553592,416,1431.5,536.4,4537,right
35,1,continuous,7,88,trial,18552083.0,18554133.0,2050.0,7,R,18553614,18554390,778,1416.9,617.4,4786,right
35,1,continuous,8,8,fixationCross,18557433.0,18559850.0,2417.0,8,R,18554664,18555144,482,799.0,486.0,5097,NA
35,1,continuous,8,8,fixationCross,18557433.0,18559850.0,2417.0,8,R,18555164,18555586,424,712.7,523.3,4690,left
35,1,continuous,8,8,fixationCross,18557433.0,18559850.0,2417.0,8,R,18555618,18556832,1216,644.6,507.2,5077,left
35,1,continuous,8,8,fixationCross,18557433.0,18559850.0,2417.0,8,R,18556850,18557120,272,754.7,511.0,5207,NA
35,1,continuous,8,8,trial,18557433.0,18559850.0,2417.0,8,R,18557148,18557652,506,949.9,558.9,5285,NA
35,1,continuous,8,8,trial,18557433.0,18559850.0,2417.0,8,R,18557710,18558150,442,481.2,574.7,4880,left
35,1,continuous,8,8,trial,18557433.0,18559850.0,2417.0,8,R,18558160,18558980,822,457.8,545.2,4722,left
35,1,continuous,8,8,trial,18557433.0,18559850.0,2417.0,8,R,18558994,18559228,236,495.2,543.0,4909,left
35,1,continuous,8,8,postResponse,18557433.0,18559850.0,2417.0,8,R,18559250,18560170,922,461.5,544.2,4825,left
35,1,continuous,9,8,trial,18560783.0,18563717.0,2934.0,9,R,18560362,18560948,588,878.2,493.0,4991,NA
35,1,continuous,9,8,trial,18560783.0,18563717.0,2934.0,9,R,18560986,18561260,276,589.7,508.7,4447,left
35,1,continuous,9,8,trial,18560783.0,18563717.0,2934.0,9,R,18561280,18561582,304,481.7,544.0,4458,left
35,1,continuous,9,8,trial,18560783.0,18563717.0,2934.0,9,R,18561604,18561756,154,298.8,512.5,4412,left
35,1,continuous,9,8,trial,18560783.0,18563717.0,2934.0,9,R,18561850,18562074,226,1451.5,470.6,4302,right
35,1,continuous,9,8,trial,18560783.0,18563717.0,2934.0,9,R,18562094,18562382,290,1404.7,421.3,4304,right
35,1,continuous,9,8,trial,18560783.0,18563717.0,2934.0,9,R,18562466,18563710,1246,375.2,551.2,4741,left
35,1,continuous,9,8,trial,18560783.0,18563717.0,2934.0,9,R,18563734,18564028,296,428.7,574.2,5030,left
35,1,continuous,10,87,fixationCross,18566950.0,18568817.0,1867.0,10,R,18564184,18564684,502,489.2,466.8,5213,left
35,1,continuous,10,87,fixationCross,18566950.0,18568817.0,1867.0,10,R,18564726,18564996,272,626.9,656.0,4806,left
35,1,continuous,10,87,fixationCross,18566950.0,18568817.0,1867.0,10,R,18565022,18565966,946,688.6,538.7,4926,left
35,1,continuous,10,87,fixationCross,18566950.0,18568817.0,1867.0,10,R,18565984,18566622,640,665.3,497.2,4971,left
35,1,continuous,10,87,fixationCross,18566950.0,18568817.0,1867.0,10,R,18566688,18566864,178,909.9,528.1,5079,NA
35,1,continuous,10,87,trial,18566950.0,18568817.0,1867.0,10,R,18566890,18567110,222,950.7,546.7,5172,NA
35,1,continuous,10,87,trial,18566950.0,18568817.0,1867.0,10,R,18567158,18567470,314,613.2,509.4,4767,left
35,1,continuous,10,87,trial,18566950.0,18568817.0,1867.0,10,R,18567548,18567804,258,1428.7,517.5,3959,right
35,1,continuous,10,87,trial,18566950.0,18568817.0,1867.0,10,R,18567822,18568088,268,1508.7,517.6,3945,right
35,1,continuous,10,87,trial,18566950.0,18568817.0,1867.0,10,R,18568110,18568756,648,1509.1,446.0,4135,right
35,1,continuous,10,87,trial,18566950.0,18568817.0,1867.0,10,R,18568798,18569096,300,1294.8,427.1,4462,right
35,1,continuous,11,14,fixationCross,18571850.0,18574666.0,2816.0,11,R,18569376,18570246,872,776.4,534.2,4916,NA
35,1,continuous,11,14,fixationCross,18571850.0,18574666.0,2816.0,11,R,18570266,18571560,1296,783.2,480.6,5042,NA
35,1,continuous,11,14,trial,18571850.0,18574666.0,2816.0,11,R,18571586,18571896,312,927.3,531.7,5181,NA
35,1,continuous,11,14,trial,18571850.0,18574666.0,2816.0,11,R,18571918,18572042,126,954.6,548.5,5157,NA
35,1,continuous,11,14,trial,18571850.0,18574666.0,2816.0,11,R,18572102,18572388,288,600.3,520.3,4927,left
35,1,continuous,11,14,trial,18571850.0,18574666.0,2816.0,11,R,18572406,18572652,248,548.3,518.2,4588,left
35,1,continuous,11,14,trial,18571850.0,18574666.0,2816.0,11,R,18572722,18572916,196,1389.0,508.8,4414,right
35,1,continuous,11,14,trial,18571850.0,18574666.0,2816.0,11,R,18572940,18573138,200,1431.1,532.9,4443,right
35,1,continuous,11,14,trial,18571850.0,18574666.0,2816.0,11,R,18573226,18573690,466,524.7,575.3,4464,left
35,1,continuous,11,14,trial,18571850.0,18574666.0,2816.0,11,R,18573710,18573990,282,470.4,550.3,4402,left
35,1,continuous,11,14,trial,18571850.0,18574666.0,2816.0,11,R,18574014,18574226,214,426.7,545.4,4508,left
35,1,continuous,11,14,trial,18571850.0,18574666.0,2816.0,11,R,18574246,18574930,686,398.4,569.8,4609,left
35,1,continuous,12,26,fixationCross,18577000.0,18579883.0,2883.0,12,R,18575178,18575936,760,449.1,619.3,4935,left
35,1,continuous,12,26,fixationCross,18577000.0,18579883.0,2883.0,12,R,18576000,18576704,706,795.9,543.5,4947,NA
35,1,continuous,12,26,trial,18577000.0,18579883.0,2883.0,12,R,18576726,18577126,402,885.0,556.3,4941,NA
35,1,continuous,12,26,trial,18577000.0,18579883.0,2883.0,12,R,18577176,18577548,374,553.8,586.8,4858,left
35,1,continuous,12,26,trial,18577000.0,18579883.0,2883.0,12,R,18577638,18577828,192,1515.3,439.4,4241,right
35,1,continuous,12,26,trial,18577000.0,18579883.0,2883.0,12,R,18577850,18578094,246,1572.0,406.2,4240,right
35,1,continuous,12,26,trial,18577000.0,18579883.0,2883.0,12,R,18578178,18578430,254,531.3,615.5,4538,left
35,1,continuous,12,26,trial,18577000.0,18579883.0,2883.0,12,R,18578462,18578646,186,359.2,504.8,4479,left
35,1,continuous,12,26,trial,18577000.0,18579883.0,2883.0,12,R,18578664,18580076,1414,281.5,483.9,4488,left
35,1,continuous,13,15,fixationCross,18581250.0,18584150.0,2900.0,13,R,18580332,18580512,182,874.1,539.3,4765,NA
35,1,continuous,13,15,fixationCross,18581250.0,18584150.0,2900.0,13,R,18580810,18581014,206,877.3,612.0,4963,NA
35,1,continuous,13,15,trial,18581250.0,18584150.0,2900.0,13,R,18581038,18581378,342,889.2,557.8,4782,NA
35,1,continuous,13,15,trial,18581250.0,18584150.0,2900.0,13,R,18581432,18581638,208,559.7,516.8,4520,left
35,1,continuous,13,15,trial,18581250.0,18584150.0,2900.0,13,R,18581660,18581864,206,624.9,520.2,4348,left
35,1,continuous,13,15,trial,18581250.0,18584150.0,2900.0,13,R,18581934,18582404,472,1411.4,447.7,4105,right
35,1,continuous,13,15,trial,18581250.0,18584150.0,2900.0,13,R,18582492,18582824,334,571.8,565.6,4517,left
35,1,continuous,13,15,trial,18581250.0,18584150.0,2900.0,13,R,18582840,18583274,436,579.3,506.6,4426,left
35,1,continuous,13,15,trial,18581250.0,18584150.0,2900.0,13,R,18583310,18583748,440,519.6,572.3,4558,left
35,1,continuous,13,15,trial,18581250.0,18584150.0,2900.0,13,R,18583788,18584052,266,427.8,434.3,4446,left
35,1,continuous,13,15,trial,18581250.0,18584150.0,2900.0,13,R,18584070,18584238,170,416.7,404.2,4470,left
35,1,continuous,13,15,postResponse,18581250.0,18584150.0,2900.0,13,R,18584252,18584486,236,388.8,393.1,4420,left
35,1,continuous,14,25,fixationCross,18587134.0,18591584.0,4450.0,14,R,18584740,18585772,1034,456.5,449.9,4726,left
35,1,continuous,14,25,fixationCross,18587134.0,18591584.0,4450.0,14,R,18585806,18586656,852,582.6,478.7,4975,left
35,1,continuous,14,25,fixationCross,18587134.0,18591584.0,4450.0,14,R,18586678,18586838,162,675.5,488.1,5059,left
35,1,continuous,14,25,trial,18587134.0,18591584.0,4450.0,14,R,18586870,18587280,412,942.7,545.6,5094,NA
35,1,continuous,14,25,trial,18587134.0,18591584.0,4450.0,14,R,18587328,18587462,136,583.5,534.1,5039,left
35,1,continuous,14,25,trial,18587134.0,18591584.0,4450.0,14,R,18587484,18587742,260,522.9,524.5,4580,left
35,1,continuous,14,25,trial,18587134.0,18591584.0,4450.0,14,R,18587760,18587876,118,585.2,542.8,4328,left
35,1,continuous,14,25,trial,18587134.0,18591584.0,4450.0,14,R,18587952,18588472,522,1484.1,519.8,4273,right
35,1,continuous,14,25,trial,18587134.0,18591584.0,4450.0,14,R,18588536,18588644,110,774.7,518.8,4449,NA
35,1,continuous,14,25,trial,18587134.0,18591584.0,4450.0,14,R,18588680,18588880,202,581.4,559.3,4568,left
35,1,continuous,14,25,trial,18587134.0,18591584.0,4450.0,14,R,18588906,18589078,174,532.9,530.6,4596,left
35,1,continuous,14,25,trial,18587134.0,18591584.0,4450.0,14,R,18589104,18589216,114,484.4,513.5,4550,left
35,1,continuous,14,25,trial,18587134.0,18591584.0,4450.0,14,R,18589240,18589458,220,446.2,515.3,4448,left
35,1,continuous,14,25,trial,18587134.0,18591584.0,4450.0,14,R,18589482,18589866,386,553.9,617.2,4606,left
35,1,continuous,14,25,trial,18587134.0,18591584.0,4450.0,14,R,18589890,18590044,156,612.2,624.7,4876,left
35,1,continuous,14,25,trial,18587134.0,18591584.0,4450.0,14,R,18590098,18590240,144,791.9,964.5,4856,likertHorizontal
35,1,continuous,14,25,trial,18587134.0,18591584.0,4450.0,14,R,18590258,18590596,340,835.0,981.0,4899,likertHorizontal
35,1,continuous,14,25,trial,18587134.0,18591584.0,4450.0,14,R,18590618,18591098,482,710.9,968.4,4813,NA
35,1,continuous,14,25,trial,18587134.0,18591584.0,4450.0,14,R,18591274,18591504,232,581.5,603.7,4882,left
35,1,continuous,14,25,postResponse,18587134.0,18591584.0,4450.0,14,R,18591526,18591930,406,555.7,532.8,4715,left
35,1,continuous,15,77,fixationCross,18596534.0,18600783.0,4249.0,15,R,18592006,18593666,1662,562.8,536.5,4956,left
35,1,continuous,15,77,fixationCross,18596534.0,18600783.0,4249.0,15,R,18593690,18594242,554,799.6,531.0,4981,NA
35,1,continuous,15,77,fixationCross,18596534.0,18600783.0,4249.0,15,R,18594264,18594922,660,710.2,501.8,4843,left
35,1,continuous,15,77,fixationCross,18596534.0,18600783.0,4249.0,15,R,18595104,18596214,1112,731.1,475.3,4644,left
35,1,continuous,15,77,fixationCross,18596534.0,18600783.0,4249.0,15,R,18596254,18596368,116,930.6,517.9,4873,NA
35,1,continuous,15,77,trial,18596534.0,18600783.0,4249.0,15,R,18596388,18596806,420,959.2,551.1,4919,NA
35,1,continuous,15,77,trial,18596534.0,18600783.0,4249.0,15,R,18596866,18597238,374,587.7,529.0,4542,left
35,1,continuous,15,77,trial,18596534.0,18600783.0,4249.0,15,R,18597254,18597544,292,496.1,538.9,4305,left
35,1,continuous,15,77,trial,18596534.0,18600783.0,4249.0,15,R,18597628,18598558,932,1477.8,559.6,4149,right
35,1,continuous,15,77,trial,18596534.0,18600783.0,4249.0,15,R,18598584,18599020,438,1320.5,496.7,4359,right
35,1,continuous,15,77,trial,18596534.0,18600783.0,4249.0,15,R,18599042,18599476,436,1423.8,611.2,4503,right
35,1,continuous,15,77,trial,18596534.0,18600783.0,4249.0,15,R,18599518,18599890,374,1356.6,405.2,4398,right
35,1,continuous,15,77,postResponse,18596534.0,18600783.0,4249.0,15,R,18599918,18601132,1216,1317.9,630.9,4582,right
35,1,continuous,16,14,fixationCross,18602284.0,18606500.0,4216.0,16,R,18601232,18601366,136,1324.4,638.8,4731,right
35,1,continuous,16,14,fixationCross,18602284.0,18606500.0,4216.0,16,R,18601622,18602000,380,851.1,566.2,5177,NA
35,1,continuous,16,14,fixationCross,18602284.0,18606500.0,4216.0,16,R,18602016,18602160,146,908.4,548.4,4683,NA
35,1,continuous,16,14,trial,18602284.0,18606500.0,4216.0,16,R,18602170,18602444,276,941.6,535.5,4430,NA
35,1,continuous,16,14,trial,18602284.0,18606500.0,4216.0,16,R,18602500,18602870,372,556.9,519.8,4567,left
35,1,continuous,16,14,trial,18602284.0,18606500.0,4216.0,16,R,18602938,18603668,732,1395.2,514.0,4347,right
35,1,continuous,16,14,trial,18602284.0,18606500.0,4216.0,16,R,18603740,18604000,262,496.2,558.2,4405,left
35,1,continuous,16,14,trial,18602284.0,18606500.0,4216.0,16,R,18604024,18604782,760,451.7,540.8,4363,left
35,1,continuous,16,14,trial,18602284.0,18606500.0,4216.0,16,R,18604794,18605230,438,446.1,533.7,4455,left
35,1,continuous,16,14,trial,18602284.0,18606500.0,4216.0,16,R,18605240,18606686,1448,460.1,556.9,4744,left
35,1,continuous,17,2,fixationCross,18609250.0,18612451.0,3201.0,17,R,18606938,18607162,226,477.8,523.8,4973,left
35,1,continuous,17,2,fixationCross,18609250.0,18612451.0,3201.0,17,R,18607414,18608930,1518,668.3,514.8,4727,left
35,1,continuous,17,2,trial,18609250.0,18612451.0,3201.0,17,R,18608972,18609388,418,870.4,541.9,5027,NA
35,1,continuous,17,2,trial,18609250.0,18612451.0,3201.0,17,R,18609450,18609650,202,532.7,503.8,5045,left
35,1,continuous,17,2,trial,18609250.0,18612451.0,3201.0,17,R,18609682,18609884,204,478.3,504.3,4630,left
35,1,continuous,17,2,trial,18609250.0,18612451.0,3201.0,17,R,18609964,18610260,298,1367.1,545.8,4349,right
35,1,continuous,17,2,trial,18609250.0,18612451.0,3201.0,17,R,18610276,18610538,264,1450.3,547.4,4261,right
35,1,continuous,17,2,trial,18609250.0,18612451.0,3201.0,17,R,18610622,18610848,228,464.4,448.5,4354,left
35,1,continuous,17,2,trial,18609250.0,18612451.0,3201.0,17,R,18610888,18611210,324,430.3,525.0,4472,left
35,1,continuous,17,2,trial,18609250.0,18612451.0,3201.0,17,R,18611230,18611436,208,433.3,456.5,4544,left
35,1,continuous,17,2,trial,18609250.0,18612451.0,3201.0,17,R,18611456,18611646,192,370.1,469.6,4573,left
35,1,continuous,17,2,trial,18609250.0,18612451.0,3201.0,17,R,18611676,18611724,50,391.0,675.5,4649,left
35,1,continuous,17,2,trial,18609250.0,18612451.0,3201.0,17,R,18611784,18611938,156,477.0,996.2,4743,NA
35,1,continuous,17,2,trial,18609250.0,18612451.0,3201.0,17,R,18611956,18612704,750,448.0,987.3,4606,NA
35,1,continuous,18,18,fixationCross,18614734.0,18619284.0,4550.0,18,R,18612930,18613942,1014,646.3,220.2,4618,NA
35,1,continuous,18,18,fixationCross,18614734.0,18619284.0,4550.0,18,R,18613986,18614352,368,673.4,296.0,4736,NA
35,1,continuous,18,18,fixationCross,18614734.0,18619284.0,4550.0,18,R,18614396,18614416,22,792.1,493.2,4746,NA
35,1,continuous,18,18,fixationCross,18614734.0,18619284.0,4550.0,18,R,18614438,18614594,158,906.8,545.5,4723,NA
35,1,continuous,18,18,trial,18614734.0,18619284.0,4550.0,18,R,18614610,18614898,290,930.9,535.5,4796,NA
35,1,continuous,18,18,trial,18614734.0,18619284.0,4550.0,18,R,18614960,18615382,424,432.2,574.2,4417,left
35,1,continuous,18,18,trial,18614734.0,18619284.0,4550.0,18,R,18615456,18615690,236,1382.9,528.4,3972,right
35,1,continuous,18,18,trial,18614734.0,18619284.0,4550.0,18,R,18615714,18616340,628,1564.8,518.2,4184,right
35,1,continuous,18,18,trial,18614734.0,18619284.0,4550.0,18,R,18616426,18616678,254,435.9,589.9,4428,left
35,1,continuous,18,18,trial,18614734.0,18619284.0,4550.0,18,R,18616698,18617240,544,402.0,604.5,4326,left
35,1,continuous,18,18,trial,18614734.0,18619284.0,4550.0,18,R,18617260,18617720,462,442.1,509.3,4370,left
35,1,continuous,18,18,trial,18614734.0,18619284.0,4550.0,18,R,18617748,18619480,1734,433.3,628.9,4595,left
35,1,continuous,19,91,fixationCross,18622267.0,18627634.0,5367.0,19,R,18619732,18619770,40,422.1,503.6,4699,left
35,1,continuous,19,91,fixationCross,18622267.0,18627634.0,5367.0,19,R,18620070,18620676,608,490.2,463.8,4736,left
35,1,continuous,19,91,fixationCross,18622267.0,18627634.0,5367.0,19,R,18620686,18621312,628,536.2,439.7,4498,left
35,1,continuous,19,91,fixationCross,18622267.0,18627634.0,5367.0,19,R,18621324,18621806,484,568.2,473.4,4641,left
35,1,continuous,19,91,fixationCross,18622267.0,18627634.0,5367.0,19,R,18621832,18621952,122,737.0,484.7,4709,NA
35,1,continuous,19,91,fixationCross,18622267.0,18627634.0,5367.0,19,R,18621980,18622206,228,936.5,552.3,4720,NA
35,1,continuous,19,91,trial,18622267.0,18627634.0,5367.0,19,R,18622216,18622620,406,957.8,554.5,4761,NA
35,1,continuous,19,91,trial,18622267.0,18627634.0,5367.0,19,R,18622656,18623010,356,1254.9,603.7,4242,right
35,1,continuous,19,91,trial,18622267.0,18627634.0,5367.0,19,R,18623038,18623974,938,1502.1,527.2,3920,right
35,1,continuous,19,91,trial,18622267.0,18627634.0,5367.0,19,R,18624062,18624356,296,464.6,626.8,4071,left
35,1,continuous,19,91,trial,18622267.0,18627634.0,5367.0,19,R,18624376,18624652,278,404.1,590.7,4075,left
35,1,continuous,19,91,trial,18622267.0,18627634.0,5367.0,19,R,18624662,18624760,100,409.4,562.4,4023,left
35,1,continuous,19,91,trial,18622267.0,18627634.0,5367.0,19,R,18624836,18625096,262,1369.0,610.2,3996,right
35,1,continuous,19,91,trial,18622267.0,18627634.0,5367.0,19,R,18625116,18625370,256,1316.8,607.0,4061,right
35,1,continuous,19,91,trial,18622267.0,18627634.0,5367.0,19,R,18625402,18625828,428,1497.5,533.9,4005,right
35,1,continuous,19,91,trial,18622267.0,18627634.0,5367.0,19,R,18625896,18626224,330,1328.4,955.3,4277,NA
35,1,continuous,19,91,trial,18622267.0,18627634.0,5367.0,19,R,18626256,18626448,194,1437.8,981.2,4251,NA
35,1,continuous,19,91,trial,18622267.0,18627634.0,5367.0,19,R,18626484,18626746,264,1309.4,738.6,4323,NA
35,1,continuous,19,91,trial,18622267.0,18627634.0,5367.0,19,R,18626766,18626976,212,1323.5,617.6,4393,right
35,1,continuous,19,91,postResponse,18622267.0,18627634.0,5367.0,19,R,18627014,18627968,956,1498.6,534.0,4219,right
35,1,continuous,20,97,fixationCross,18628817.0,18632233.0,3416.0,20,R,18628216,18628516,302,1089.6,578.2,4653,NA
35,1,continuous,20,97,trial,18628817.0,18632233.0,3416.0,20,R,18628542,18629036,496,949.4,526.7,4435,NA
35,1,continuous,20,97,trial,18628817.0,18632233.0,3416.0,20,R,18629094,18629402,310,579.2,535.8,4449,left
35,1,continuous,20,97,trial,18628817.0,18632233.0,3416.0,20,R,18629426,18629772,348,452.6,503.1,4294,left
35,1,continuous,20,97,trial,18628817.0,18632233.0,3416.0,20,R,18629856,18630200,346,1478.3,512.9,4051,right
35,1,continuous,20,97,trial,18628817.0,18632233.0,3416.0,20,R,18630216,18630936,722,1542.2,489.8,4165,right
35,1,continuous,20,97,trial,18628817.0,18632233.0,3416.0,20,R,18631008,18631384,378,1382.8,910.3,4491,NA
35,1,continuous,20,97,trial,18628817.0,18632233.0,3416.0,20,R,18631422,18631928,508,1461.3,702.5,4369,right
35,1,continuous,20,97,trial,18628817.0,18632233.0,3416.0,20,R,18631952,18632436,486,1495.6,580.5,4334,right
35,1,continuous,21,13,fixationCross,18633600.0,18637001.0,3401.0,21,R,18632718,18633280,564,1371.0,433.9,4485,right
35,1,continuous,21,13,fixationCross,18633600.0,18637001.0,3401.0,21,R,18633336,18633508,174,978.7,475.1,4224,NA
35,1,continuous,21,13,trial,18633600.0,18637001.0,3401.0,21,R,18633532,18633766,236,950.7,520.4,4387,NA
35,1,continuous,21,13,trial,18633600.0,18637001.0,3401.0,21,R,18633826,18634028,204,491.3,538.2,4493,left
35,1,continuous,21,13,trial,18633600.0,18637001.0,3401.0,21,R,18634048,18634230,184,467.9,510.6,4415,left
35,1,continuous,21,13,trial,18633600.0,18637001.0,3401.0,21,R,18634304,18634452,150,1279.6,518.0,4211,right
35,1,continuous,21,13,trial,18633600.0,18637001.0,3401.0,21,R,18634478,18634750,274,1365.3,528.5,4280,right
35,1,continuous,21,13,trial,18633600.0,18637001.0,3401.0,21,R,18634770,18635064,296,1402.9,497.9,4362,right
35,1,continuous,21,13,trial,18633600.0,18637001.0,3401.0,21,R,18635154,18635380,228,533.8,573.0,4592,left
35,1,continuous,21,13,trial,18633600.0,18637001.0,3401.0,21,R,18635400,18635704,306,461.5,501.2,4530,left
35,1,continuous,21,13,trial,18633600.0,18637001.0,3401.0,21,R,18635720,18635886,168,463.3,541.5,4509,left
35,1,continuous,21,13,trial,18633600.0,18637001.0,3401.0,21,R,18635904,18636212,310,483.6,586.6,4533,left
35,1,continuous,21,13,trial,18633600.0,18637001.0,3401.0,21,R,18636230,18636852,624,510.0,633.3,4591,left
35,1,continuous,21,13,postResponse,18633600.0,18637001.0,3401.0,21,R,18636866,18637336,472,511.8,601.7,4540,left
35,1,continuous,22,18,fixationCross,18639584.0,18643518.0,3934.0,22,R,18637622,18639136,1516,558.8,156.9,4382,NA
35,1,continuous,22,18,fixationCross,18639584.0,18643518.0,3934.0,22,R,18639156,18639240,86,622.9,225.1,4512,NA
35,1,continuous,22,18,fixationCross,18639584.0,18643518.0,3934.0,22,R,18639320,18639494,176,915.2,501.0,4621,NA
35,1,continuous,22,18,trial,18639584.0,18643518.0,3934.0,22,R,18639506,18639752,248,930.1,521.6,4668,NA
35,1,continuous,22,18,trial,18639584.0,18643518.0,3934.0,22,R,18639798,18640072,276,570.3,485.9,4529,left
35,1,continuous,22,18,trial,18639584.0,18643518.0,3934.0,22,R,18640094,18640546,454,456.2,500.5,4380,left
35,1,continuous,22,18,trial,18639584.0,18643518.0,3934.0,22,R,18640568,18641328,762,568.1,488.3,4537,left
35,1,continuous,22,18,trial,18639584.0,18643518.0,3934.0,22,R,18641418,18642348,932,1330.8,507.2,4439,right
35,1,continuous,22,18,trial,18639584.0,18643518.0,3934.0,22,R,18642414,18642644,232,717.9,468.8,4467,left
35,1,continuous,22,18,trial,18639584.0,18643518.0,3934.0,22,R,18642678,18643070,394,600.0,467.1,4627,left
35,1,continuous,22,18,postResponse,18639584.0,18643518.0,3934.0,22,R,18643092,18643864,774,498.3,477.6,4541,left
35,1,continuous,23,93,fixationCross,18646518.0,18650151.0,3633.0,23,R,18643964,18644202,240,502.2,487.0,4835,left
35,1,continuous,23,93,fixationCross,18646518.0,18650151.0,3633.0,23,R,18644444,18645556,1114,535.5,528.9,4634,left
35,1,continuous,23,93,fixationCross,18646518.0,18650151.0,3633.0,23,R,18645602,18645976,376,751.0,512.5,4720,NA
35,1,continuous,23,93,fixationCross,18646518.0,18650151.0,3633.0,23,R,18645996,18646212,218,846.7,513.0,4798,NA
35,1,continuous,23,93,trial,18646518.0,18650151.0,3633.0,23,R,18646238,18646660,424,916.8,536.0,4865,NA
35,1,continuous,23,93,trial,18646518.0,18650151.0,3633.0,23,R,18646714,18646872,160,546.8,502.1,4751,left
35,1,continuous,23,93,trial,18646518.0,18650151.0,3633.0,23,R,18646898,18647246,350,424.6,466.0,4252,left
35,1,continuous,23,93,trial,18646518.0,18650151.0,3633.0,23,R,18647268,18647456,190,540.1,481.3,3988,left
35,1,continuous,23,93,trial,18646518.0,18650151.0,3633.0,23,R,18647528,18647908,382,1338.3,521.4,3966,right
35,1,continuous,23,93,trial,18646518.0,18650151.0,3633.0,23,R,18647924,18648254,332,1422.9,511.7,3943,right
35,1,continuous,23,93,trial,18646518.0,18650151.0,3633.0,23,R,18648272,18648580,310,1396.7,558.6,4034,right
35,1,continuous,23,93,trial,18646518.0,18650151.0,3633.0,23,R,18648612,18648956,346,1363.8,799.5,4194,NA
35,1,continuous,23,93,trial,18646518.0,18650151.0,3633.0,23,R,18648978,18649308,332,1394.7,708.3,4303,right
35,1,continuous,23,93,trial,18646518.0,18650151.0,3633.0,23,R,18649638,18649772,136,1330.4,520.8,4278,right
35,1,continuous,23,93,trial,18646518.0,18650151.0,3633.0,23,R,18649782,18649998,218,1365.3,520.3,4192,right
35,1,continuous,23,93,trial,18646518.0,18650151.0,3633.0,23,R,18650012,18650340,330,1421.2,527.7,3960,right
35,1,continuous,24,85,fixationCross,18651784.0,18655801.0,4017.0,24,R,18650592,18651244,654,867.4,452.6,4543,NA
35,1,continuous,24,85,fixationCross,18651784.0,18655801.0,4017.0,24,R,18651268,18651614,348,934.7,644.5,4521,NA
35,1,continuous,24,85,trial,18651784.0,18655801.0,4017.0,24,R,18651638,18651966,330,935.6,537.1,4674,NA
35,1,continuous,24,85,trial,18651784.0,18655801.0,4017.0,24,R,18652016,18652268,254,495.0,503.6,4597,left
35,1,continuous,24,85,trial,18651784.0,18655801.0,4017.0,24,R,18652346,18652610,266,1387.5,532.8,4137,right
35,1,continuous,24,85,trial,18651784.0,18655801.0,4017.0,24,R,18652624,18652826,204,1337.1,522.1,4125,right
35,1,continuous,24,85,trial,18651784.0,18655801.0,4017.0,24,R,18652862,18653306,446,1558.1,524.7,4122,right
35,1,continuous,24,85,trial,18651784.0,18655801.0,4017.0,24,R,18653330,18653622,294,1574.2,491.1,4272,right
35,1,continuous,24,85,trial,18651784.0,18655801.0,4017.0,24,R,18653646,18654210,566,1622.8,568.4,4328,right
35,1,continuous,24,85,trial,18651784.0,18655801.0,4017.0,24,R,18654220,18654532,314,1612.2,584.9,4336,right
35,1,continuous,24,85,trial,18651784.0,18655801.0,4017.0,24,R,18654542,18654754,214,1585.1,552.6,4391,right
35,1,continuous,24,85,trial,18651784.0,18655801.0,4017.0,24,R,18654764,18655070,308,1614.8,568.2,4390,right
35,1,continuous,24,85,trial,18651784.0,18655801.0,4017.0,24,R,18655110,18655278,170,1388.5,550.4,4577,right
35,1,continuous,24,85,trial,18651784.0,18655801.0,4017.0,24,R,18655304,18655706,404,1309.3,537.8,4481,right
35,1,continuous,24,85,trial,18651784.0,18655801.0,4017.0,24,R,18655722,18656002,282,1348.4,570.5,4382,right
35,1,continuous,25,100,fixationCross,18657184.0,18662017.0,4833.0,25,R,18656252,18656678,428,1218.2,471.0,4758,right
35,1,continuous,25,100,fixationCross,18657184.0,18662017.0,4833.0,25,R,18656916,18657148,234,870.6,550.0,4551,NA
35,1,continuous,25,100,trial,18657184.0,18662017.0,4833.0,25,R,18657168,18657396,230,900.3,535.4,4678,NA
35,1,continuous,25,100,trial,18657184.0,18662017.0,4833.0,25,R,18657446,18658010,566,479.3,489.5,4394,left
35,1,continuous,25,100,trial,18657184.0,18662017.0,4833.0,25,R,18658074,18658344,272,1294.4,472.9,4275,right
35,1,continuous,25,100,trial,18657184.0,18662017.0,4833.0,25,R,18658368,18658620,254,1363.1,537.2,4450,right
35,1,continuous,25,100,trial,18657184.0,18662017.0,4833.0,25,R,18658634,18658838,206,1366.8,502.3,4498,right
35,1,continuous,25,100,trial,18657184.0,18662017.0,4833.0,25,R,18658928,18659318,392,499.5,543.8,4625,left
35,1,continuous,25,100,trial,18657184.0,18662017.0,4833.0,25,R,18659336,18659678,344,408.3,534.6,4436,left
35,1,continuous,25,100,trial,18657184.0,18662017.0,4833.0,25,R,18659694,18659798,106,332.1,537.2,4442,left
35,1,continuous,25,100,trial,18657184.0,18662017.0,4833.0,25,R,18659880,18660246,368,1502.4,530.8,4375,right
35,1,continuous,25,100,trial,18657184.0,18662017.0,4833.0,25,R,18660270,18660692,424,1380.9,515.9,4591,right
35,1,continuous,25,100,trial,18657184.0,18662017.0,4833.0,25,R,18660720,18661620,902,1554.6,650.9,4597,right
35,1,continuous,25,100,trial,18657184.0,18662017.0,4833.0,25,R,18661666,18662286,622,1444.9,960.9,4802,NA
35,1,continuous,26,82,fixationCross,18689617.0,18692984.0,3367.0,26,R,18688783,18689085,304,194.1,59.1,4863,NA
35,1,continuous,26,82,fixationCross,18689617.0,18692984.0,3367.0,26,R,18689149,18689307,160,741.5,325.4,4375,NA
35,1,continuous,26,82,trial,18689617.0,18692984.0,3367.0,26,R,18689355,18689673,320,936.4,529.7,4742,NA
35,1,continuous,26,82,trial,18689617.0,18692984.0,3367.0,26,R,18689695,18689923,230,954.8,537.0,4867,NA
35,1,continuous,26,82,trial,18689617.0,18692984.0,3367.0,26,R,18689975,18690105,132,585.7,488.0,4491,left
35,1,continuous,26,82,trial,18689617.0,18692984.0,3367.0,26,R,18690127,18690307,182,478.9,468.1,4348,left
35,1,continuous,26,82,trial,18689617.0,18692984.0,3367.0,26,R,18690471,18690547,78,476.4,474.1,4134,left
35,1,continuous,26,82,trial,18689617.0,18692984.0,3367.0,26,R,18690631,18691081,452,1464.0,533.6,4113,right
35,1,continuous,26,82,trial,18689617.0,18692984.0,3367.0,26,R,18691097,18691389,294,1418.3,519.1,4015,right
35,1,continuous,26,82,trial,18689617.0,18692984.0,3367.0,26,R,18691481,18691729,250,476.8,497.3,4331,left
35,1,continuous,26,82,trial,18689617.0,18692984.0,3367.0,26,R,18691809,18692277,470,1295.1,914.4,4351,NA
35,1,continuous,26,82,trial,18689617.0,18692984.0,3367.0,26,R,18692481,18693213,734,1346.9,650.2,4482,right
35,1,continuous,27,96,fixationCross,18696535.0,18699902.0,3367.0,27,R,18693477,18693903,428,605.3,424.3,4712,left
35,1,continuous,27,96,fixationCross,18696535.0,18699902.0,3367.0,27,R,18693941,18694223,284,811.7,499.2,4361,NA
35,1,continuous,27,96,fixationCross,18696535.0,18699902.0,3367.0,27,R,18694237,18694675,440,853.0,503.8,4557,NA
35,1,continuous,27,96,fixationCross,18696535.0,18699902.0,3367.0,27,R,18694709,18695247,540,760.8,463.2,4890,NA
35,1,continuous,27,96,fixationCross,18696535.0,18699902.0,3367.0,27,R,18695265,18695827,564,698.0,455.7,4898,left
35,1,continuous,27,96,fixationCross,18696535.0,18699902.0,3367.0,27,R,18696069,18696233,166,778.5,490.9,4967,NA
35,1,continuous,27,96,fixationCross,18696535.0,18699902.0,3367.0,27,R,18696255,18696429,176,902.0,547.6,4974,NA
35,1,continuous,27,96,trial,18696535.0,18699902.0,3367.0,27,R,18696449,18696701,254,941.7,543.8,4593,NA
35,1,continuous,27,96,trial,18696535.0,18699902.0,3367.0,27,R,18696759,18697181,424,543.9,555.0,4436,left
35,1,continuous,27,96,trial,18696535.0,18699902.0,3367.0,27,R,18697257,18698359,1104,1422.4,458.6,4224,right
35,1,continuous,27,96,trial,18696535.0,18699902.0,3367.0,27,R,18698385,18698655,272,1476.4,524.6,4577,right
35,1,continuous,27,96,trial,18696535.0,18699902.0,3367.0,27,R,18698675,18699193,520,1564.2,587.3,4458,right
35,1,continuous,27,96,trial,18696535.0,18699902.0,3367.0,27,R,18699247,18699865,620,1386.8,951.7,4331,NA
35,1,continuous,28,1,fixationCross,18701202.0,18704501.0,3299.0,28,R,18700593,18700845,254,398.1,303.5,4805,NA
35,1,continuous,28,1,fixationCross,18701202.0,18704501.0,3299.0,28,R,18700917,18701047,132,872.4,504.0,4660,NA
35,1,continuous,28,1,trial,18701202.0,18704501.0,3299.0,28,R,18701073,18701339,268,944.2,518.6,4304,NA
35,1,continuous,28,1,trial,18701202.0,18704501.0,3299.0,28,R,18701397,18701863,468,523.2,465.3,4418,left
35,1,continuous,28,1,trial,18701202.0,18704501.0,3299.0,28,R,18701951,18702205,256,1369.0,487.8,4268,right
35,1,continuous,28,1,trial,18701202.0,18704501.0,3299.0,28,R,18702227,18702719,494,1419.0,484.4,4375,right
35,1,continuous,28,1,trial,18701202.0,18704501.0,3299.0,28,R,18702807,18703081,276,513.4,561.6,4686,left
35,1,continuous,28,1,trial,18701202.0,18704501.0,3299.0,28,R,18703103,18703341,240,481.7,522.1,4512,left
35,1,continuous,28,1,trial,18701202.0,18704501.0,3299.0,28,R,18703355,18703473,120,466.6,477.9,4364,left
35,1,continuous,28,1,trial,18701202.0,18704501.0,3299.0,28,R,18703495,18704405,912,393.8,469.9,4621,left
35,1,continuous,28,1,trial,18701202.0,18704501.0,3299.0,28,R,18704487,18704705,220,451.7,933.6,4877,NA
35,1,continuous,29,1,fixationCross,18707335.0,18710451.0,3116.0,29,R,18704969,18705601,634,762.2,405.3,4810,NA
35,1,continuous,29,1,fixationCross,18707335.0,18710451.0,3116.0,29,R,18705801,18707021,1222,768.8,407.7,4655,NA
35,1,continuous,29,1,trial,18707335.0,18710451.0,3116.0,29,R,18707049,18707499,452,917.1,502.7,4873,NA
35,1,continuous,29,1,trial,18707335.0,18710451.0,3116.0,29,R,18707551,18707823,274,528.2,507.4,4804,left
35,1,continuous,29,1,trial,18707335.0,18710451.0,3116.0,29,R,18707911,18708153,244,1410.8,463.9,4182,right
35,1,continuous,29,1,trial,18707335.0,18710451.0,3116.0,29,R,18708171,18708607,438,1437.4,495.5,4112,right
35,1,continuous,29,1,trial,18707335.0,18710451.0,3116.0,29,R,18708691,18709003,314,478.2,532.8,4377,left
35,1,continuous,29,1,trial,18707335.0,18710451.0,3116.0,29,R,18709025,18709459,436,416.6,478.9,4288,left
35,1,continuous,29,1,trial,18707335.0,18710451.0,3116.0,29,R,18709549,18709873,326,446.0,953.4,4441,NA
35,1,continuous,29,1,trial,18707335.0,18710451.0,3116.0,29,R,18709935,18710099,166,398.2,529.8,4433,left
35,1,continuous,29,1,trial,18707335.0,18710451.0,3116.0,29,R,18710185,18710687,504,450.6,1005.9,4437,NA
35,1,continuous,30,2,fixationCross,18711868.0,18714551.0,2683.0,30,R,18710925,18711541,618,566.4,235.9,4601,NA
35,1,continuous,30,2,trial,18711868.0,18714551.0,2683.0,30,R,18711593,18712005,414,931.9,517.5,4453,NA
35,1,continuous,30,2,trial,18711868.0,18714551.0,2683.0,30,R,18712067,18712407,342,581.2,488.8,4581,left
35,1,continuous,30,2,trial,18711868.0,18714551.0,2683.0,30,R,18712493,18712843,352,1410.8,552.6,4188,right
35,1,continuous,30,2,trial,18711868.0,18714551.0,2683.0,30,R,18712933,18714357,1426,491.4,570.9,4536,left
35,1,continuous,30,2,trial,18711868.0,18714551.0,2683.0,30,R,18714379,18714565,188,556.4,534.4,4833,left
35,1,continuous,30,2,trial,18711868.0,18714551.0,2683.0,30,R,18714653,18714795,144,1399.9,517.9,4579,right
35,1,continuous,31,82,fixationCross,18715952.0,18719902.0,3950.0,31,R,18715039,18715109,72,982.0,8.7,4656,NA
35,1,continuous,31,82,fixationCross,18715952.0,18719902.0,3950.0,31,R,18715157,18715613,458,705.6,-4.2,4621,NA
35,1,continuous,31,82,trial,18715952.0,18719902.0,3950.0,31,R,18715697,18716087,392,895.9,509.2,4248,NA
35,1,continuous,31,82,trial,18715952.0,18719902.0,3950.0,31,R,18716155,18716407,254,517.7,500.8,4593,left
35,1,continuous,31,82,trial,18715952.0,18719902.0,3950.0,31,R,18716495,18716747,254,1447.2,502.9,4175,right
35,1,continuous,31,82,trial,18715952.0,18719902.0,3950.0,31,R,18716763,18717117,356,1483.8,455.8,4046,right
35,1,continuous,31,82,trial,18715952.0,18719902.0,3950.0,31,R,18717193,18717495,304,480.0,539.4,4252,left
35,1,continuous,31,82,trial,18715952.0,18719902.0,3950.0,31,R,18717511,18718037,528,437.6,484.0,4236,left
35,1,continuous,31,82,trial,18715952.0,18719902.0,3950.0,31,R,18718115,18718273,160,1370.8,489.6,4322,right
35,1,continuous,31,82,trial,18715952.0,18719902.0,3950.0,31,R,18718293,18718573,282,1438.7,506.7,4446,right
35,1,continuous,31,82,trial,18715952.0,18719902.0,3950.0,31,R,18718589,18719183,596,1461.6,465.9,4401,right
35,1,continuous,31,82,trial,18715952.0,18719902.0,3950.0,31,R,18719203,18719483,282,1442.4,506.6,4660,right
35,1,continuous,31,82,trial,18715952.0,18719902.0,3950.0,31,R,18719501,18720123,624,1404.6,556.5,4524,right
35,1,continuous,32,100,fixationCross,18722552.0,18726168.0,3616.0,32,R,18720403,18721445,1044,829.7,488.3,4791,NA
35,1,continuous,32,100,fixationCross,18722552.0,18726168.0,3616.0,32,R,18721469,18721945,478,709.3,457.7,5009,left
35,1,continuous,32,100,fixationCross,18722552.0,18726168.0,3616.0,32,R,18722127,18722243,118,698.2,398.5,4925,left
35,1,continuous,32,100,trial,18722552.0,18726168.0,3616.0,32,R,18722287,18722695,410,889.8,519.7,4957,NA
35,1,continuous,32,100,trial,18722552.0,18726168.0,3616.0,32,R,18722749,18723021,274,596.4,538.4,4678,left
35,1,continuous,32,100,trial,18722552.0,18726168.0,3616.0,32,R,18723091,18723263,174,1417.0,469.9,4306,right
35,1,continuous,32,100,trial,18722552.0,18726168.0,3616.0,32,R,18723281,18723853,574,1437.3,416.9,4280,right
35,1,continuous,32,100,trial,18722552.0,18726168.0,3616.0,32,R,18723871,18724357,488,1497.7,448.5,4302,right
35,1,continuous,32,100,trial,18722552.0,18726168.0,3616.0,32,R,18724379,18724577,200,1472.2,530.3,4380,right
35,1,continuous,32,100,postResponse,18722552.0,18726168.0,3616.0,32,R,18724595,18726503,1910,1428.8,561.6,4639,right
35,1,continuous,33,10,fixationCross,18728635.0,18733402.0,4767.0,33,R,18726603,18726675,74,1425.8,568.1,4749,right
35,1,continuous,33,10,fixationCross,18728635.0,18733402.0,4767.0,33,R,18726927,18728091,1166,813.7,401.2,4663,NA
35,1,continuous,33,10,fixationCross,18728635.0,18733402.0,4767.0,33,R,18728109,18728311,204,833.8,453.1,4742,NA
35,1,continuous,33,10,trial,18728635.0,18733402.0,4767.0,33,R,18728349,18728771,424,954.6,528.3,4903,NA
35,1,continuous,33,10,trial,18728635.0,18733402.0,4767.0,33,R,18728821,18728977,158,600.6,539.0,4897,left
35,1,continuous,33,10,trial,18728635.0,18733402.0,4767.0,33,R,18729001,18729153,154,563.4,552.5,4725,left
35,1,continuous,33,10,trial,18728635.0,18733402.0,4767.0,33,R,18729177,18729327,152,453.7,525.9,4467,left
35,1,continuous,33,10,trial,18728635.0,18733402.0,4767.0,33,R,18729349,18729605,258,545.0,567.2,4291,left
35,1,continuous,33,10,trial,18728635.0,18733402.0,4767.0,33,R,18729627,18729967,342,467.2,546.5,4235,left
35,1,continuous,33,10,trial,18728635.0,18733402.0,4767.0,33,R,18730049,18730299,252,1374.5,461.1,4255,right
35,1,continuous,33,10,trial,18728635.0,18733402.0,4767.0,33,R,18730321,18730663,344,1369.6,396.0,4332,right
35,1,continuous,33,10,trial,18728635.0,18733402.0,4767.0,33,R,18730689,18731219,532,1337.2,534.0,4366,right
35,1,continuous,33,10,trial,18728635.0,18733402.0,4767.0,33,R,18731299,18731525,228,529.1,524.1,4415,left
35,1,continuous,33,10,trial,18728635.0,18733402.0,4767.0,33,R,18731551,18731965,416,430.1,460.7,4459,left
35,1,continuous,33,10,trial,18728635.0,18733402.0,4767.0,33,R,18731991,18732475,486,464.5,540.7,4538,left
35,1,continuous,33,10,trial,18728635.0,18733402.0,4767.0,33,R,18732485,18733075,592,442.9,552.4,4551,left
35,1,continuous,33,10,trial,18728635.0,18733402.0,4767.0,33,R,18733109,18733573,466,389.7,513.7,4681,left
35,1,continuous,34,92,fixationCross,18734752.0,18739268.0,4516.0,34,R,18733849,18734413,566,620.8,376.7,4685,left
35,1,continuous,34,92,fixationCross,18734752.0,18739268.0,4516.0,34,R,18734471,18734623,154,924.8,539.8,4341,NA
35,1,continuous,34,92,trial,18734752.0,18739268.0,4516.0,34,R,18734635,18734917,284,946.7,537.7,4479,NA
35,1,continuous,34,92,trial,18734752.0,18739268.0,4516.0,34,R,18734981,18735269,290,579.4,536.4,4500,left
35,1,continuous,34,92,trial,18734752.0,18739268.0,4516.0,34,R,18735357,18735755,400,1530.7,527.9,4208,right
35,1,continuous,34,92,trial,18734752.0,18739268.0,4516.0,34,R,18735779,18736139,362,1465.8,588.4,4103,right
35,1,continuous,34,92,trial,18734752.0,18739268.0,4516.0,34,R,18736161,18736341,182,1590.6,497.6,4034,right
35,1,continuous,34,92,trial,18734752.0,18739268.0,4516.0,34,R,18736363,18736475,114,1592.4,461.9,3989,right
35,1,continuous,34,92,trial,18734752.0,18739268.0,4516.0,34,R,18736581,18736963,384,502.2,566.7,4232,left
35,1,continuous,34,92,trial,18734752.0,18739268.0,4516.0,34,R,18736989,18737249,262,430.8,560.4,4308,left
35,1,continuous,34,92,trial,18734752.0,18739268.0,4516.0,34,R,18737271,18737477,208,437.6,444.2,4392,left
35,1,continuous,34,92,trial,18734752.0,18739268.0,4516.0,34,R,18737499,18737657,160,424.6,409.8,4435,left
35,1,continuous,34,92,trial,18734752.0,18739268.0,4516.0,34,R,18737699,18737897,200,637.4,615.8,4495,left
35,1,continuous,34,92,trial,18734752.0,18739268.0,4516.0,34,R,18737911,18738155,246,624.1,557.8,4510,left
35,1,continuous,34,92,trial,18734752.0,18739268.0,4516.0,34,R,18738237,18738467,232,1304.7,946.5,4451,NA
35,1,continuous,34,92,trial,18734752.0,18739268.0,4516.0,34,R,18738521,18738883,364,1460.2,550.8,4316,right
35,1,continuous,34,92,trial,18734752.0,18739268.0,4516.0,34,R,18738909,18739463,556,1586.4,480.0,4173,right
35,1,continuous,35,89,fixationCross,18744086.0,18748935.0,4849.0,35,R,18739723,18740263,542,699.3,393.6,4575,left
35,1,continuous,35,89,fixationCross,18744086.0,18748935.0,4849.0,35,R,18740285,18741291,1008,794.1,483.1,4602,NA
35,1,continuous,35,89,fixationCross,18744086.0,18748935.0,4849.0,35,R,18741505,18743055,1552,730.2,438.7,4524,left
35,1,continuous,35,89,fixationCross,18744086.0,18748935.0,4849.0,35,R,18743275,18743765,492,801.1,445.2,4780,NA
35,1,continuous,35,89,trial,18744086.0,18748935.0,4849.0,35,R,18743791,18744303,514,908.3,499.1,4471,NA
35,1,continuous,35,89,trial,18744086.0,18748935.0,4849.0,35,R,18744347,18744745,400,567.7,470.6,4406,left
35,1,continuous,35,89,trial,18744086.0,18748935.0,4849.0,35,R,18744819,18745179,362,1427.9,483.9,4211,right
35,1,continuous,35,89,trial,18744086.0,18748935.0,4849.0,35,R,18745189,18745411,224,1454.7,480.1,4143,right
35,1,continuous,35,89,trial,18744086.0,18748935.0,4849.0,35,R,18745429,18745535,108,1456.1,524.7,4025,right
35,1,continuous,35,89,trial,18744086.0,18748935.0,4849.0,35,R,18745615,18746069,456,507.2,520.7,4164,left
35,1,continuous,35,89,trial,18744086.0,18748935.0,4849.0,35,R,18746087,18746433,348,580.8,482.3,4399,left
35,1,continuous,35,89,trial,18744086.0,18748935.0,4849.0,35,R,18746457,18746869,414,521.4,512.1,4575,left
35,1,continuous,35,89,postResponse,18744086.0,18748935.0,4849.0,35,R,18746955,18749285,2332,1455.8,490.3,4383,right
35,1,continuous,36,89,fixationCross,18753435.0,18758218.0,4783.0,36,R,18749385,18749463,80,1443.9,513.2,4557,right
35,1,continuous,36,89,fixationCross,18753435.0,18758218.0,4783.0,36,R,18749733,18750707,976,566.4,523.1,4591,left
35,1,continuous,36,89,fixationCross,18753435.0,18758218.0,4783.0,36,R,18750743,18751787,1046,767.3,511.6,4742,NA
35,1,continuous,36,89,fixationCross,18753435.0,18758218.0,4783.0,36,R,18751805,18752003,200,710.9,473.8,4983,left
35,1,continuous,36,89,fixationCross,18753435.0,18758218.0,4783.0,36,R,18752215,18753095,882,732.5,442.3,4563,left
35,1,continuous,36,89,fixationCross,18753435.0,18758218.0,4783.0,36,R,18753137,18753293,158,911.4,513.8,4550,NA
35,1,continuous,36,89,trial,18753435.0,18758218.0,4783.0,36,R,18753309,18753625,318,949.7,537.4,4679,NA
35,1,continuous,36,89,trial,18753435.0,18758218.0,4783.0,36,R,18753689,18753923,236,485.0,543.1,4488,left
35,1,continuous,36,89,trial,18753435.0,18758218.0,4783.0,36,R,18753941,18754311,372,425.4,525.5,4028,left
35,1,continuous,36,89,trial,18753435.0,18758218.0,4783.0,36,R,18754337,18754499,164,583.5,525.1,3897,left
35,1,continuous,36,89,trial,18753435.0,18758218.0,4783.0,36,R,18754565,18754831,268,1294.4,510.9,3925,right
35,1,continuous,36,89,trial,18753435.0,18758218.0,4783.0,36,R,18754849,18755075,228,1349.4,491.0,4033,right
35,1,continuous,36,89,trial,18753435.0,18758218.0,4783.0,36,R,18755087,18755361,276,1392.5,486.5,3990,right
35,1,continuous,36,89,trial,18753435.0,18758218.0,4783.0,36,R,18755381,18755759,380,1476.4,544.7,4068,right
35,1,continuous,36,89,trial,18753435.0,18758218.0,4783.0,36,R,18755783,18756229,448,1577.3,639.0,4235,right
35,1,continuous,36,89,trial,18753435.0,18758218.0,4783.0,36,R,18756247,18757121,876,1521.7,575.4,4332,right
35,1,continuous,36,89,trial,18753435.0,18758218.0,4783.0,36,R,18757145,18757819,676,1334.1,493.3,4374,right
35,1,continuous,36,89,trial,18753435.0,18758218.0,4783.0,36,R,18757841,18758277,438,1408.2,547.9,4182,right
35,1,continuous,36,89,postResponse,18753435.0,18758218.0,4783.0,36,R,18758287,18758565,280,1415.6,563.1,4236,right
35,1,continuous,37,5,fixationCross,18762802.0,18766919.0,4117.0,37,R,18758847,18759641,796,875.6,324.1,4430,NA
35,1,continuous,37,5,fixationCross,18762802.0,18766919.0,4117.0,37,R,18759883,18762311,2430,725.8,446.8,4606,left
35,1,continuous,37,5,fixationCross,18762802.0,18766919.0,4117.0,37,R,18762325,18762509,186,778.1,455.2,4745,NA
35,1,continuous,37,5,trial,18762802.0,18766919.0,4117.0,37,R,18762537,18762811,276,927.9,517.5,4784,NA
35,1,continuous,37,5,trial,18762802.0,18766919.0,4117.0,37,R,18763009,18763069,62,939.5,513.0,4622,NA
35,1,continuous,37,5,trial,18762802.0,18766919.0,4117.0,37,R,18763125,18763379,256,607.0,499.4,4701,left
35,1,continuous,37,5,trial,18762802.0,18766919.0,4117.0,37,R,18763409,18763603,196,560.9,480.6,4377,left
35,1,continuous,37,5,trial,18762802.0,18766919.0,4117.0,37,R,18763687,18764011,326,1506.8,552.4,4122,right
35,1,continuous,37,5,trial,18762802.0,18766919.0,4117.0,37,R,18764033,18764409,378,1471.8,576.7,4356,right
35,1,continuous,37,5,trial,18762802.0,18766919.0,4117.0,37,R,18764497,18764727,232,638.0,505.1,4544,left
35,1,continuous,37,5,trial,18762802.0,18766919.0,4117.0,37,R,18764775,18765323,550,500.1,562.4,4655,left
35,1,continuous,37,5,postResponse,18762802.0,18766919.0,4117.0,37,R,18765531,18767267,1738,484.2,531.8,4747,left
35,1,continuous,38,100,fixationCross,18769002.0,18772752.0,3750.0,38,R,18767587,18768439,854,541.4,389.3,4600,left
35,1,continuous,38,100,fixationCross,18769002.0,18772752.0,3750.0,38,R,18768483,18768703,222,810.2,422.5,4478,NA
35,1,continuous,38,100,fixationCross,18769002.0,18772752.0,3750.0,38,R,18768741,18768967,228,892.6,504.7,4617,NA
35,1,continuous,38,100,trial,18769002.0,18772752.0,3750.0,38,R,18768989,18769213,226,933.5,534.9,4771,NA
35,1,continuous,38,100,trial,18769002.0,18772752.0,3750.0,38,R,18769267,18769483,218,521.7,557.7,4667,left
35,1,continuous,38,100,trial,18769002.0,18772752.0,3750.0,38,R,18769557,18769793,238,1371.3,629.3,4178,right
35,1,continuous,38,100,trial,18769002.0,18772752.0,3750.0,38,R,18769815,18770405,592,1442.2,631.5,4120,right
35,1,continuous,38,100,trial,18769002.0,18772752.0,3750.0,38,R,18770491,18770761,272,521.0,603.0,4421,left
35,1,continuous,38,100,trial,18769002.0,18772752.0,3750.0,38,R,18770777,18771119,344,535.5,567.7,4322,left
35,1,continuous,38,100,postResponse,18769002.0,18772752.0,3750.0,38,R,18771205,18773099,1896,1441.9,642.4,4440,right
35,1,continuous,39,81,fixationCross,18774219.0,18778152.0,3933.0,39,R,18773533,18773907,376,688.2,416.8,4792,left
35,1,continuous,39,81,fixationCross,18774219.0,18778152.0,3933.0,39,R,18773955,18774123,170,879.8,507.2,4364,NA
35,1,continuous,39,81,trial,18774219.0,18778152.0,3933.0,39,R,18774139,18774431,294,927.1,513.0,4478,NA
35,1,continuous,39,81,trial,18774219.0,18778152.0,3933.0,39,R,18774477,18774677,202,603.2,496.3,4497,left
35,1,continuous,39,81,trial,18774219.0,18778152.0,3933.0,39,R,18774701,18775047,348,457.3,498.4,4303,left
35,1,continuous,39,81,trial,18774219.0,18778152.0,3933.0,39,R,18775123,18775257,136,1309.0,501.6,4057,right
35,1,continuous,39,81,trial,18774219.0,18778152.0,3933.0,39,R,18775279,18775601,324,1389.9,503.9,4154,right
35,1,continuous,39,81,trial,18774219.0,18778152.0,3933.0,39,R,18775621,18775817,198,1456.2,505.6,4261,right
35,1,continuous,39,81,trial,18774219.0,18778152.0,3933.0,39,R,18775839,18776071,234,1416.8,437.9,4226,right
35,1,continuous,39,81,trial,18774219.0,18778152.0,3933.0,39,R,18776087,18776375,290,1367.4,431.5,4259,right
35,1,continuous,39,81,trial,18774219.0,18778152.0,3933.0,39,R,18776401,18776591,192,1400.2,580.6,4343,right
35,1,continuous,39,81,trial,18774219.0,18778152.0,3933.0,39,R,18776611,18776983,374,1383.5,510.8,4399,right
35,1,continuous,39,81,trial,18774219.0,18778152.0,3933.0,39,R,18776995,18777065,72,1424.7,509.8,4392,right
35,1,continuous,39,81,trial,18774219.0,18778152.0,3933.0,39,R,18777087,18777995,910,1520.7,528.3,4229,right
35,1,continuous,39,81,postResponse,18774219.0,18778152.0,3933.0,39,R,18778041,18778497,458,1394.2,491.3,4188,right
35,1,continuous,40,95,fixationCross,18780969.0,18785136.0,4167.0,40,R,18778787,18780617,1832,698.8,227.1,4489,NA
35,1,continuous,40,95,fixationCross,18780969.0,18785136.0,4167.0,40,R,18780661,18780687,28,882.5,464.8,4822,NA
35,1,continuous,40,95,fixationCross,18780969.0,18785136.0,4167.0,40,R,18780691,18780843,154,903.3,494.6,4877,NA
35,1,continuous,40,95,trial,18780969.0,18785136.0,4167.0,40,R,18780867,18781143,278,938.7,522.3,5033,NA
35,1,continuous,40,95,trial,18780969.0,18785136.0,4167.0,40,R,18781195,18781659,466,545.5,505.7,4629,left
35,1,continuous,40,95,trial,18780969.0,18785136.0,4167.0,40,R,18781681,18782207,528,407.4,528.4,4028,left
35,1,continuous,40,95,trial,18780969.0,18785136.0,4167.0,40,R,18782283,18782507,226,1302.0,456.5,3847,right
35,1,continuous,40,95,trial,18780969.0,18785136.0,4167.0,40,R,18782531,18782783,254,1385.0,559.0,4078,right
35,1,continuous,40,95,trial,18780969.0,18785136.0,4167.0,40,R,18782803,18783253,452,1406.6,595.1,4292,right
35,1,continuous,40,95,trial,18780969.0,18785136.0,4167.0,40,R,18783269,18783443,176,1409.0,521.2,4298,right
35,1,continuous,40,95,trial,18780969.0,18785136.0,4167.0,40,R,18783473,18783529,58,1401.7,516.0,4388,right
35,1,continuous,40,95,trial,18780969.0,18785136.0,4167.0,40,R,18783551,18784079,530,1358.6,406.5,4462,right
35,1,continuous,40,95,trial,18780969.0,18785136.0,4167.0,40,R,18784095,18784307,214,1367.0,442.5,4436,right
35,1,continuous,40,95,trial,18780969.0,18785136.0,4167.0,40,R,18784349,18784607,260,1402.1,684.3,4497,right
35,1,continuous,40,95,trial,18780969.0,18785136.0,4167.0,40,R,18784651,18784833,184,1430.6,994.1,4520,NA
35,1,continuous,40,95,trial,18780969.0,18785136.0,4167.0,40,R,18784843,18785121,280,1411.6,984.0,4344,NA
35,1,continuous,40,95,postResponse,18780969.0,18785136.0,4167.0,40,R,18785187,18785469,284,1349.9,517.6,4203,right
35,1,continuous,41,94,fixationCross,18790436.0,18795003.0,4567.0,41,R,18785749,18786191,444,614.0,269.8,4557,NA
35,1,continuous,41,94,fixationCross,18790436.0,18795003.0,4567.0,41,R,18786209,18786565,358,668.0,249.5,4250,NA
35,1,continuous,41,94,fixationCross,18790436.0,18795003.0,4567.0,41,R,18786615,18787469,856,844.0,417.3,4571,NA
35,1,continuous,41,94,fixationCross,18790436.0,18795003.0,4567.0,41,R,18787489,18789043,1556,781.7,441.3,4794,NA
35,1,continuous,41,94,fixationCross,18790436.0,18795003.0,4567.0,41,R,18789243,18789491,250,772.3,430.9,4783,NA
35,1,continuous,41,94,fixationCross,18790436.0,18795003.0,4567.0,41,R,18789511,18790129,620,852.9,442.8,4380,NA
35,1,continuous,41,94,trial,18790436.0,18795003.0,4567.0,41,R,18790153,18790461,310,935.8,480.8,4566,NA
35,1,continuous,41,94,trial,18790436.0,18795003.0,4567.0,41,R,18790473,18790667,196,955.6,517.9,4764,NA
35,1,continuous,41,94,trial,18790436.0,18795003.0,4567.0,41,R,18790723,18791035,314,557.0,507.3,4533,left
35,1,continuous,41,94,trial,18790436.0,18795003.0,4567.0,41,R,18791059,18791405,348,511.5,575.5,4119,left
35,1,continuous,41,94,trial,18790436.0,18795003.0,4567.0,41,R,18791475,18791761,288,1315.7,482.3,3999,right
35,1,continuous,41,94,trial,18790436.0,18795003.0,4567.0,41,R,18791783,18792277,496,1381.6,446.6,4189,right
35,1,continuous,41,94,trial,18790436.0,18795003.0,4567.0,41,R,18792327,18792797,472,1417.2,686.0,4438,right
35,1,continuous,41,94,trial,18790436.0,18795003.0,4567.0,41,R,18792861,18793183,324,1482.6,378.4,4301,right
35,1,continuous,41,94,trial,18790436.0,18795003.0,4567.0,41,R,18793197,18793617,422,1538.1,377.6,4284,right
35,1,continuous,41,94,trial,18790436.0,18795003.0,4567.0,41,R,18793695,18793817,124,1397.4,985.6,4395,NA
35,1,continuous,41,94,trial,18790436.0,18795003.0,4567.0,41,R,18793835,18794237,404,1374.6,953.0,4368,NA
35,1,continuous,41,94,trial,18790436.0,18795003.0,4567.0,41,R,18794411,18794647,238,1457.3,365.8,4208,right
35,1,continuous,41,94,postResponse,18790436.0,18795003.0,4567.0,41,R,18794665,18795335,672,1516.0,358.8,4087,right
35,1,continuous,42,9,fixationCross,18796586.0,18800503.0,3917.0,42,R,18795409,18795877,470,1506.7,371.4,4436,right
35,1,continuous,42,9,fixationCross,18796586.0,18800503.0,3917.0,42,R,18796123,18796287,166,931.8,417.6,4798,NA
35,1,continuous,42,9,trial,18796586.0,18800503.0,3917.0,42,R,18796315,18796669,356,926.7,515.2,4830,NA
35,1,continuous,42,9,trial,18796586.0,18800503.0,3917.0,42,R,18796689,18796791,104,933.6,517.6,4547,NA
35,1,continuous,42,9,trial,18796586.0,18800503.0,3917.0,42,R,18796837,18796985,150,519.0,523.6,4549,left
35,1,continuous,42,9,trial,18796586.0,18800503.0,3917.0,42,R,18797007,18797439,434,453.0,507.3,4403,left
35,1,continuous,42,9,trial,18796586.0,18800503.0,3917.0,42,R,18797491,18797727,238,606.6,599.9,4220,left
35,1,continuous,42,9,trial,18796586.0,18800503.0,3917.0,42,R,18797799,18798287,490,1375.7,524.9,4232,right
35,1,continuous,42,9,trial,18796586.0,18800503.0,3917.0,42,R,18798305,18798451,148,1465.1,524.3,4154,right
35,1,continuous,42,9,trial,18796586.0,18800503.0,3917.0,42,R,18798555,18798721,168,475.1,581.1,4402,left
35,1,continuous,42,9,trial,18796586.0,18800503.0,3917.0,42,R,18798745,18799003,260,445.9,495.9,4435,left
35,1,continuous,42,9,trial,18796586.0,18800503.0,3917.0,42,R,18799025,18799295,272,295.8,526.9,4446,left
35,1,continuous,42,9,trial,18796586.0,18800503.0,3917.0,42,R,18799313,18799667,356,289.3,556.2,4492,left
35,1,continuous,42,9,trial,18796586.0,18800503.0,3917.0,42,R,18799693,18800687,996,436.2,491.2,4530,left
35,1,continuous,43,6,fixationCross,18804203.0,18807703.0,3500.0,43,R,18800911,18802031,1122,544.8,494.1,4656,left
35,1,continuous,43,6,fixationCross,18804203.0,18807703.0,3500.0,43,R,18802253,18802745,494,574.8,469.4,4717,left
35,1,continuous,43,6,fixationCross,18804203.0,18807703.0,3500.0,43,R,18802765,18803001,238,685.0,477.0,4434,left
35,1,continuous,43,6,fixationCross,18804203.0,18807703.0,3500.0,43,R,18803033,18803901,870,826.3,511.2,4661,NA
35,1,continuous,43,6,fixationCross,18804203.0,18807703.0,3500.0,43,R,18803921,18804107,188,902.3,538.1,4809,NA
35,1,continuous,43,6,trial,18804203.0,18807703.0,3500.0,43,R,18804127,18804415,290,932.2,546.8,4870,NA
35,1,continuous,43,6,trial,18804203.0,18807703.0,3500.0,43,R,18804461,18804653,194,504.1,520.6,4562,left
35,1,continuous,43,6,trial,18804203.0,18807703.0,3500.0,43,R,18804675,18804857,184,403.8,492.3,4233,left
35,1,continuous,43,6,trial,18804203.0,18807703.0,3500.0,43,R,18804939,18805097,160,1510.3,454.8,3969,right
35,1,continuous,43,6,trial,18804203.0,18807703.0,3500.0,43,R,18805117,18805583,468,1582.7,462.5,4001,right
35,1,continuous,43,6,trial,18804203.0,18807703.0,3500.0,43,R,18805689,18805979,292,387.2,497.8,4089,left
35,1,continuous,43,6,trial,18804203.0,18807703.0,3500.0,43,R,18805989,18806205,218,388.1,487.5,4167,left
35,1,continuous,43,6,trial,18804203.0,18807703.0,3500.0,43,R,18806225,18807913,1690,374.4,496.7,4502,left
35,1,continuous,44,95,fixationCross,18812753.0,18816303.0,3550.0,44,R,18808135,18808897,764,357.7,440.7,4668,left
35,1,continuous,44,95,fixationCross,18812753.0,18816303.0,3550.0,44,R,18808943,18809157,216,660.9,426.4,4475,left
35,1,continuous,44,95,fixationCross,18812753.0,18816303.0,3550.0,44,R,18809185,18809589,406,850.1,496.1,4753,NA
35,1,continuous,44,95,fixationCross,18812753.0,18816303.0,3550.0,44,R,18809615,18811217,1604,798.8,465.5,4792,NA
35,1,continuous,44,95,fixationCross,18812753.0,18816303.0,3550.0,44,R,18811391,18812169,780,829.0,430.0,4723,NA
35,1,continuous,44,95,fixationCross,18812753.0,18816303.0,3550.0,44,R,18812397,18812463,68,837.6,472.4,4750,NA
35,1,continuous,44,95,trial,18812753.0,18816303.0,3550.0,44,R,18812487,18812913,428,915.7,530.2,4780,NA
35,1,continuous,44,95,trial,18812753.0,18816303.0,3550.0,44,R,18812959,18813165,208,474.3,531.5,4332,left
35,1,continuous,44,95,trial,18812753.0,18816303.0,3550.0,44,R,18813175,18813349,176,489.3,549.4,4184,left
35,1,continuous,44,95,trial,18812753.0,18816303.0,3550.0,44,R,18813367,18813643,278,459.3,598.6,4094,left
35,1,continuous,44,95,trial,18812753.0,18816303.0,3550.0,44,R,18813721,18815235,1516,1411.6,505.0,4080,right
35,1,continuous,44,95,trial,18812753.0,18816303.0,3550.0,44,R,18815291,18815709,420,1394.6,955.0,4270,NA
35,1,continuous,44,95,trial,18812753.0,18816303.0,3550.0,44,R,18815915,18816071,158,1406.6,535.3,4225,right
35,1,continuous,44,95,trial,18812753.0,18816303.0,3550.0,44,R,18816091,18816375,286,1435.9,456.6,4234,right
35,1,continuous,44,95,postResponse,18812753.0,18816303.0,3550.0,44,R,18816387,18816659,274,1453.1,409.5,3796,right
35,1,continuous,45,24,fixationCross,18817919.0,18821820.0,3901.0,45,R,18816761,18817153,394,1440.5,415.0,4091,right
35,1,continuous,45,24,fixationCross,18817919.0,18821820.0,3901.0,45,R,18817201,18817431,232,1103.0,448.4,4370,NA
35,1,continuous,45,24,trial,18817919.0,18821820.0,3901.0,45,R,18817643,18818063,422,944.2,528.2,4766,NA
35,1,continuous,45,24,trial,18817919.0,18821820.0,3901.0,45,R,18818119,18818337,220,536.5,522.4,4394,left
35,1,continuous,45,24,trial,18817919.0,18821820.0,3901.0,45,R,18818363,18818473,112,494.5,541.8,4307,left
35,1,continuous,45,24,trial,18817919.0,18821820.0,3901.0,45,R,18818499,18818679,182,444.2,624.4,4334,left
35,1,continuous,45,24,trial,18817919.0,18821820.0,3901.0,45,R,18818697,18819019,324,394.3,631.5,4360,left
35,1,continuous,45,24,trial,18817919.0,18821820.0,3901.0,45,R,18819053,18819353,302,569.1,626.1,4407,left
35,1,continuous,45,24,trial,18817919.0,18821820.0,3901.0,45,R,18819431,18819641,212,1377.2,469.7,4280,right
35,1,continuous,45,24,trial,18817919.0,18821820.0,3901.0,45,R,18819661,18819923,264,1465.7,519.7,4240,right
35,1,continuous,45,24,trial,18817919.0,18821820.0,3901.0,45,R,18819997,18820249,254,1477.8,465.8,4258,right
35,1,continuous,45,24,trial,18817919.0,18821820.0,3901.0,45,R,18820339,18820621,284,576.7,611.7,4462,left
35,1,continuous,45,24,trial,18817919.0,18821820.0,3901.0,45,R,18820637,18820785,150,529.1,587.9,4460,left
35,1,continuous,45,24,trial,18817919.0,18821820.0,3901.0,45,R,18820813,18821063,252,323.2,582.7,4391,left
35,1,continuous,45,24,trial,18817919.0,18821820.0,3901.0,45,R,18821083,18821395,314,369.9,633.7,4454,left
35,1,continuous,45,24,trial,18817919.0,18821820.0,3901.0,45,R,18821443,18821611,170,562.7,622.6,4448,left
35,1,continuous,45,24,trial,18817919.0,18821820.0,3901.0,45,R,18821631,18821797,168,556.5,571.8,4433,left
35,1,continuous,45,24,trial,18817919.0,18821820.0,3901.0,45,R,18821923,18822055,134,1490.4,442.9,4243,right
35,1,continuous,45,24,postResponse,18817919.0,18821820.0,3901.0,45,R,18822093,18822163,72,1494.5,260.3,4207,NA
35,1,continuous,46,87,fixationCross,18826503.0,18830203.0,3700.0,46,R,18822259,18822931,674,1410.5,81.6,4128,NA
35,1,continuous,46,87,fixationCross,18826503.0,18830203.0,3700.0,46,R,18822983,18823175,194,1691.0,27.5,4168,NA
35,1,continuous,46,87,fixationCross,18826503.0,18830203.0,3700.0,46,R,18823195,18823859,666,1779.5,77.8,4117,NA
35,1,continuous,46,87,fixationCross,18826503.0,18830203.0,3700.0,46,R,18823965,18824041,78,754.1,232.9,4313,NA
35,1,continuous,46,87,fixationCross,18826503.0,18830203.0,3700.0,46,R,18824073,18824715,644,725.5,463.9,4479,left
35,1,continuous,46,87,fixationCross,18826503.0,18830203.0,3700.0,46,R,18824859,18826185,1328,721.3,344.1,4505,NA
35,1,continuous,46,87,fixationCross,18826503.0,18830203.0,3700.0,46,R,18826233,18826429,198,912.3,491.5,4757,NA
35,1,continuous,46,87,trial,18826503.0,18830203.0,3700.0,46,R,18826455,18826741,288,947.3,525.0,4948,NA
35,1,continuous,46,87,trial,18826503.0,18830203.0,3700.0,46,R,18826801,18827151,352,541.5,522.1,4611,left
35,1,continuous,46,87,trial,18826503.0,18830203.0,3700.0,46,R,18827167,18827725,560,573.0,485.4,4227,left
35,1,continuous,46,87,trial,18826503.0,18830203.0,3700.0,46,R,18827809,18827985,178,1421.0,539.2,4161,right
35,1,continuous,46,87,trial,18826503.0,18830203.0,3700.0,46,R,18828005,18828949,946,1500.9,549.5,4101,right
35,1,continuous,46,87,trial,18826503.0,18830203.0,3700.0,46,R,18828971,18829185,216,1370.0,500.2,4253,right
35,1,continuous,46,87,trial,18826503.0,18830203.0,3700.0,46,R,18829207,18829829,624,1377.7,400.0,4272,right
35,1,continuous,46,87,trial,18826503.0,18830203.0,3700.0,46,R,18829849,18830441,594,1412.1,468.9,4398,right
35,1,continuous,47,13,fixationCross,18832620.0,18836153.0,3533.0,47,R,18830697,18830797,102,863.7,361.2,4470,NA
35,1,continuous,47,13,fixationCross,18832620.0,18836153.0,3533.0,47,R,18830821,18830973,154,677.7,294.0,4629,NA
35,1,continuous,47,13,fixationCross,18832620.0,18836153.0,3533.0,47,R,18831033,18831159,128,461.3,114.3,4493,NA
35,1,continuous,47,13,fixationCross,18832620.0,18836153.0,3533.0,47,R,18831183,18831895,714,434.6,-12.7,4082,NA
35,1,continuous,47,13,fixationCross,18832620.0,18836153.0,3533.0,47,R,18832103,18832309,208,797.1,444.2,4444,NA
35,1,continuous,47,13,trial,18832620.0,18836153.0,3533.0,47,R,18832333,18832843,512,902.0,474.1,4457,NA
35,1,continuous,47,13,trial,18832620.0,18836153.0,3533.0,47,R,18832891,18833057,168,419.8,517.4,4447,left
35,1,continuous,47,13,trial,18832620.0,18836153.0,3533.0,47,R,18833079,18833597,520,381.0,495.6,4359,left
35,1,continuous,47,13,trial,18832620.0,18836153.0,3533.0,47,R,18833611,18833927,318,417.0,469.5,4309,left
35,1,continuous,47,13,trial,18832620.0,18836153.0,3533.0,47,R,18834025,18834371,348,1406.2,509.1,4389,right
35,1,continuous,47,13,trial,18832620.0,18836153.0,3533.0,47,R,18834459,18834627,170,633.0,525.7,4326,left
35,1,continuous,47,13,trial,18832620.0,18836153.0,3533.0,47,R,18834651,18834911,262,537.5,520.9,4246,left
35,1,continuous,47,13,postResponse,18832620.0,18836153.0,3533.0,47,R,18834935,18836471,1538,443.6,504.8,4380,left
35,1,continuous,48,19,fixationCross,18837870.0,18841670.0,3800.0,48,R,18836739,18837537,800,901.4,305.0,4461,NA
35,1,continuous,48,19,trial,18837870.0,18841670.0,3800.0,48,R,18837587,18837969,384,963.4,507.5,4421,NA
35,1,continuous,48,19,trial,18837870.0,18841670.0,3800.0,48,R,18837977,18838097,122,959.7,526.1,4491,NA
35,1,continuous,48,19,trial,18837870.0,18841670.0,3800.0,48,R,18838149,18838421,274,549.4,538.9,4409,left
35,1,continuous,48,19,trial,18837870.0,18841670.0,3800.0,48,R,18838445,18838729,286,451.4,550.6,4177,left
35,1,continuous,48,19,trial,18837870.0,18841670.0,3800.0,48,R,18838811,18839591,782,1512.2,447.5,3960,right
35,1,continuous,48,19,trial,18837870.0,18841670.0,3800.0,48,R,18839685,18840279,596,446.2,582.7,4141,left
35,1,continuous,48,19,trial,18837870.0,18841670.0,3800.0,48,R,18840297,18841845,1550,545.5,580.5,4304,left
35,1,continuous,49,8,fixationCross,18842936.0,18846987.0,4051.0,49,R,18842115,18842387,274,739.9,296.9,4487,NA
35,1,continuous,49,8,fixationCross,18842936.0,18846987.0,4051.0,49,R,18842599,18842637,40,852.9,471.0,4231,NA
35,1,continuous,49,8,trial,18842936.0,18846987.0,4051.0,49,R,18842659,18843071,414,939.7,519.6,4288,NA
35,1,continuous,49,8,trial,18842936.0,18846987.0,4051.0,49,R,18843117,18843519,404,579.2,502.2,4146,left
35,1,continuous,49,8,trial,18842936.0,18846987.0,4051.0,49,R,18843595,18843849,256,1413.3,509.2,4039,right
35,1,continuous,49,8,trial,18842936.0,18846987.0,4051.0,49,R,18843871,18844405,536,1446.6,528.8,4015,right
35,1,continuous,49,8,trial,18842936.0,18846987.0,4051.0,49,R,18844447,18844591,146,1286.5,412.5,4121,right
35,1,continuous,49,8,trial,18842936.0,18846987.0,4051.0,49,R,18844683,18844951,270,519.9,556.3,4407,left
35,1,continuous,49,8,trial,18842936.0,18846987.0,4051.0,49,R,18844977,18845205,230,393.3,507.8,4344,left
35,1,continuous,49,8,trial,18842936.0,18846987.0,4051.0,49,R,18845223,18846011,790,325.5,494.7,4273,left
35,1,continuous,49,8,trial,18842936.0,18846987.0,4051.0,49,R,18846085,18846419,336,517.2,959.5,4428,NA
35,1,continuous,49,8,trial,18842936.0,18846987.0,4051.0,49,R,18846431,18846601,172,513.0,984.7,4374,NA
35,1,continuous,49,8,trial,18842936.0,18846987.0,4051.0,49,R,18846763,18847301,540,513.0,453.7,4254,left
35,1,continuous,50,96,fixationCross,18848387.0,18851387.0,3000.0,50,R,18847517,18848069,554,575.6,372.8,4472,left
35,1,continuous,50,96,fixationCross,18848387.0,18851387.0,3000.0,50,R,18848117,18848273,158,907.9,532.2,4130,NA
35,1,continuous,50,96,trial,18848387.0,18851387.0,3000.0,50,R,18848291,18848535,246,943.2,522.9,4282,NA
35,1,continuous,50,96,trial,18848387.0,18851387.0,3000.0,50,R,18848595,18848773,180,555.0,500.7,4473,left
35,1,continuous,50,96,trial,18848387.0,18851387.0,3000.0,50,R,18848789,18849121,334,519.9,412.5,4287,left
35,1,continuous,50,96,trial,18848387.0,18851387.0,3000.0,50,R,18849201,18849421,222,1397.5,574.5,4175,right
35,1,continuous,50,96,trial,18848387.0,18851387.0,3000.0,50,R,18849435,18850481,1048,1421.4,548.9,4158,right
35,1,continuous,50,96,trial,18848387.0,18851387.0,3000.0,50,R,18850527,18851297,772,1396.5,964.8,4389,NA
35,1,continuous,50,96,postResponse,18848387.0,18851387.0,3000.0,50,R,18851357,18851737,382,1371.7,545.7,4275,right
35,2,binary,1,1,fixationCross,18903287.0,18908337.0,5050.0,51,R,18902449,18902829,382,919.7,848.6,4696,likertHorizontal
35,2,binary,1,1,fixationCross,18903287.0,18908337.0,5050.0,51,R,18902891,18902963,74,936.0,443.4,4554,NA
35,2,binary,1,1,fixationCross,18903287.0,18908337.0,5050.0,51,R,18903111,18903199,90,983.6,576.5,4696,NA
35,2,binary,1,1,trial,18903287.0,18908337.0,5050.0,51,R,18903219,18903565,348,966.0,562.6,4921,NA
35,2,binary,1,1,trial,18903287.0,18908337.0,5050.0,51,R,18903621,18904005,386,495.1,529.1,4415,left
35,2,binary,1,1,trial,18903287.0,18908337.0,5050.0,51,R,18904083,18904437,356,1385.5,505.3,4089,right
35,2,binary,1,1,trial,18903287.0,18908337.0,5050.0,51,R,18904459,18904795,338,1497.8,534.3,4467,right
35,2,binary,1,1,trial,18903287.0,18908337.0,5050.0,51,R,18904873,18905247,376,492.3,540.0,4658,left
35,2,binary,1,1,trial,18903287.0,18908337.0,5050.0,51,R,18905273,18905427,156,446.8,437.3,4414,left
35,2,binary,1,1,trial,18903287.0,18908337.0,5050.0,51,R,18905443,18905781,340,408.9,430.5,4345,left
35,2,binary,1,1,trial,18903287.0,18908337.0,5050.0,51,R,18905873,18907167,1296,500.3,980.9,4844,NA
35,2,binary,1,1,trial,18903287.0,18908337.0,5050.0,51,R,18907235,18907645,412,948.8,935.5,5184,likertHorizontal
35,2,binary,1,1,trial,18903287.0,18908337.0,5050.0,51,R,18907699,18907875,178,564.0,964.2,5430,NA
35,2,binary,1,1,trial,18903287.0,18908337.0,5050.0,51,R,18907895,18908105,212,515.4,979.5,5492,NA
35,2,binary,1,1,trial,18903287.0,18908337.0,5050.0,51,R,18908115,18908393,280,513.3,1000.3,5174,NA
35,2,binary,1,1,trial,18903287.0,18908337.0,5050.0,51,R,18908403,18908567,166,506.6,970.0,4995,NA
35,2,binary,2,2,fixationCross,18909738.0,18911921.0,2183.0,52,R,18908761,18909289,530,860.7,297.1,4995,NA
35,2,binary,2,2,trial,18909738.0,18911921.0,2183.0,52,R,18909475,18910093,620,938.9,531.3,4723,NA
35,2,binary,2,2,trial,18909738.0,18911921.0,2183.0,52,R,18910161,18910351,192,965.1,937.7,4476,likertHorizontal
35,2,binary,2,2,trial,18909738.0,18911921.0,2183.0,52,R,18910417,18910521,106,1363.1,736.8,4607,NA
35,2,binary,2,2,trial,18909738.0,18911921.0,2183.0,52,R,18910565,18910729,166,1361.1,554.9,4812,right
35,2,binary,2,2,trial,18909738.0,18911921.0,2183.0,52,R,18910739,18910931,194,1355.4,568.7,4735,right
35,2,binary,2,2,trial,18909738.0,18911921.0,2183.0,52,R,18911013,18911595,584,494.9,596.5,4508,left
35,2,binary,2,2,trial,18909738.0,18911921.0,2183.0,52,R,18911671,18911845,176,1408.0,631.2,4128,right
35,2,binary,2,2,trial,18909738.0,18911921.0,2183.0,52,R,18911863,18912145,284,1368.4,577.6,4388,right
35,2,binary,3,2,fixationCross,18915287.0,18918805.0,3518.0,53,R,18912441,18913053,614,716.2,490.1,4836,left
35,2,binary,3,2,fixationCross,18915287.0,18918805.0,3518.0,53,R,18913073,18914395,1324,781.8,529.1,4669,NA
35,2,binary,3,2,fixationCross,18915287.0,18918805.0,3518.0,53,R,18914411,18915003,594,839.2,521.0,4885,NA
35,2,binary,3,2,trial,18915287.0,18918805.0,3518.0,53,R,18915021,18915293,274,926.9,544.7,4827,NA
35,2,binary,3,2,trial,18915287.0,18918805.0,3518.0,53,R,18915311,18915475,166,945.2,548.5,4925,NA
35,2,binary,3,2,trial,18915287.0,18918805.0,3518.0,53,R,18915525,18916031,508,507.9,529.5,4548,left
35,2,binary,3,2,trial,18915287.0,18918805.0,3518.0,53,R,18916123,18916335,214,1483.9,505.7,4107,right
35,2,binary,3,2,trial,18915287.0,18918805.0,3518.0,53,R,18916361,18916697,338,1614.4,438.6,4018,right
35,2,binary,3,2,trial,18915287.0,18918805.0,3518.0,53,R,18916773,18916875,104,1431.2,912.7,3998,NA
35,2,binary,3,2,trial,18915287.0,18918805.0,3518.0,53,R,18916897,18917019,124,1411.0,993.0,4062,NA
35,2,binary,3,2,trial,18915287.0,18918805.0,3518.0,53,R,18917093,18917201,110,563.4,791.0,4328,NA
35,2,binary,3,2,trial,18915287.0,18918805.0,3518.0,53,R,18917239,18917591,354,473.0,612.4,4408,left
35,2,binary,3,2,trial,18915287.0,18918805.0,3518.0,53,R,18917621,18918127,508,472.6,499.7,4455,left
35,2,binary,3,2,trial,18915287.0,18918805.0,3518.0,53,R,18918219,18918837,620,1503.5,555.0,4310,right
35,2,binary,3,2,trial,18915287.0,18918805.0,3518.0,53,R,18918859,18919021,164,1541.8,471.0,4230,right
35,2,binary,4,2,fixationCross,18922721.0,18925204.0,2483.0,54,R,18919263,18919923,662,778.5,380.3,4788,NA
35,2,binary,4,2,fixationCross,18922721.0,18925204.0,2483.0,54,R,18919957,18921171,1216,708.0,448.1,4613,left
35,2,binary,4,2,fixationCross,18922721.0,18925204.0,2483.0,54,R,18921213,18922423,1212,844.5,479.1,4664,NA
35,2,binary,4,2,trial,18922721.0,18925204.0,2483.0,54,R,18922445,18922795,352,886.8,492.1,4843,NA
35,2,binary,4,2,trial,18922721.0,18925204.0,2483.0,54,R,18922813,18922937,126,937.9,530.3,4851,NA
35,2,binary,4,2,trial,18922721.0,18925204.0,2483.0,54,R,18923001,18923139,140,429.5,507.7,4696,left
35,2,binary,4,2,trial,18922721.0,18925204.0,2483.0,54,R,18923229,18923469,242,1419.4,542.8,4389,right
35,2,binary,4,2,trial,18922721.0,18925204.0,2483.0,54,R,18923489,18923805,318,1499.1,553.5,4350,right
35,2,binary,4,2,trial,18922721.0,18925204.0,2483.0,54,R,18923889,18924029,142,470.4,506.3,4595,left
35,2,binary,4,2,trial,18922721.0,18925204.0,2483.0,54,R,18924055,18924159,106,409.5,483.4,4578,left
35,2,binary,4,2,trial,18922721.0,18925204.0,2483.0,54,R,18924179,18924427,250,384.9,447.5,4431,left
35,2,binary,4,2,trial,18922721.0,18925204.0,2483.0,54,R,18924521,18925049,530,1498.5,567.1,4363,right
35,2,binary,4,2,trial,18922721.0,18925204.0,2483.0,54,R,18925077,18925437,362,1380.9,596.8,4676,right
35,2,binary,5,1,fixationCross,18926121.0,18928621.0,2500.0,55,R,18925685,18926055,372,1042.6,528.7,5044,NA
35,2,binary,5,1,trial,18926121.0,18928621.0,2500.0,55,R,18926321,18926473,154,802.5,582.2,4704,NA
35,2,binary,5,1,trial,18926121.0,18928621.0,2500.0,55,R,18926501,18926741,242,643.3,621.1,4758,left
35,2,binary,5,1,trial,18926121.0,18928621.0,2500.0,55,R,18926755,18926849,96,621.5,610.3,4441,left
35,2,binary,5,1,trial,18926121.0,18928621.0,2500.0,55,R,18926921,18927325,406,1461.0,537.8,4022,right
35,2,binary,5,1,trial,18926121.0,18928621.0,2500.0,55,R,18927343,18927731,390,1412.4,468.7,4249,right
35,2,binary,5,1,trial,18926121.0,18928621.0,2500.0,55,R,18927799,18928249,452,604.4,641.6,4408,left
35,2,binary,5,1,trial,18926121.0,18928621.0,2500.0,55,R,18928297,18928837,542,526.1,965.8,4617,NA
35,2,binary,6,1,fixationCross,18930654.0,18934122.0,3468.0,56,R,18929141,18929777,638,769.1,714.9,4957,NA
35,2,binary,6,1,fixationCross,18930654.0,18934122.0,3468.0,56,R,18929797,18930341,546,814.2,619.0,4764,NA
35,2,binary,6,1,trial,18930654.0,18934122.0,3468.0,56,R,18930371,18930793,424,916.3,572.2,4923,NA
35,2,binary,6,1,trial,18930654.0,18934122.0,3468.0,56,R,18930847,18931183,338,621.0,579.1,4743,left
35,2,binary,6,1,trial,18930654.0,18934122.0,3468.0,56,R,18931209,18931461,254,560.8,510.0,4250,left
35,2,binary,6,1,trial,18930654.0,18934122.0,3468.0,56,R,18931473,18931661,190,577.8,461.1,4229,left
35,2,binary,6,1,trial,18930654.0,18934122.0,3468.0,56,R,18931749,18931947,200,1474.7,910.1,4213,NA
35,2,binary,6,1,trial,18930654.0,18934122.0,3468.0,56,R,18932013,18932331,320,1430.5,556.6,4325,right
35,2,binary,6,1,trial,18930654.0,18934122.0,3468.0,56,R,18932423,18932557,136,566.4,897.5,4434,NA
35,2,binary,6,1,trial,18930654.0,18934122.0,3468.0,56,R,18932625,18932827,204,544.9,589.9,4542,left
35,2,binary,6,1,trial,18930654.0,18934122.0,3468.0,56,R,18932849,18933175,328,491.3,518.9,4521,left
35,2,binary,6,1,trial,18930654.0,18934122.0,3468.0,56,R,18933197,18933303,108,520.3,513.7,4401,left
35,2,binary,6,1,trial,18930654.0,18934122.0,3468.0,56,R,18933391,18933853,464,1505.9,582.8,4290,right
35,2,binary,6,1,trial,18930654.0,18934122.0,3468.0,56,R,18933957,18934185,230,495.2,916.6,4539,NA
35,2,binary,6,1,trial,18930654.0,18934122.0,3468.0,56,R,18934235,18934357,124,485.9,623.1,4619,left
35,2,binary,7,2,fixationCross,18936755.0,18938672.0,1917.0,57,R,18934615,18935589,976,1033.0,282.1,4551,NA
35,2,binary,7,2,fixationCross,18936755.0,18938672.0,1917.0,57,R,18935637,18935855,220,872.9,390.4,4587,NA
35,2,binary,7,2,fixationCross,18936755.0,18938672.0,1917.0,57,R,18935879,18936447,570,831.2,507.9,4695,NA
35,2,binary,7,2,trial,18936755.0,18938672.0,1917.0,57,R,18936471,18936895,426,903.4,527.9,4736,NA
35,2,binary,7,2,trial,18936755.0,18938672.0,1917.0,57,R,18936939,18937303,366,650.7,549.3,4622,left
35,2,binary,7,2,trial,18936755.0,18938672.0,1917.0,57,R,18937325,18937475,152,527.9,542.9,4248,left
35,2,binary,7,2,trial,18936755.0,18938672.0,1917.0,57,R,18937545,18937897,354,1362.6,576.4,4109,right
35,2,binary,7,2,trial,18936755.0,18938672.0,1917.0,57,R,18937911,18938121,212,1318.2,569.5,3944,right
35,2,binary,7,2,trial,18936755.0,18938672.0,1917.0,57,R,18938141,18938455,316,1303.6,653.0,4040,right
35,2,binary,7,2,trial,18936755.0,18938672.0,1917.0,57,R,18938497,18938843,348,1454.3,961.0,4279,NA
35,2,binary,8,1,fixationCross,18942071.0,18944371.0,2300.0,58,R,18939173,18939907,736,1019.3,283.9,4467,NA
35,2,binary,8,1,fixationCross,18942071.0,18944371.0,2300.0,58,R,18939929,18940185,258,945.3,296.9,4281,NA
35,2,binary,8,1,fixationCross,18942071.0,18944371.0,2300.0,58,R,18940209,18940933,726,955.8,413.6,4547,NA
35,2,binary,8,1,fixationCross,18942071.0,18944371.0,2300.0,58,R,18940953,18941769,818,870.1,423.2,4673,NA
35,2,binary,8,1,trial,18942071.0,18944371.0,2300.0,58,R,18941785,18942081,298,907.4,464.5,4725,NA
35,2,binary,8,1,trial,18942071.0,18944371.0,2300.0,58,R,18942101,18942323,224,955.5,532.7,4746,NA
35,2,binary,8,1,trial,18942071.0,18944371.0,2300.0,58,R,18942383,18942539,158,606.9,546.9,4729,left
35,2,binary,8,1,trial,18942071.0,18944371.0,2300.0,58,R,18942565,18943069,506,515.8,535.1,4228,left
35,2,binary,8,1,trial,18942071.0,18944371.0,2300.0,58,R,18943149,18943613,466,1403.3,477.2,4044,right
35,2,binary,8,1,trial,18942071.0,18944371.0,2300.0,58,R,18943681,18944019,340,550.6,553.1,4244,left
35,2,binary,8,1,trial,18942071.0,18944371.0,2300.0,58,R,18944045,18944585,542,477.7,544.5,4324,left
35,2,binary,9,1,fixationCross,18945788.0,18947938.0,2150.0,59,R,18944805,18945331,528,618.5,281.2,4511,NA
35,2,binary,9,1,fixationCross,18945788.0,18947938.0,2150.0,59,R,18945355,18945475,122,825.2,305.9,4280,NA
35,2,binary,9,1,fixationCross,18945788.0,18947938.0,2150.0,59,R,18945501,18945663,164,947.1,473.5,4362,NA
35,2,binary,9,1,trial,18945788.0,18947938.0,2150.0,59,R,18945685,18946019,336,960.9,525.8,4618,NA
35,2,binary,9,1,trial,18945788.0,18947938.0,2150.0,59,R,18946053,18946403,352,684.5,509.5,4549,left
35,2,binary,9,1,trial,18945788.0,18947938.0,2150.0,59,R,18946479,18947207,730,1434.4,611.2,4381,right
35,2,binary,9,1,trial,18945788.0,18947938.0,2150.0,59,R,18947291,18947631,342,513.4,563.4,4662,left
35,2,binary,9,1,trial,18945788.0,18947938.0,2150.0,59,R,18947649,18947963,316,471.1,510.5,4564,left
35,2,binary,9,1,trial,18945788.0,18947938.0,2150.0,59,R,18947987,18948127,142,560.8,481.3,4504,left
35,2,binary,10,2,fixationCross,18950604.0,18954804.0,4200.0,60,R,18948387,18948955,570,760.7,294.9,4453,NA
35,2,binary,10,2,fixationCross,18950604.0,18954804.0,4200.0,60,R,18948977,18949769,794,857.0,395.3,4545,NA
35,2,binary,10,2,fixationCross,18950604.0,18954804.0,4200.0,60,R,18949787,18950315,530,845.1,490.0,4800,NA
35,2,binary,10,2,trial,18950604.0,18954804.0,4200.0,60,R,18950337,18950649,314,934.5,530.2,4749,NA
35,2,binary,10,2,trial,18950604.0,18954804.0,4200.0,60,R,18950661,18951057,398,965.2,546.0,4703,NA
35,2,binary,10,2,trial,18950604.0,18954804.0,4200.0,60,R,18951117,18951373,258,560.3,486.6,4507,left
35,2,binary,10,2,trial,18950604.0,18954804.0,4200.0,60,R,18951459,18951741,284,1412.4,548.9,4237,right
35,2,binary,10,2,trial,18950604.0,18954804.0,4200.0,60,R,18951759,18952089,332,1450.9,509.3,4123,right
35,2,binary,10,2,trial,18950604.0,18954804.0,4200.0,60,R,18952113,18952587,476,1368.2,493.6,4203,right
35,2,binary,10,2,trial,18950604.0,18954804.0,4200.0,60,R,18952679,18953011,334,543.3,479.6,4497,left
35,2,binary,10,2,trial,18950604.0,18954804.0,4200.0,60,R,18953021,18953721,702,520.0,446.4,4393,left
35,2,binary,10,2,trial,18950604.0,18954804.0,4200.0,60,R,18953761,18954085,326,525.2,567.2,4428,left
35,2,binary,10,2,trial,18950604.0,18954804.0,4200.0,60,R,18954175,18954649,476,1442.6,558.3,4270,right
35,2,binary,10,2,trial,18950604.0,18954804.0,4200.0,60,R,18954667,18954847,182,1401.2,536.1,4270,right
35,2,binary,10,2,trial,18950604.0,18954804.0,4200.0,60,R,18954861,18955015,156,1373.8,501.9,4327,right
35,2,binary,11,2,fixationCross,18958438.0,18961605.0,3167.0,61,R,18955241,18957717,2478,722.3,416.4,4550,left
35,2,binary,11,2,fixationCross,18958438.0,18961605.0,3167.0,61,R,18957761,18957959,200,841.2,445.4,4665,NA
35,2,binary,11,2,trial,18958438.0,18961605.0,3167.0,61,R,18958163,18958703,542,881.1,489.0,4623,NA
35,2,binary,11,2,trial,18958438.0,18961605.0,3167.0,61,R,18958759,18958971,214,1400.9,570.6,4045,right
35,2,binary,11,2,trial,18958438.0,18961605.0,3167.0,61,R,18958985,18959931,948,1431.8,539.3,3798,right
35,2,binary,11,2,trial,18958438.0,18961605.0,3167.0,61,R,18960015,18960243,230,570.4,506.8,4234,left
35,2,binary,11,2,trial,18958438.0,18961605.0,3167.0,61,R,18960265,18960665,402,502.5,490.8,4193,left
35,2,binary,11,2,trial,18958438.0,18961605.0,3167.0,61,R,18960743,18960949,208,1435.0,606.4,4125,right
35,2,binary,11,2,trial,18958438.0,18961605.0,3167.0,61,R,18960961,18961399,440,1440.2,573.7,4132,right
35,2,binary,11,2,trial,18958438.0,18961605.0,3167.0,61,R,18961409,18961797,390,1433.8,553.6,4070,right
35,2,binary,12,1,fixationCross,18963138.0,18966422.0,3284.0,62,R,18962059,18962111,54,734.9,391.1,4416,left
35,2,binary,12,1,fixationCross,18963138.0,18966422.0,3284.0,62,R,18962135,18962759,626,581.0,324.9,4454,NA
35,2,binary,12,1,fixationCross,18963138.0,18966422.0,3284.0,62,R,18962821,18962985,166,921.3,523.8,4247,NA
35,2,binary,12,1,trial,18963138.0,18966422.0,3284.0,62,R,18962995,18963375,382,957.1,534.9,4375,NA
35,2,binary,12,1,trial,18963138.0,18966422.0,3284.0,62,R,18963425,18964119,696,661.8,522.7,4188,left
35,2,binary,12,1,trial,18963138.0,18966422.0,3284.0,62,R,18964203,18964579,378,1372.9,536.4,4116,right
35,2,binary,12,1,trial,18963138.0,18966422.0,3284.0,62,R,18964663,18964763,102,736.7,528.7,4384,left
35,2,binary,12,1,trial,18963138.0,18966422.0,3284.0,62,R,18964791,18965089,300,596.6,543.9,4387,left
35,2,binary,12,1,trial,18963138.0,18966422.0,3284.0,62,R,18965155,18965405,252,1329.2,550.1,4188,right
35,2,binary,12,1,trial,18963138.0,18966422.0,3284.0,62,R,18965429,18965827,400,1375.0,570.5,4337,right
35,2,binary,12,1,trial,18963138.0,18966422.0,3284.0,62,R,18965909,18966251,344,487.8,582.0,4386,left
35,2,binary,12,1,trial,18963138.0,18966422.0,3284.0,62,R,18966279,18966613,336,441.7,605.5,4277,left
35,2,binary,13,1,fixationCross,18967704.0,18971921.0,4217.0,63,R,18966861,18967359,500,652.2,262.9,4486,NA
35,2,binary,13,1,trial,18967704.0,18971921.0,4217.0,63,R,18967437,18967745,310,957.0,544.6,4246,NA
35,2,binary,13,1,trial,18967704.0,18971921.0,4217.0,63,R,18967765,18967879,116,932.3,533.9,4400,NA
35,2,binary,13,1,trial,18967704.0,18971921.0,4217.0,63,R,18967919,18968433,516,573.1,527.4,4372,left
35,2,binary,13,1,trial,18967704.0,18971921.0,4217.0,63,R,18968455,18968891,438,512.1,573.1,4318,left
35,2,binary,13,1,trial,18967704.0,18971921.0,4217.0,63,R,18968975,18969329,356,1324.9,559.7,4383,right
35,2,binary,13,1,trial,18967704.0,18971921.0,4217.0,63,R,18969349,18969601,254,1396.5,465.7,4350,right
35,2,binary,13,1,trial,18967704.0,18971921.0,4217.0,63,R,18969619,18969917,300,1375.2,436.7,4315,right
35,2,binary,13,1,trial,18967704.0,18971921.0,4217.0,63,R,18969929,18970053,126,1431.0,452.1,4319,right
35,2,binary,13,1,trial,18967704.0,18971921.0,4217.0,63,R,18970075,18970381,308,1511.2,500.3,4362,right
35,2,binary,13,1,trial,18967704.0,18971921.0,4217.0,63,R,18970405,18970743,340,1358.1,556.5,4403,right
35,2,binary,13,1,trial,18967704.0,18971921.0,4217.0,63,R,18970761,18971235,476,1326.3,608.9,4424,right
35,2,binary,13,1,trial,18967704.0,18971921.0,4217.0,63,R,18971315,18971753,440,561.3,559.1,4582,left
35,2,binary,13,1,trial,18967704.0,18971921.0,4217.0,63,R,18971779,18972143,366,497.4,639.1,4531,left
35,2,binary,14,2,fixationCross,18973104.0,18977438.0,4334.0,64,R,18972387,18972797,412,861.2,394.4,4634,NA
35,2,binary,14,2,trial,18973104.0,18977438.0,4334.0,64,R,18972843,18973873,1032,951.6,511.3,4496,NA
35,2,binary,14,2,trial,18973104.0,18977438.0,4334.0,64,R,18973935,18974059,126,1294.6,540.1,4633,right
35,2,binary,14,2,trial,18973104.0,18977438.0,4334.0,64,R,18974085,18974277,194,1381.4,573.5,4684,right
35,2,binary,14,2,trial,18973104.0,18977438.0,4334.0,64,R,18974295,18975001,708,1478.1,570.8,4290,right
35,2,binary,14,2,trial,18973104.0,18977438.0,4334.0,64,R,18975093,18975347,256,605.2,597.0,4424,left
35,2,binary,14,2,trial,18973104.0,18977438.0,4334.0,64,R,18975371,18975731,362,481.4,604.4,4219,left
35,2,binary,14,2,trial,18973104.0,18977438.0,4334.0,64,R,18975751,18976039,290,578.1,575.0,4102,left
35,2,binary,14,2,trial,18973104.0,18977438.0,4334.0,64,R,18976063,18976589,528,439.3,591.3,4165,left
35,2,binary,14,2,trial,18973104.0,18977438.0,4334.0,64,R,18976677,18976915,240,1370.4,547.0,4114,right
35,2,binary,14,2,trial,18973104.0,18977438.0,4334.0,64,R,18976941,18977653,714,1555.1,592.5,4111,right
35,2,binary,15,1,fixationCross,18979355.0,18983721.0,4366.0,65,R,18977885,18978827,944,913.6,110.3,4276,NA
35,2,binary,15,1,fixationCross,18979355.0,18983721.0,4366.0,65,R,18978879,18979063,186,953.1,352.8,4448,NA
35,2,binary,15,1,fixationCross,18979355.0,18983721.0,4366.0,65,R,18979101,18979267,168,964.6,521.6,4632,NA
35,2,binary,15,1,trial,18979355.0,18983721.0,4366.0,65,R,18979289,18979909,622,970.5,552.1,4562,NA
35,2,binary,15,1,trial,18979355.0,18983721.0,4366.0,65,R,18979951,18980207,258,1371.4,593.0,4270,right
35,2,binary,15,1,trial,18979355.0,18983721.0,4366.0,65,R,18980233,18980449,218,1504.7,571.8,4216,right
35,2,binary,15,1,trial,18979355.0,18983721.0,4366.0,65,R,18980463,18980743,282,1539.0,556.3,4067,right
35,2,binary,15,1,trial,18979355.0,18983721.0,4366.0,65,R,18980767,18981285,520,1563.0,670.6,4038,right
35,2,binary,15,1,trial,18979355.0,18983721.0,4366.0,65,R,18981383,18981549,168,642.6,591.1,4154,left
35,2,binary,15,1,trial,18979355.0,18983721.0,4366.0,65,R,18981573,18981837,266,546.1,567.0,4036,left
35,2,binary,15,1,trial,18979355.0,18983721.0,4366.0,65,R,18981851,18982405,556,504.8,546.8,3918,left
35,2,binary,15,1,trial,18979355.0,18983721.0,4366.0,65,R,18982429,18982611,184,440.3,476.5,3934,left
35,2,binary,15,1,trial,18979355.0,18983721.0,4366.0,65,R,18982803,18984013,1212,454.8,518.4,4220,left
35,2,binary,16,1,fixationCross,18985121.0,18989305.0,4184.0,66,R,18984291,18984805,516,552.1,594.3,4486,left
35,2,binary,16,1,fixationCross,18985121.0,18989305.0,4184.0,66,R,18984853,18985007,156,868.3,543.2,4201,NA
35,2,binary,16,1,trial,18985121.0,18989305.0,4184.0,66,R,18985029,18985269,242,946.8,546.9,4367,NA
35,2,binary,16,1,trial,18985121.0,18989305.0,4184.0,66,R,18985329,18985635,308,616.2,573.4,4423,left
35,2,binary,16,1,trial,18985121.0,18989305.0,4184.0,66,R,18985663,18986145,484,564.5,659.7,4173,left
35,2,binary,16,1,trial,18985121.0,18989305.0,4184.0,66,R,18986223,18986397,176,1454.7,566.1,4120,right
35,2,binary,16,1,trial,18985121.0,18989305.0,4184.0,66,R,18986421,18986675,256,1582.0,532.4,4086,right
35,2,binary,16,1,trial,18985121.0,18989305.0,4184.0,66,R,18986713,18987059,348,1352.1,467.6,3989,right
35,2,binary,16,1,trial,18985121.0,18989305.0,4184.0,66,R,18987093,18987571,480,1571.4,672.8,3980,right
35,2,binary,16,1,trial,18985121.0,18989305.0,4184.0,66,R,18987615,18987739,126,1571.3,484.1,3904,right
35,2,binary,16,1,trial,18985121.0,18989305.0,4184.0,66,R,18987827,18988079,254,542.9,608.8,4087,left
35,2,binary,16,1,trial,18985121.0,18989305.0,4184.0,66,R,18988095,18988309,216,522.3,634.0,4057,left
35,2,binary,16,1,trial,18985121.0,18989305.0,4184.0,66,R,18988343,18988643,302,406.6,515.0,3995,left
35,2,binary,16,1,trial,18985121.0,18989305.0,4184.0,66,R,18988655,18988967,314,387.9,492.9,4034,left
35,2,binary,16,1,trial,18985121.0,18989305.0,4184.0,66,R,18988979,18989157,180,369.0,465.3,4075,left
35,2,binary,16,1,trial,18985121.0,18989305.0,4184.0,66,R,18989181,18989481,302,290.0,401.1,4054,left
35,2,binary,17,2,fixationCross,18991038.0,18996056.0,5018.0,67,R,18989725,18990337,614,565.2,418.9,4283,left
35,2,binary,17,2,fixationCross,18991038.0,18996056.0,5018.0,67,R,18990571,18990743,174,829.9,540.9,4294,NA
35,2,binary,17,2,trial,18991038.0,18996056.0,5018.0,67,R,18990763,18991187,426,920.6,530.1,4317,NA
35,2,binary,17,2,trial,18991038.0,18996056.0,5018.0,67,R,18991237,18991605,370,517.3,550.7,4239,left
35,2,binary,17,2,trial,18991038.0,18996056.0,5018.0,67,R,18991633,18992081,450,525.8,697.4,4211,left
35,2,binary,17,2,trial,18991038.0,18996056.0,5018.0,67,R,18992167,18992423,258,1387.5,580.9,4200,right
35,2,binary,17,2,trial,18991038.0,18996056.0,5018.0,67,R,18992467,18992677,212,1581.5,634.4,4257,right
35,2,binary,17,2,trial,18991038.0,18996056.0,5018.0,67,R,18992719,18993657,940,1547.5,479.1,4079,right
35,2,binary,17,2,trial,18991038.0,18996056.0,5018.0,67,R,18993669,18993957,290,1542.3,522.0,4190,right
35,2,binary,17,2,trial,18991038.0,18996056.0,5018.0,67,R,18993993,18994365,374,1602.7,683.3,4060,right
35,2,binary,17,2,trial,18991038.0,18996056.0,5018.0,67,R,18994373,18996249,1878,1634.9,686.9,4034,right
35,2,binary,18,2,fixationCross,18997271.0,19002389.0,5118.0,68,R,18996541,18996899,360,727.2,571.3,4688,left
35,2,binary,18,2,fixationCross,18997271.0,19002389.0,5118.0,68,R,18996919,18996973,56,831.5,517.8,4396,NA
35,2,binary,18,2,trial,18997271.0,19002389.0,5118.0,68,R,18997009,18997487,480,937.4,496.9,4157,NA
35,2,binary,18,2,trial,18997271.0,19002389.0,5118.0,68,R,18997533,18997731,200,536.5,548.3,4363,left
35,2,binary,18,2,trial,18997271.0,19002389.0,5118.0,68,R,18997767,18998081,316,459.8,578.2,4226,left
35,2,binary,18,2,trial,18997271.0,19002389.0,5118.0,68,R,18998169,18998585,418,1390.3,455.9,3998,right
35,2,binary,18,2,trial,18997271.0,19002389.0,5118.0,68,R,18998609,18999011,404,1370.7,595.9,4114,right
35,2,binary,18,2,trial,18997271.0,19002389.0,5118.0,68,R,18999043,18999297,256,1463.9,523.8,4231,right
35,2,binary,18,2,trial,18997271.0,19002389.0,5118.0,68,R,18999321,18999877,558,1515.6,501.0,4335,right
35,2,binary,18,2,trial,18997271.0,19002389.0,5118.0,68,R,18999899,19000397,500,1384.0,412.7,4343,right
35,2,binary,18,2,trial,18997271.0,19002389.0,5118.0,68,R,19000491,19000761,272,493.1,605.8,4284,left
35,2,binary,18,2,trial,18997271.0,19002389.0,5118.0,68,R,19000781,19001013,234,464.2,574.4,4183,left
35,2,binary,18,2,trial,18997271.0,19002389.0,5118.0,68,R,19001095,19001355,262,1419.3,436.2,3969,right
35,2,binary,18,2,trial,18997271.0,19002389.0,5118.0,68,R,19001379,19001883,506,1521.1,495.8,4153,right
35,2,binary,18,2,trial,18997271.0,19002389.0,5118.0,68,R,19001891,19002239,350,1504.5,493.4,4286,right
35,2,binary,18,2,trial,18997271.0,19002389.0,5118.0,68,R,19002257,19002593,338,1455.2,459.1,4312,right
35,2,binary,19,1,fixationCross,19005689.0,19008272.0,2583.0,69,R,19002835,19003749,916,1131.8,418.0,4448,NA
35,2,binary,19,1,fixationCross,19005689.0,19008272.0,2583.0,69,R,19003943,19004637,696,433.9,320.2,4330,NA
35,2,binary,19,1,fixationCross,19005689.0,19008272.0,2583.0,69,R,19004699,19005369,672,749.1,388.6,4326,NA
35,2,binary,19,1,trial,19005689.0,19008272.0,2583.0,69,R,19005415,19005939,526,957.7,540.1,4411,NA
35,2,binary,19,1,trial,19005689.0,19008272.0,2583.0,69,R,19005971,19006247,278,695.2,530.8,4348,left
35,2,binary,19,1,trial,19005689.0,19008272.0,2583.0,69,R,19006271,19006497,228,527.7,525.5,4353,left
35,2,binary,19,1,trial,19005689.0,19008272.0,2583.0,69,R,19006569,19006795,228,1341.0,549.1,4326,right
35,2,binary,19,1,trial,19005689.0,19008272.0,2583.0,69,R,19006813,19007267,456,1380.7,500.1,4155,right
35,2,binary,19,1,trial,19005689.0,19008272.0,2583.0,69,R,19007351,19008155,806,504.8,545.0,4402,left
35,2,binary,19,1,trial,19005689.0,19008272.0,2583.0,69,R,19008165,19008451,288,482.8,572.4,4584,left
35,2,binary,20,2,fixationCross,19009572.0,19014372.0,4800.0,70,R,19008751,19008975,226,447.6,478.8,4632,left
35,2,binary,20,2,fixationCross,19009572.0,19014372.0,4800.0,70,R,19009295,19009441,148,947.1,600.9,4319,NA
35,2,binary,20,2,trial,19009572.0,19014372.0,4800.0,70,R,19009459,19009731,274,981.0,562.1,4431,NA
35,2,binary,20,2,trial,19009572.0,19014372.0,4800.0,70,R,19009779,19010015,238,661.7,551.6,4107,left
35,2,binary,20,2,trial,19009572.0,19014372.0,4800.0,70,R,19010083,19010345,264,1381.7,540.7,3961,right
35,2,binary,20,2,trial,19009572.0,19014372.0,4800.0,70,R,19010389,19010847,460,1616.7,525.2,3933,right
35,2,binary,20,2,trial,19009572.0,19014372.0,4800.0,70,R,19010921,19011243,324,605.0,663.4,4140,left
35,2,binary,20,2,trial,19009572.0,19014372.0,4800.0,70,R,19011267,19011537,272,535.2,587.7,4133,left
35,2,binary,20,2,trial,19009572.0,19014372.0,4800.0,70,R,19011553,19012169,618,553.1,537.7,4108,left
35,2,binary,20,2,trial,19009572.0,19014372.0,4800.0,70,R,19012189,19012623,436,489.3,563.9,4213,left
35,2,binary,20,2,trial,19009572.0,19014372.0,4800.0,70,R,19012639,19013013,376,563.2,546.0,4207,left
35,2,binary,20,2,trial,19009572.0,19014372.0,4800.0,70,R,19013029,19013301,274,612.6,539.7,4220,left
35,2,binary,20,2,trial,19009572.0,19014372.0,4800.0,70,R,19013379,19013759,382,1310.2,534.4,4150,right
35,2,binary,20,2,trial,19009572.0,19014372.0,4800.0,70,R,19013783,19013991,210,1450.0,492.2,4130,right
35,2,binary,20,2,trial,19009572.0,19014372.0,4800.0,70,R,19014011,19014553,544,1549.7,467.7,4014,right
35,2,binary,21,1,fixationCross,19016072.0,19021439.0,5367.0,71,R,19014815,19014903,90,926.3,245.6,4139,NA
35,2,binary,21,1,fixationCross,19016072.0,19021439.0,5367.0,71,R,19014969,19015717,750,761.1,-54.9,4083,NA
35,2,binary,21,1,trial,19016072.0,19021439.0,5367.0,71,R,19015813,19016287,476,964.5,530.8,4181,NA
35,2,binary,21,1,trial,19016072.0,19021439.0,5367.0,71,R,19016331,19016655,326,591.3,492.3,4161,left
35,2,binary,21,1,trial,19016072.0,19021439.0,5367.0,71,R,19016741,19017017,278,1416.9,502.2,4037,right
35,2,binary,21,1,trial,19016072.0,19021439.0,5367.0,71,R,19017037,19017401,366,1519.8,479.1,3901,right
35,2,binary,21,1,trial,19016072.0,19021439.0,5367.0,71,R,19017487,19018019,534,532.9,483.1,4012,left
35,2,binary,21,1,trial,19016072.0,19021439.0,5367.0,71,R,19018037,19018201,166,588.5,482.9,4171,left
35,2,binary,21,1,trial,19016072.0,19021439.0,5367.0,71,R,19018283,19018501,220,1428.2,567.9,4169,right
35,2,binary,21,1,trial,19016072.0,19021439.0,5367.0,71,R,19018521,19018721,202,1373.6,537.8,4139,right
35,2,binary,21,1,trial,19016072.0,19021439.0,5367.0,71,R,19018743,19021165,2424,1511.2,555.9,4230,right
35,2,binary,21,1,trial,19016072.0,19021439.0,5367.0,71,R,19021273,19021449,178,522.4,958.4,4578,NA
35,2,binary,21,1,trial,19016072.0,19021439.0,5367.0,71,R,19021467,19021619,154,506.4,993.8,4462,NA
35,2,binary,22,2,fixationCross,19022822.0,19025756.0,2934.0,72,R,19021899,19021975,78,860.9,432.6,4216,NA
35,2,binary,22,2,fixationCross,19022822.0,19025756.0,2934.0,72,R,19022271,19022543,274,814.0,430.4,4473,NA
35,2,binary,22,2,trial,19022822.0,19025756.0,2934.0,72,R,19022567,19023045,480,954.6,529.1,4205,NA
35,2,binary,22,2,trial,19022822.0,19025756.0,2934.0,72,R,19023107,19023261,156,523.7,533.7,4194,left
35,2,binary,22,2,trial,19022822.0,19025756.0,2934.0,72,R,19023343,19023773,432,1386.0,520.7,4190,right
35,2,binary,22,2,trial,19022822.0,19025756.0,2934.0,72,R,19023797,19024369,574,1354.2,617.2,4367,right
35,2,binary,22,2,trial,19022822.0,19025756.0,2934.0,72,R,19024407,19024587,182,1072.2,571.1,4515,NA
35,2,binary,22,2,trial,19022822.0,19025756.0,2934.0,72,R,19024653,19024971,320,551.8,555.0,4528,left
35,2,binary,22,2,trial,19022822.0,19025756.0,2934.0,72,R,19024991,19025139,150,515.8,549.0,4351,left
35,2,binary,22,2,trial,19022822.0,19025756.0,2934.0,72,R,19025217,19025521,306,1373.0,537.7,4196,right
35,2,binary,22,2,trial,19022822.0,19025756.0,2934.0,72,R,19025545,19025935,392,1423.6,482.3,4338,right
35,2,binary,23,1,fixationCross,19026839.0,19029422.0,2583.0,73,R,19026225,19026537,314,1267.6,408.3,4406,right
35,2,binary,23,1,fixationCross,19026839.0,19029422.0,2583.0,73,R,19026569,19026783,216,975.7,580.8,4415,NA
35,2,binary,23,1,trial,19026839.0,19029422.0,2583.0,73,R,19026799,19027027,230,964.3,557.6,4279,NA
35,2,binary,23,1,trial,19026839.0,19029422.0,2583.0,73,R,19027067,19027249,184,618.6,572.3,4360,left
35,2,binary,23,1,trial,19026839.0,19029422.0,2583.0,73,R,19027293,19027627,336,373.7,464.1,4148,left
35,2,binary,23,1,trial,19026839.0,19029422.0,2583.0,73,R,19027711,19028075,366,1494.0,535.6,3917,right
35,2,binary,23,1,trial,19026839.0,19029422.0,2583.0,73,R,19028095,19028391,298,1506.0,467.4,4169,right
35,2,binary,23,1,trial,19026839.0,19029422.0,2583.0,73,R,19028491,19028663,174,689.9,548.9,4472,left
35,2,binary,23,1,trial,19026839.0,19029422.0,2583.0,73,R,19028685,19029345,662,668.8,568.6,4269,left
35,2,binary,23,1,trial,19026839.0,19029422.0,2583.0,73,R,19029417,19029637,222,512.0,961.4,4392,NA
