participantNo,block,task,blockTrial,response,trialStage,trialStartTime,trialFinishTime,rt,trial,eye,fixStart,fixEnd,fixLength,fixPosX,fixPosY,dilation,aoi
28,1,binary,1,1,fixationCross,15164416.0,15168483.0,4067.0,1,R,15163639,15163867,230,920.1,896.2,5108,likertHorizontal
28,1,binary,1,1,fixationCross,15164416.0,15168483.0,4067.0,1,R,15163887,15164057,172,1033.5,898.0,5082,likertHorizontal
28,1,binary,1,1,fixationCross,15164416.0,15168483.0,4067.0,1,R,15164097,15164229,134,976.3,597.6,5004,NA
28,1,binary,1,1,trial,15164416.0,15168483.0,4067.0,1,R,15164249,15164559,312,975.4,569.5,4929,NA
28,1,binary,1,1,trial,15164416.0,15168483.0,4067.0,1,R,15164603,15164827,226,1255.2,611.5,4690,right
28,1,binary,1,1,trial,15164416.0,15168483.0,4067.0,1,R,15164881,15164965,86,1419.4,948.3,4544,NA
28,1,binary,1,1,trial,15164416.0,15168483.0,4067.0,1,R,15164987,15165031,46,1346.7,978.5,4574,NA
28,1,binary,1,1,trial,15164416.0,15168483.0,4067.0,1,R,15165099,15165241,144,417.7,1020.6,4823,NA
28,1,binary,1,1,trial,15164416.0,15168483.0,4067.0,1,R,15165255,15165325,72,469.3,1017.3,4866,NA
28,1,binary,1,1,trial,15164416.0,15168483.0,4067.0,1,R,15165375,15165591,218,480.1,616.5,4855,left
28,1,binary,1,1,trial,15164416.0,15168483.0,4067.0,1,R,15165609,15165795,188,548.7,629.3,4799,left
28,1,binary,1,1,trial,15164416.0,15168483.0,4067.0,1,R,15165855,15166037,184,1363.6,575.6,4522,right
28,1,binary,1,1,trial,15164416.0,15168483.0,4067.0,1,R,15166059,15166257,200,1489.3,628.9,4491,right
28,1,binary,1,1,trial,15164416.0,15168483.0,4067.0,1,R,15166273,15166461,190,1500.0,590.6,4481,right
28,1,binary,1,1,trial,15164416.0,15168483.0,4067.0,1,R,15166523,15167055,534,685.5,618.4,4738,left
28,1,binary,1,1,trial,15164416.0,15168483.0,4067.0,1,R,15167097,15167381,286,529.8,771.7,5004,NA
28,1,binary,1,1,trial,15164416.0,15168483.0,4067.0,1,R,15167427,15167945,520,499.9,987.0,5015,NA
28,1,binary,1,1,trial,15164416.0,15168483.0,4067.0,1,R,15167985,15168271,288,552.1,659.6,4748,left
28,1,binary,1,1,postResponse,15164416.0,15168483.0,4067.0,1,R,15168283,15168847,566,589.3,664.4,4657,left
28,1,binary,2,2,fixationCross,15169615.0,15176049.0,6434.0,2,R,15169011,15169289,280,630.8,631.6,4857,left
28,1,binary,2,2,fixationCross,15169615.0,15176049.0,6434.0,2,R,15169335,15169459,126,958.1,598.7,5006,NA
28,1,binary,2,2,trial,15169615.0,15176049.0,6434.0,2,R,15169479,15169925,448,976.9,569.6,4751,NA
28,1,binary,2,2,trial,15169615.0,15176049.0,6434.0,2,R,15169979,15170099,122,1478.1,600.9,4393,right
28,1,binary,2,2,trial,15169615.0,15176049.0,6434.0,2,R,15170149,15170247,100,1368.4,963.9,4456,NA
28,1,binary,2,2,trial,15169615.0,15176049.0,6434.0,2,R,15170265,15170355,92,1413.3,990.8,4475,NA
28,1,binary,2,2,trial,15169615.0,15176049.0,6434.0,2,R,15170421,15170553,134,553.5,843.9,4674,NA
28,1,binary,2,2,trial,15169615.0,15176049.0,6434.0,2,R,15170579,15170771,194,520.5,672.0,4685,left
28,1,binary,2,2,trial,15169615.0,15176049.0,6434.0,2,R,15170791,15170931,142,536.8,609.8,4630,left
28,1,binary,2,2,trial,15169615.0,15176049.0,6434.0,2,R,15170947,15171377,432,494.1,573.0,4408,left
28,1,binary,2,2,trial,15169615.0,15176049.0,6434.0,2,R,15171445,15171637,194,1452.0,536.8,4158,right
28,1,binary,2,2,trial,15169615.0,15176049.0,6434.0,2,R,15171655,15171777,124,1460.0,459.3,4258,right
28,1,binary,2,2,trial,15169615.0,15176049.0,6434.0,2,R,15171795,15172109,316,1466.1,415.0,4335,right
28,1,binary,2,2,trial,15169615.0,15176049.0,6434.0,2,R,15172131,15172349,220,1495.8,540.8,4272,right
28,1,binary,2,2,trial,15169615.0,15176049.0,6434.0,2,R,15172363,15172569,208,1562.2,542.0,4273,right
28,1,binary,2,2,trial,15169615.0,15176049.0,6434.0,2,R,15172579,15172799,222,1583.7,549.6,4334,right
28,1,binary,2,2,trial,15169615.0,15176049.0,6434.0,2,R,15172821,15172973,154,1476.1,529.6,4402,right
28,1,binary,2,2,trial,15169615.0,15176049.0,6434.0,2,R,15172993,15173179,188,1459.3,448.1,4417,right
28,1,binary,2,2,trial,15169615.0,15176049.0,6434.0,2,R,15173249,15173483,236,559.4,619.0,4677,left
28,1,binary,2,2,trial,15169615.0,15176049.0,6434.0,2,R,15173501,15173679,180,501.6,566.7,4544,left
28,1,binary,2,2,trial,15169615.0,15176049.0,6434.0,2,R,15173689,15174119,432,510.4,531.9,4318,left
28,1,binary,2,2,trial,15169615.0,15176049.0,6434.0,2,R,15174187,15174363,178,1421.1,509.5,4012,right
28,1,binary,2,2,trial,15169615.0,15176049.0,6434.0,2,R,15174377,15174613,238,1468.4,497.1,4000,right
28,1,binary,2,2,trial,15169615.0,15176049.0,6434.0,2,R,15174757,15174781,26,1503.5,805.5,4444,NA
28,1,binary,2,2,trial,15169615.0,15176049.0,6434.0,2,R,15174789,15174863,76,1495.0,862.1,4273,NA
28,1,binary,2,2,trial,15169615.0,15176049.0,6434.0,2,R,15174909,15175059,152,1437.2,485.9,4298,right
28,1,binary,2,2,trial,15169615.0,15176049.0,6434.0,2,R,15175083,15175411,330,1459.0,415.9,4444,right
28,1,binary,2,2,trial,15169615.0,15176049.0,6434.0,2,R,15175433,15175603,172,1506.6,512.0,4375,right
28,1,binary,2,2,trial,15169615.0,15176049.0,6434.0,2,R,15175655,15175787,134,1475.7,925.0,4501,NA
28,1,binary,2,2,trial,15169615.0,15176049.0,6434.0,2,R,15175799,15175937,140,1452.9,963.6,4542,NA
28,1,binary,2,2,postResponse,15169615.0,15176049.0,6434.0,2,R,15175977,15176413,438,1484.5,563.2,4504,right
28,1,binary,3,1,fixationCross,15176999.0,15181432.0,4433.0,3,R,15176487,15176529,44,1482.0,564.8,4529,right
28,1,binary,3,1,fixationCross,15176999.0,15181432.0,4433.0,3,R,15176579,15176775,198,1047.5,567.9,4756,NA
28,1,binary,3,1,trial,15176999.0,15181432.0,4433.0,3,R,15176897,15177033,138,960.6,547.9,4875,NA
28,1,binary,3,1,trial,15176999.0,15181432.0,4433.0,3,R,15177051,15177245,196,977.2,549.2,4939,NA
28,1,binary,3,1,trial,15176999.0,15181432.0,4433.0,3,R,15177297,15177531,236,1416.0,620.7,4614,right
28,1,binary,3,1,trial,15176999.0,15181432.0,4433.0,3,R,15177551,15177791,242,1476.4,556.4,4322,right
28,1,binary,3,1,trial,15176999.0,15181432.0,4433.0,3,R,15177859,15178099,242,554.7,545.4,4482,left
28,1,binary,3,1,trial,15176999.0,15181432.0,4433.0,3,R,15178111,15178257,148,601.5,537.8,4500,left
28,1,binary,3,1,trial,15176999.0,15181432.0,4433.0,3,R,15178279,15178591,314,483.8,552.6,4570,left
28,1,binary,3,1,trial,15176999.0,15181432.0,4433.0,3,R,15178659,15178939,282,1449.8,531.9,4460,right
28,1,binary,3,1,trial,15176999.0,15181432.0,4433.0,3,R,15178953,15179107,156,1473.8,488.7,4379,right
28,1,binary,3,1,trial,15176999.0,15181432.0,4433.0,3,R,15179177,15179451,276,479.5,492.8,4548,left
28,1,binary,3,1,trial,15176999.0,15181432.0,4433.0,3,R,15179463,15179619,158,482.0,524.4,4690,left
28,1,binary,3,1,trial,15176999.0,15181432.0,4433.0,3,R,15179629,15179939,312,490.8,540.1,4808,left
28,1,binary,3,1,trial,15176999.0,15181432.0,4433.0,3,R,15179961,15180449,490,491.3,439.3,4867,left
28,1,binary,3,1,trial,15176999.0,15181432.0,4433.0,3,R,15180469,15180697,230,590.6,450.6,4688,left
28,1,binary,3,1,trial,15176999.0,15181432.0,4433.0,3,R,15180721,15180909,190,517.3,557.0,4661,left
28,1,binary,3,1,trial,15176999.0,15181432.0,4433.0,3,R,15180961,15181255,296,522.0,938.2,4828,NA
28,1,binary,3,1,postResponse,15176999.0,15181432.0,4433.0,3,R,15181297,15181779,484,533.6,688.2,4672,left
28,1,binary,4,1,fixationCross,15182499.0,15198216.0,15717.0,4,R,15181979,15182179,202,624.1,583.5,4781,left
28,1,binary,4,1,fixationCross,15182499.0,15198216.0,15717.0,4,R,15182225,15182365,142,946.3,568.0,4903,NA
28,1,binary,4,1,trial,15182499.0,15198216.0,15717.0,4,R,15182377,15182655,280,974.1,557.4,4855,NA
28,1,binary,4,1,trial,15182499.0,15198216.0,15717.0,4,R,15182707,15182955,250,1370.5,593.7,4494,right
28,1,binary,4,1,trial,15182499.0,15198216.0,15717.0,4,R,15183017,15183213,198,558.9,613.8,4518,left
28,1,binary,4,1,trial,15182499.0,15198216.0,15717.0,4,R,15183223,15183499,278,520.2,602.7,4440,left
28,1,binary,4,1,trial,15182499.0,15198216.0,15717.0,4,R,15183577,15183747,172,1352.6,541.7,4071,right
28,1,binary,4,1,trial,15182499.0,15198216.0,15717.0,4,R,15183765,15184201,438,1423.1,552.5,4150,right
28,1,binary,4,1,trial,15182499.0,15198216.0,15717.0,4,R,15184217,15184409,194,1445.2,613.4,4290,right
28,1,binary,4,1,trial,15182499.0,15198216.0,15717.0,4,R,15184419,15184569,152,1435.8,581.6,4316,right
28,1,binary,4,1,trial,15182499.0,15198216.0,15717.0,4,R,15184649,15184841,194,549.9,611.5,4590,left
28,1,binary,4,1,trial,15182499.0,15198216.0,15717.0,4,R,15184855,15185143,290,513.5,595.6,4457,left
28,1,binary,4,1,trial,15182499.0,15198216.0,15717.0,4,R,15185207,15185377,172,1322.7,554.8,4072,right
28,1,binary,4,1,trial,15182499.0,15198216.0,15717.0,4,R,15185397,15185771,376,1426.5,557.0,4138,right
28,1,binary,4,1,trial,15182499.0,15198216.0,15717.0,4,R,15185783,15186049,268,1474.1,559.8,4240,right
28,1,binary,4,1,trial,15182499.0,15198216.0,15717.0,4,R,15186061,15186227,168,1425.3,550.7,4315,right
28,1,binary,4,1,trial,15182499.0,15198216.0,15717.0,4,R,15186293,15186459,168,559.4,571.8,4594,left
28,1,binary,4,1,trial,15182499.0,15198216.0,15717.0,4,R,15186481,15186915,436,515.6,584.1,4552,left
28,1,binary,4,1,trial,15182499.0,15198216.0,15717.0,4,R,15186927,15187601,676,539.0,611.6,4551,left
28,1,binary,4,1,trial,15182499.0,15198216.0,15717.0,4,R,15187611,15187825,216,516.1,590.8,4617,left
28,1,binary,4,1,trial,15182499.0,15198216.0,15717.0,4,R,15187843,15188051,210,582.8,598.1,4602,left
28,1,binary,4,1,trial,15182499.0,15198216.0,15717.0,4,R,15188121,15188469,350,1344.6,625.8,4398,right
28,1,binary,4,1,trial,15182499.0,15198216.0,15717.0,4,R,15188509,15188589,82,1507.7,603.0,4372,right
28,1,binary,4,1,trial,15182499.0,15198216.0,15717.0,4,R,15188743,15189041,300,1449.0,557.6,4467,right
28,1,binary,4,1,trial,15182499.0,15198216.0,15717.0,4,R,15189053,15190033,982,1422.9,542.8,4458,right
28,1,binary,4,1,trial,15182499.0,15198216.0,15717.0,4,R,15190049,15190217,170,1358.2,589.4,4565,right
28,1,binary,4,1,trial,15182499.0,15198216.0,15717.0,4,R,15190231,15190401,172,1382.6,626.2,4620,right
28,1,binary,4,1,trial,15182499.0,15198216.0,15717.0,4,R,15190423,15190601,180,1511.6,639.0,4622,right
28,1,binary,4,1,trial,15182499.0,15198216.0,15717.0,4,R,15190619,15190943,326,1594.4,648.4,4611,right
28,1,binary,4,1,trial,15182499.0,15198216.0,15717.0,4,R,15190959,15191173,216,1520.2,611.5,4606,right
28,1,binary,4,1,trial,15182499.0,15198216.0,15717.0,4,R,15191195,15191377,184,1434.6,501.8,4557,right
28,1,binary,4,1,trial,15182499.0,15198216.0,15717.0,4,R,15191449,15191677,230,484.7,560.8,4820,left
28,1,binary,4,1,trial,15182499.0,15198216.0,15717.0,4,R,15191703,15191877,176,334.1,532.7,4694,left
28,1,binary,4,1,trial,15182499.0,15198216.0,15717.0,4,R,15191891,15192139,250,281.7,524.0,4484,left
28,1,binary,4,1,trial,15182499.0,15198216.0,15717.0,4,R,15192149,15192409,262,318.0,508.3,4350,left
28,1,binary,4,1,trial,15182499.0,15198216.0,15717.0,4,R,15192435,15192765,332,449.9,459.3,4305,left
28,1,binary,4,1,trial,15182499.0,15198216.0,15717.0,4,R,15192787,15192889,104,503.1,510.1,4380,left
28,1,binary,4,1,trial,15182499.0,15198216.0,15717.0,4,R,15192959,15193069,112,1134.2,599.8,4369,NA
28,1,binary,4,1,trial,15182499.0,15198216.0,15717.0,4,R,15193113,15193907,796,1420.3,535.3,4539,right
28,1,binary,4,1,trial,15182499.0,15198216.0,15717.0,4,R,15193921,15194109,190,1466.1,568.3,4650,right
28,1,binary,4,1,trial,15182499.0,15198216.0,15717.0,4,R,15194147,15194321,176,1544.5,651.7,4713,right
28,1,binary,4,1,trial,15182499.0,15198216.0,15717.0,4,R,15194335,15194723,390,1600.3,651.8,4781,right
28,1,binary,4,1,trial,15182499.0,15198216.0,15717.0,4,R,15194745,15195039,296,1474.2,631.1,4800,right
28,1,binary,4,1,trial,15182499.0,15198216.0,15717.0,4,R,15195055,15195607,554,1417.2,656.2,4722,right
28,1,binary,4,1,trial,15182499.0,15198216.0,15717.0,4,R,15195627,15195899,274,1418.8,569.0,4643,right
28,1,binary,4,1,trial,15182499.0,15198216.0,15717.0,4,R,15195919,15196105,188,1370.7,563.5,4647,right
28,1,binary,4,1,trial,15182499.0,15198216.0,15717.0,4,R,15196121,15196205,86,1412.9,565.1,4638,right
28,1,binary,4,1,trial,15182499.0,15198216.0,15717.0,4,R,15196271,15196441,172,591.8,613.6,4881,left
28,1,binary,4,1,trial,15182499.0,15198216.0,15717.0,4,R,15196455,15197269,816,531.3,608.2,4632,left
28,1,binary,4,1,trial,15182499.0,15198216.0,15717.0,4,R,15197287,15197837,552,533.8,666.3,4664,left
28,1,binary,4,1,trial,15182499.0,15198216.0,15717.0,4,R,15197851,15198429,580,583.3,683.9,4726,left
28,1,binary,4,1,postResponse,15182499.0,15198216.0,15717.0,4,R,15198561,15198589,30,564.9,617.2,4699,left
28,1,binary,5,2,fixationCross,15199332.0,15202066.0,2734.0,5,R,15198663,15198997,336,576.8,616.0,4864,left
28,1,binary,5,2,fixationCross,15199332.0,15202066.0,2734.0,5,R,15199045,15199179,136,950.4,585.4,4798,NA
28,1,binary,5,2,trial,15199332.0,15202066.0,2734.0,5,R,15199191,15199481,292,966.8,572.4,4657,NA
28,1,binary,5,2,trial,15199332.0,15202066.0,2734.0,5,R,15199517,15199623,108,790.6,564.9,4699,NA
28,1,binary,5,2,trial,15199332.0,15202066.0,2734.0,5,R,15199665,15199817,154,515.9,615.1,4527,left
28,1,binary,5,2,trial,15199332.0,15202066.0,2734.0,5,R,15199829,15200023,196,535.7,564.7,4314,left
28,1,binary,5,2,trial,15199332.0,15202066.0,2734.0,5,R,15200037,15200139,104,540.3,528.0,4189,left
28,1,binary,5,2,trial,15199332.0,15202066.0,2734.0,5,R,15200203,15200377,176,1409.8,601.3,3934,right
28,1,binary,5,2,trial,15199332.0,15202066.0,2734.0,5,R,15200395,15200771,378,1453.2,649.8,3967,right
28,1,binary,5,2,trial,15199332.0,15202066.0,2734.0,5,R,15200781,15200867,88,1477.7,664.2,4036,right
28,1,binary,5,2,trial,15199332.0,15202066.0,2734.0,5,R,15200931,15201135,206,585.0,531.0,4237,left
28,1,binary,5,2,trial,15199332.0,15202066.0,2734.0,5,R,15201155,15201457,304,540.5,536.1,4225,left
28,1,binary,5,2,trial,15199332.0,15202066.0,2734.0,5,R,15201465,15201555,92,546.2,516.1,4187,left
28,1,binary,5,2,trial,15199332.0,15202066.0,2734.0,5,R,15201619,15201891,274,1440.5,617.9,4009,right
28,1,binary,5,2,trial,15199332.0,15202066.0,2734.0,5,R,15201905,15202139,236,1467.9,657.7,4170,right
28,1,binary,5,2,postResponse,15199332.0,15202066.0,2734.0,5,R,15202155,15202407,254,1438.0,612.9,4236,right
28,1,binary,6,2,fixationCross,15203182.0,15213949.0,10767.0,6,R,15202507,15202569,64,1437.9,614.2,4287,right
28,1,binary,6,2,fixationCross,15203182.0,15213949.0,10767.0,6,R,15202617,15202869,254,1109.2,633.5,4589,NA
28,1,binary,6,2,fixationCross,15203182.0,15213949.0,10767.0,6,R,15202891,15203033,144,990.9,593.5,4729,NA
28,1,binary,6,2,trial,15203182.0,15213949.0,10767.0,6,R,15203047,15203281,236,975.8,564.9,4739,NA
28,1,binary,6,2,trial,15203182.0,15213949.0,10767.0,6,R,15203365,15203469,106,809.2,583.2,4709,NA
28,1,binary,6,2,trial,15203182.0,15213949.0,10767.0,6,R,15203521,15203791,272,1459.2,563.0,4485,right
28,1,binary,6,2,trial,15203182.0,15213949.0,10767.0,6,R,15203869,15204387,520,486.9,548.8,4684,left
28,1,binary,6,2,trial,15203182.0,15213949.0,10767.0,6,R,15204401,15204797,398,491.3,518.8,4483,left
28,1,binary,6,2,trial,15203182.0,15213949.0,10767.0,6,R,15204865,15205067,204,1439.9,528.6,4247,right
28,1,binary,6,2,trial,15203182.0,15213949.0,10767.0,6,R,15205085,15205295,212,1465.4,574.6,4269,right
28,1,binary,6,2,trial,15203182.0,15213949.0,10767.0,6,R,15205305,15205413,110,1462.9,541.3,4331,right
28,1,binary,6,2,trial,15203182.0,15213949.0,10767.0,6,R,15205433,15205607,176,1447.0,491.8,4386,right
28,1,binary,6,2,trial,15203182.0,15213949.0,10767.0,6,R,15205623,15205689,68,1399.0,492.5,4432,right
28,1,binary,6,2,trial,15203182.0,15213949.0,10767.0,6,R,15205753,15205983,232,509.7,554.9,4722,left
28,1,binary,6,2,trial,15203182.0,15213949.0,10767.0,6,R,15206003,15206495,494,482.1,500.3,4507,left
28,1,binary,6,2,trial,15203182.0,15213949.0,10767.0,6,R,15206563,15206757,196,1435.8,535.0,4205,right
28,1,binary,6,2,trial,15203182.0,15213949.0,10767.0,6,R,15206771,15206921,152,1477.3,515.9,4236,right
28,1,binary,6,2,trial,15203182.0,15213949.0,10767.0,6,R,15206935,15207245,312,1531.9,503.0,4311,right
28,1,binary,6,2,trial,15203182.0,15213949.0,10767.0,6,R,15207259,15207439,182,1459.4,499.5,4380,right
28,1,binary,6,2,trial,15203182.0,15213949.0,10767.0,6,R,15207453,15207607,156,1412.1,493.1,4391,right
28,1,binary,6,2,trial,15203182.0,15213949.0,10767.0,6,R,15207685,15207975,292,451.8,554.2,4708,left
28,1,binary,6,2,trial,15203182.0,15213949.0,10767.0,6,R,15207997,15208461,466,361.1,573.6,4752,left
28,1,binary,6,2,trial,15203182.0,15213949.0,10767.0,6,R,15208535,15208753,220,1447.3,541.6,4478,right
28,1,binary,6,2,trial,15203182.0,15213949.0,10767.0,6,R,15208775,15209417,644,1466.0,628.0,4651,right
28,1,binary,6,2,trial,15203182.0,15213949.0,10767.0,6,R,15209499,15209997,500,468.2,595.4,4806,left
28,1,binary,6,2,trial,15203182.0,15213949.0,10767.0,6,R,15210013,15210583,572,420.8,567.0,4557,left
28,1,binary,6,2,trial,15203182.0,15213949.0,10767.0,6,R,15210601,15210965,366,496.4,567.6,4287,left
28,1,binary,6,2,trial,15203182.0,15213949.0,10767.0,6,R,15210977,15211203,228,452.6,552.7,4375,left
28,1,binary,6,2,trial,15203182.0,15213949.0,10767.0,6,R,15211215,15211657,444,478.8,532.3,4351,left
28,1,binary,6,2,trial,15203182.0,15213949.0,10767.0,6,R,15211787,15212013,228,1485.2,549.1,4160,right
28,1,binary,6,2,trial,15203182.0,15213949.0,10767.0,6,R,15212023,15212167,146,1493.5,532.5,4258,right
28,1,binary,6,2,trial,15203182.0,15213949.0,10767.0,6,R,15212183,15212403,222,1536.4,494.9,4332,right
28,1,binary,6,2,trial,15203182.0,15213949.0,10767.0,6,R,15212419,15212795,378,1469.4,493.8,4410,right
28,1,binary,6,2,trial,15203182.0,15213949.0,10767.0,6,R,15212817,15213023,208,1596.0,490.4,4529,right
28,1,binary,6,2,trial,15203182.0,15213949.0,10767.0,6,R,15213035,15213407,374,1635.1,499.3,4628,right
28,1,binary,6,2,trial,15203182.0,15213949.0,10767.0,6,R,15213447,15213605,160,1460.8,545.0,4680,right
28,1,binary,6,2,trial,15203182.0,15213949.0,10767.0,6,R,15213623,15214247,626,1456.4,613.4,4677,right
28,1,binary,7,1,fixationCross,15215049.0,15221250.0,6201.0,7,R,15214369,15214727,360,600.9,595.6,4861,left
28,1,binary,7,1,trial,15215049.0,15221250.0,6201.0,7,R,15214773,15215219,448,975.6,556.0,4659,NA
28,1,binary,7,1,trial,15215049.0,15221250.0,6201.0,7,R,15215231,15215311,82,976.3,579.2,4670,NA
28,1,binary,7,1,trial,15215049.0,15221250.0,6201.0,7,R,15215399,15215511,114,1418.7,632.2,4398,right
28,1,binary,7,1,trial,15215049.0,15221250.0,6201.0,7,R,15215649,15215775,128,1410.9,585.3,4345,right
28,1,binary,7,1,trial,15215049.0,15221250.0,6201.0,7,R,15215795,15216491,698,1460.5,534.4,4273,right
28,1,binary,7,1,trial,15215049.0,15221250.0,6201.0,7,R,15216569,15216801,234,525.7,570.5,4382,left
28,1,binary,7,1,trial,15215049.0,15221250.0,6201.0,7,R,15216869,15217039,172,1432.0,583.9,4118,right
28,1,binary,7,1,trial,15215049.0,15221250.0,6201.0,7,R,15217053,15217201,150,1480.7,594.0,4068,right
28,1,binary,7,1,trial,15215049.0,15221250.0,6201.0,7,R,15217211,15217597,388,1490.1,613.8,4146,right
28,1,binary,7,1,trial,15215049.0,15221250.0,6201.0,7,R,15217635,15217785,152,1379.3,438.4,4155,right
28,1,binary,7,1,trial,15215049.0,15221250.0,6201.0,7,R,15217803,15217917,116,1301.6,421.3,4168,right
28,1,binary,7,1,trial,15215049.0,15221250.0,6201.0,7,R,15217927,15218147,222,1273.1,419.1,4208,right
28,1,binary,7,1,trial,15215049.0,15221250.0,6201.0,7,R,15218187,15218469,284,1471.2,461.3,4279,right
28,1,binary,7,1,trial,15215049.0,15221250.0,6201.0,7,R,15218481,15218715,236,1509.1,482.7,4337,right
28,1,binary,7,1,trial,15215049.0,15221250.0,6201.0,7,R,15218735,15218999,266,1444.5,564.0,4410,right
28,1,binary,7,1,trial,15215049.0,15221250.0,6201.0,7,R,15219077,15219281,206,586.9,609.8,4715,left
28,1,binary,7,1,trial,15215049.0,15221250.0,6201.0,7,R,15219343,15219517,176,1378.5,547.0,4360,right
28,1,binary,7,1,trial,15215049.0,15221250.0,6201.0,7,R,15219537,15219685,150,1463.5,569.9,4250,right
28,1,binary,7,1,trial,15215049.0,15221250.0,6201.0,7,R,15219705,15220213,510,1491.8,613.8,4309,right
28,1,binary,7,1,trial,15215049.0,15221250.0,6201.0,7,R,15220235,15220423,190,1431.9,678.6,4235,right
28,1,binary,7,1,trial,15215049.0,15221250.0,6201.0,7,R,15220437,15220719,284,1380.8,683.3,4244,right
28,1,binary,7,1,trial,15215049.0,15221250.0,6201.0,7,R,15220787,15221237,452,527.5,666.1,4520,left
28,1,binary,7,1,postResponse,15215049.0,15221250.0,6201.0,7,R,15221253,15221597,346,578.8,658.4,4453,left
28,1,binary,8,1,fixationCross,15222399.0,15230766.0,8367.0,8,R,15221697,15221951,256,585.3,661.1,4545,left
28,1,binary,8,1,fixationCross,15222399.0,15230766.0,8367.0,8,R,15221993,15222099,108,841.5,646.9,4537,NA
28,1,binary,8,1,trial,15222399.0,15230766.0,8367.0,8,R,15222139,15222621,484,968.4,560.0,4588,NA
28,1,binary,8,1,trial,15222399.0,15230766.0,8367.0,8,R,15222687,15222829,144,1430.2,569.1,4438,right
28,1,binary,8,1,trial,15222399.0,15230766.0,8367.0,8,R,15222897,15223093,198,490.8,549.8,4443,left
28,1,binary,8,1,trial,15222399.0,15230766.0,8367.0,8,R,15223115,15223247,134,393.2,564.2,4362,left
28,1,binary,8,1,trial,15222399.0,15230766.0,8367.0,8,R,15223287,15223523,238,622.8,460.0,4160,left
28,1,binary,8,1,trial,15222399.0,15230766.0,8367.0,8,R,15223545,15223973,430,526.3,555.0,4140,left
28,1,binary,8,1,trial,15222399.0,15230766.0,8367.0,8,R,15223993,15224123,132,625.2,540.4,4141,left
28,1,binary,8,1,trial,15222399.0,15230766.0,8367.0,8,R,15224185,15224597,414,1411.3,511.9,3995,right
28,1,binary,8,1,trial,15222399.0,15230766.0,8367.0,8,R,15224607,15224723,118,1429.3,537.0,4095,right
28,1,binary,8,1,trial,15222399.0,15230766.0,8367.0,8,R,15224743,15225119,378,1525.0,577.8,4146,right
28,1,binary,8,1,trial,15222399.0,15230766.0,8367.0,8,R,15225141,15225461,322,1427.3,510.8,4316,right
28,1,binary,8,1,trial,15222399.0,15230766.0,8367.0,8,R,15225479,15225805,328,1367.0,496.9,4373,right
28,1,binary,8,1,trial,15222399.0,15230766.0,8367.0,8,R,15225889,15226103,216,380.1,566.0,4561,left
28,1,binary,8,1,trial,15222399.0,15230766.0,8367.0,8,R,15226139,15226337,200,525.6,528.4,4423,left
28,1,binary,8,1,trial,15222399.0,15230766.0,8367.0,8,R,15226359,15226553,196,614.9,470.7,4347,left
28,1,binary,8,1,trial,15222399.0,15230766.0,8367.0,8,R,15226695,15226941,248,1494.4,547.8,4251,right
28,1,binary,8,1,trial,15222399.0,15230766.0,8367.0,8,R,15226961,15227273,314,1525.7,595.5,4541,right
28,1,binary,8,1,trial,15222399.0,15230766.0,8367.0,8,R,15227297,15227573,278,1468.0,490.2,4467,right
28,1,binary,8,1,trial,15222399.0,15230766.0,8367.0,8,R,15227591,15227853,264,1394.0,498.4,4464,right
28,1,binary,8,1,trial,15222399.0,15230766.0,8367.0,8,R,15227867,15228107,242,1340.4,481.0,4504,right
28,1,binary,8,1,trial,15222399.0,15230766.0,8367.0,8,R,15228193,15228461,270,448.9,586.9,4675,left
28,1,binary,8,1,trial,15222399.0,15230766.0,8367.0,8,R,15228501,15228911,412,607.6,487.8,4347,left
28,1,binary,8,1,trial,15222399.0,15230766.0,8367.0,8,R,15228923,15229097,176,587.5,457.2,4310,left
28,1,binary,8,1,trial,15222399.0,15230766.0,8367.0,8,R,15229167,15229441,276,1442.3,497.6,4140,right
28,1,binary,8,1,trial,15222399.0,15230766.0,8367.0,8,R,15229457,15229637,182,1506.3,505.4,4134,right
28,1,binary,8,1,trial,15222399.0,15230766.0,8367.0,8,R,15229657,15229981,326,1523.0,580.7,4164,right
28,1,binary,8,1,trial,15222399.0,15230766.0,8367.0,8,R,15230059,15230469,412,489.1,562.2,4419,left
28,1,binary,8,1,postResponse,15222399.0,15230766.0,8367.0,8,R,15230495,15231115,622,615.6,455.1,4344,left
28,1,binary,9,1,fixationCross,15231799.0,15234666.0,2867.0,9,R,15231249,15231505,258,696.6,649.5,4471,left
28,1,binary,9,1,fixationCross,15231799.0,15234666.0,2867.0,9,R,15231547,15231681,136,925.6,586.0,4654,NA
28,1,binary,9,1,trial,15231799.0,15234666.0,2867.0,9,R,15231695,15232077,384,963.1,551.2,4586,NA
28,1,binary,9,1,trial,15231799.0,15234666.0,2867.0,9,R,15232125,15232347,224,524.6,545.7,4506,left
28,1,binary,9,1,trial,15231799.0,15234666.0,2867.0,9,R,15232361,15232617,258,468.6,529.3,4472,left
28,1,binary,9,1,trial,15231799.0,15234666.0,2867.0,9,R,15232631,15232765,136,489.1,569.8,4491,left
28,1,binary,9,1,trial,15231799.0,15234666.0,2867.0,9,R,15232835,15233031,198,1440.6,591.4,4338,right
28,1,binary,9,1,trial,15231799.0,15234666.0,2867.0,9,R,15233051,15233189,140,1524.3,610.7,4280,right
28,1,binary,9,1,trial,15231799.0,15234666.0,2867.0,9,R,15233209,15233591,384,1514.4,522.6,4177,right
28,1,binary,9,1,trial,15231799.0,15234666.0,2867.0,9,R,15233665,15233985,322,496.3,563.7,4449,left
28,1,binary,9,1,trial,15231799.0,15234666.0,2867.0,9,R,15234001,15234401,402,471.6,621.7,4480,left
28,1,binary,9,1,trial,15231799.0,15234666.0,2867.0,9,R,15234419,15234579,162,538.1,612.4,4472,left
28,1,binary,9,1,postResponse,15231799.0,15234666.0,2867.0,9,R,15234649,15235001,354,1476.9,589.9,4296,right
28,1,binary,10,1,fixationCross,15235732.0,15241949.0,6217.0,10,R,15235177,15235435,260,753.6,515.3,4608,NA
28,1,binary,10,1,fixationCross,15235732.0,15241949.0,6217.0,10,R,15235477,15235601,126,936.9,553.3,4583,NA
28,1,binary,10,1,trial,15235732.0,15241949.0,6217.0,10,R,15235613,15235885,274,971.7,549.4,4612,NA
28,1,binary,10,1,trial,15235732.0,15241949.0,6217.0,10,R,15235939,15236115,178,1420.0,592.5,4470,right
28,1,binary,10,1,trial,15235732.0,15241949.0,6217.0,10,R,15236181,15236393,214,551.8,563.6,4448,left
28,1,binary,10,1,trial,15235732.0,15241949.0,6217.0,10,R,15236411,15236591,182,470.1,585.9,4418,left
28,1,binary,10,1,trial,15235732.0,15241949.0,6217.0,10,R,15236711,15236983,274,527.5,521.1,4434,left
28,1,binary,10,1,trial,15235732.0,15241949.0,6217.0,10,R,15237003,15237367,366,612.4,481.2,4532,left
28,1,binary,10,1,trial,15235732.0,15241949.0,6217.0,10,R,15237411,15237589,180,400.2,479.2,4560,left
28,1,binary,10,1,trial,15235732.0,15241949.0,6217.0,10,R,15237721,15237907,188,1420.3,590.5,4369,right
28,1,binary,10,1,trial,15235732.0,15241949.0,6217.0,10,R,15237925,15238151,228,1510.2,593.0,4376,right
28,1,binary,10,1,trial,15235732.0,15241949.0,6217.0,10,R,15238169,15238427,260,1496.9,652.0,4305,right
28,1,binary,10,1,trial,15235732.0,15241949.0,6217.0,10,R,15238437,15238537,102,1465.5,659.8,4295,right
28,1,binary,10,1,trial,15235732.0,15241949.0,6217.0,10,R,15238563,15238715,154,1429.4,509.1,4274,right
28,1,binary,10,1,trial,15235732.0,15241949.0,6217.0,10,R,15238773,15238945,174,670.8,535.1,4449,left
28,1,binary,10,1,trial,15235732.0,15241949.0,6217.0,10,R,15238961,15239245,286,599.9,507.7,4439,left
28,1,binary,10,1,trial,15235732.0,15241949.0,6217.0,10,R,15239287,15239449,164,419.4,547.2,4536,left
28,1,binary,10,1,trial,15235732.0,15241949.0,6217.0,10,R,15239465,15239597,134,387.8,496.1,4533,left
28,1,binary,10,1,trial,15235732.0,15241949.0,6217.0,10,R,15239611,15239941,332,364.0,462.7,4471,left
28,1,binary,10,1,trial,15235732.0,15241949.0,6217.0,10,R,15240017,15240225,210,1419.5,548.9,4198,right
28,1,binary,10,1,trial,15235732.0,15241949.0,6217.0,10,R,15240245,15240637,394,1485.2,581.7,4128,right
28,1,binary,10,1,trial,15235732.0,15241949.0,6217.0,10,R,15240653,15240891,240,1444.5,641.5,4180,right
28,1,binary,10,1,trial,15235732.0,15241949.0,6217.0,10,R,15240901,15241173,274,1460.0,668.6,4287,right
28,1,binary,10,1,trial,15235732.0,15241949.0,6217.0,10,R,15241201,15241471,272,1470.3,554.0,4226,right
28,1,binary,10,1,trial,15235732.0,15241949.0,6217.0,10,R,15241481,15241699,220,1457.4,569.7,4146,right
28,1,binary,10,1,trial,15235732.0,15241949.0,6217.0,10,R,15241775,15241915,142,487.6,875.1,4447,NA
28,1,binary,10,1,postResponse,15235732.0,15241949.0,6217.0,10,R,15242023,15242295,274,1465.6,578.1,4184,right
28,1,binary,11,1,fixationCross,15243000.0,15246467.0,3467.0,11,R,15242369,15242715,348,784.0,589.9,4548,NA
28,1,binary,11,1,trial,15243000.0,15246467.0,3467.0,11,R,15242739,15243149,412,962.1,581.7,4524,NA
28,1,binary,11,1,trial,15243000.0,15246467.0,3467.0,11,R,15243199,15243345,148,1386.1,566.9,4453,right
28,1,binary,11,1,trial,15243000.0,15246467.0,3467.0,11,R,15243411,15243595,186,527.7,592.9,4613,left
28,1,binary,11,1,trial,15243000.0,15246467.0,3467.0,11,R,15243615,15243801,188,438.9,603.6,4677,left
28,1,binary,11,1,trial,15243000.0,15246467.0,3467.0,11,R,15243809,15244471,664,454.8,607.5,4723,left
28,1,binary,11,1,trial,15243000.0,15246467.0,3467.0,11,R,15244489,15244683,196,401.3,588.4,4769,left
28,1,binary,11,1,trial,15243000.0,15246467.0,3467.0,11,R,15244701,15244969,270,372.9,509.9,4759,left
28,1,binary,11,1,trial,15243000.0,15246467.0,3467.0,11,R,15244983,15245135,154,422.1,536.0,4779,left
28,1,binary,11,1,trial,15243000.0,15246467.0,3467.0,11,R,15245211,15245435,226,1411.0,584.8,4588,right
28,1,binary,11,1,trial,15243000.0,15246467.0,3467.0,11,R,15245453,15245709,258,1465.4,596.9,4445,right
28,1,binary,11,1,trial,15243000.0,15246467.0,3467.0,11,R,15245723,15246011,290,1423.1,569.9,4332,right
28,1,binary,11,1,trial,15243000.0,15246467.0,3467.0,11,R,15246073,15246207,136,714.1,693.6,4512,left
28,1,binary,11,1,postResponse,15243000.0,15246467.0,3467.0,11,R,15246241,15246815,576,536.1,596.5,4601,left
28,1,binary,12,2,fixationCross,15247633.0,15250966.0,3333.0,12,R,15246915,15247045,132,532.7,603.1,4654,left
28,1,binary,12,2,fixationCross,15247633.0,15250966.0,3333.0,12,R,15247177,15247313,138,624.8,571.2,4627,left
28,1,binary,12,2,fixationCross,15247633.0,15250966.0,3333.0,12,R,15247359,15247485,128,920.4,564.6,4691,NA
28,1,binary,12,2,trial,15247633.0,15250966.0,3333.0,12,R,15247499,15247781,284,970.5,550.2,4802,NA
28,1,binary,12,2,trial,15247633.0,15250966.0,3333.0,12,R,15247829,15247987,160,592.0,593.6,4750,left
28,1,binary,12,2,trial,15247633.0,15250966.0,3333.0,12,R,15248007,15248313,308,488.6,627.6,4592,left
28,1,binary,12,2,trial,15247633.0,15250966.0,3333.0,12,R,15248327,15248457,132,536.6,622.4,4503,left
28,1,binary,12,2,trial,15247633.0,15250966.0,3333.0,12,R,15248521,15248741,222,1422.8,568.1,4152,right
28,1,binary,12,2,trial,15247633.0,15250966.0,3333.0,12,R,15248755,15249727,974,1436.7,533.8,4145,right
28,1,binary,12,2,trial,15247633.0,15250966.0,3333.0,12,R,15249749,15249975,228,1493.6,621.2,4269,right
28,1,binary,12,2,trial,15247633.0,15250966.0,3333.0,12,R,15250095,15250203,110,1443.0,542.9,4296,right
28,1,binary,12,2,trial,15247633.0,15250966.0,3333.0,12,R,15250267,15250471,206,561.0,600.6,4608,left
28,1,binary,12,2,trial,15247633.0,15250966.0,3333.0,12,R,15250491,15250685,196,467.5,626.4,4614,left
28,1,binary,12,2,trial,15247633.0,15250966.0,3333.0,12,R,15250757,15250899,144,1402.3,908.3,4380,NA
28,1,binary,12,2,postResponse,15247633.0,15250966.0,3333.0,12,R,15250935,15251313,380,1455.3,601.9,4328,right
28,1,binary,13,1,fixationCross,15252100.0,15255766.0,3666.0,13,R,15251421,15251795,376,824.8,557.1,4687,NA
28,1,binary,13,1,trial,15252100.0,15255766.0,3666.0,13,R,15251817,15252203,388,934.1,567.9,4699,NA
28,1,binary,13,1,trial,15252100.0,15255766.0,3666.0,13,R,15252239,15252333,96,1110.9,563.3,4671,NA
28,1,binary,13,1,trial,15252100.0,15255766.0,3666.0,13,R,15252377,15252523,148,1430.1,565.7,4526,right
28,1,binary,13,1,trial,15252100.0,15255766.0,3666.0,13,R,15252589,15252747,160,568.8,518.3,4643,left
28,1,binary,13,1,trial,15252100.0,15255766.0,3666.0,13,R,15252767,15253003,238,538.0,474.2,4525,left
28,1,binary,13,1,trial,15252100.0,15255766.0,3666.0,13,R,15253019,15253111,94,544.1,513.3,4418,left
28,1,binary,13,1,trial,15252100.0,15255766.0,3666.0,13,R,15253177,15253385,210,1480.0,551.3,4194,right
28,1,binary,13,1,trial,15252100.0,15255766.0,3666.0,13,R,15253403,15253735,334,1586.3,508.5,4077,right
28,1,binary,13,1,trial,15252100.0,15255766.0,3666.0,13,R,15253751,15254147,398,1666.0,497.1,3969,right
28,1,binary,13,1,trial,15252100.0,15255766.0,3666.0,13,R,15254171,15254277,108,1516.4,501.0,4086,right
28,1,binary,13,1,trial,15252100.0,15255766.0,3666.0,13,R,15254395,15254735,342,546.6,499.6,4444,left
28,1,binary,13,1,trial,15252100.0,15255766.0,3666.0,13,R,15254745,15254985,242,527.3,526.5,4490,left
28,1,binary,13,1,trial,15252100.0,15255766.0,3666.0,13,R,15255059,15255393,336,1490.6,585.4,4256,right
28,1,binary,13,1,trial,15252100.0,15255766.0,3666.0,13,R,15255409,15255567,160,1484.5,524.6,4243,right
28,1,binary,13,1,trial,15252100.0,15255766.0,3666.0,13,R,15255585,15255761,178,1448.7,599.5,4216,right
28,1,binary,13,1,postResponse,15252100.0,15255766.0,3666.0,13,R,15255831,15256111,282,558.4,508.6,4396,left
28,1,binary,14,1,fixationCross,15256850.0,15260716.0,3866.0,14,R,15256211,15256323,114,559.0,510.1,4456,left
28,1,binary,14,1,fixationCross,15256850.0,15260716.0,3866.0,14,R,15256365,15256545,182,757.2,592.0,4508,NA
28,1,binary,14,1,trial,15256850.0,15260716.0,3866.0,14,R,15256581,15257005,426,985.9,571.2,4469,NA
28,1,binary,14,1,trial,15256850.0,15260716.0,3866.0,14,R,15257053,15257209,158,1339.7,529.9,4462,right
28,1,binary,14,1,trial,15256850.0,15260716.0,3866.0,14,R,15257247,15257479,234,1491.7,542.1,4339,right
28,1,binary,14,1,trial,15256850.0,15260716.0,3866.0,14,R,15257487,15257651,166,1506.8,533.6,4391,right
28,1,binary,14,1,trial,15256850.0,15260716.0,3866.0,14,R,15257661,15258429,770,1488.1,527.1,4396,right
28,1,binary,14,1,trial,15256850.0,15260716.0,3866.0,14,R,15258507,15258703,198,441.1,553.3,4647,left
28,1,binary,14,1,trial,15256850.0,15260716.0,3866.0,14,R,15258715,15258991,278,407.1,526.2,4560,left
28,1,binary,14,1,trial,15256850.0,15260716.0,3866.0,14,R,15259001,15259323,324,368.2,516.5,4301,left
28,1,binary,14,1,trial,15256850.0,15260716.0,3866.0,14,R,15259333,15259473,142,385.1,502.7,4267,left
28,1,binary,14,1,trial,15256850.0,15260716.0,3866.0,14,R,15259543,15259707,166,1411.0,500.4,4058,right
28,1,binary,14,1,trial,15256850.0,15260716.0,3866.0,14,R,15259727,15260189,464,1492.5,518.5,4175,right
28,1,binary,14,1,trial,15256850.0,15260716.0,3866.0,14,R,15260267,15260445,180,404.8,571.3,4600,left
28,1,binary,14,1,postResponse,15256850.0,15260716.0,3866.0,14,R,15260461,15261063,604,399.7,527.3,4434,left
28,1,binary,15,1,fixationCross,15261833.0,15264883.0,3050.0,15,R,15261155,15261465,312,599.3,563.7,4502,left
28,1,binary,15,1,fixationCross,15261833.0,15264883.0,3050.0,15,R,15261511,15261633,124,943.7,559.9,4517,NA
28,1,binary,15,1,trial,15261833.0,15264883.0,3050.0,15,R,15261741,15261993,254,968.8,541.8,4488,NA
28,1,binary,15,1,trial,15261833.0,15264883.0,3050.0,15,R,15262039,15262215,178,1299.7,546.7,4571,right
28,1,binary,15,1,trial,15261833.0,15264883.0,3050.0,15,R,15262281,15262539,260,501.1,542.2,4478,left
28,1,binary,15,1,trial,15261833.0,15264883.0,3050.0,15,R,15262553,15262719,168,541.4,532.5,4331,left
28,1,binary,15,1,trial,15261833.0,15264883.0,3050.0,15,R,15262735,15262993,260,520.9,480.7,4216,left
28,1,binary,15,1,trial,15261833.0,15264883.0,3050.0,15,R,15263063,15263457,396,1452.4,555.7,4057,right
28,1,binary,15,1,trial,15261833.0,15264883.0,3050.0,15,R,15263467,15263895,430,1486.8,564.2,4069,right
28,1,binary,15,1,trial,15261833.0,15264883.0,3050.0,15,R,15263911,15263967,58,1531.7,583.3,4077,right
28,1,binary,15,1,trial,15261833.0,15264883.0,3050.0,15,R,15264041,15264315,276,492.5,567.7,4404,left
28,1,binary,15,1,trial,15261833.0,15264883.0,3050.0,15,R,15264329,15264579,252,529.0,532.2,4412,left
28,1,binary,15,1,trial,15261833.0,15264883.0,3050.0,15,R,15264593,15264881,290,525.8,495.9,4407,left
28,1,binary,15,1,postResponse,15261833.0,15264883.0,3050.0,15,R,15264897,15265215,320,518.3,552.7,4539,left
28,1,binary,16,2,fixationCross,15265900.0,15268450.0,2550.0,16,R,15265425,15265573,150,715.1,577.8,4600,left
28,1,binary,16,2,fixationCross,15265900.0,15268450.0,2550.0,16,R,15265617,15265751,136,965.2,586.0,4710,NA
28,1,binary,16,2,trial,15265900.0,15268450.0,2550.0,16,R,15265765,15266039,276,974.7,539.6,4797,NA
28,1,binary,16,2,trial,15265900.0,15268450.0,2550.0,16,R,15266085,15266267,184,1339.6,560.8,4498,right
28,1,binary,16,2,trial,15265900.0,15268450.0,2550.0,16,R,15266287,15266657,372,1443.3,585.4,4311,right
28,1,binary,16,2,trial,15265900.0,15268450.0,2550.0,16,R,15266729,15266871,144,373.7,540.5,4509,left
28,1,binary,16,2,trial,15265900.0,15268450.0,2550.0,16,R,15266891,15267037,148,316.7,454.0,4453,left
28,1,binary,16,2,trial,15265900.0,15268450.0,2550.0,16,R,15267053,15267309,258,319.9,402.5,4396,left
28,1,binary,16,2,trial,15265900.0,15268450.0,2550.0,16,R,15267347,15267503,158,338.5,516.3,4364,left
28,1,binary,16,2,trial,15265900.0,15268450.0,2550.0,16,R,15267545,15267765,222,539.6,633.7,4426,left
28,1,binary,16,2,trial,15265900.0,15268450.0,2550.0,16,R,15267779,15267971,194,520.0,668.5,4457,left
28,1,binary,16,2,trial,15265900.0,15268450.0,2550.0,16,R,15268033,15268259,228,1334.1,604.5,4202,right
28,1,binary,16,2,postResponse,15265900.0,15268450.0,2550.0,16,R,15268279,15268797,520,1430.2,623.0,4225,right
28,1,binary,17,2,fixationCross,15269533.0,15271416.0,1883.0,17,R,15268871,15268897,28,1428.8,630.0,4347,right
28,1,binary,17,2,fixationCross,15269533.0,15271416.0,1883.0,17,R,15268963,15269245,284,879.8,610.4,4661,NA
28,1,binary,17,2,trial,15269533.0,15271416.0,1883.0,17,R,15269265,15269689,426,952.5,569.8,4734,NA
28,1,binary,17,2,trial,15269533.0,15271416.0,1883.0,17,R,15269743,15269895,154,568.6,590.4,4797,left
28,1,binary,17,2,trial,15269533.0,15271416.0,1883.0,17,R,15269921,15270079,160,428.8,598.6,4687,left
28,1,binary,17,2,trial,15269533.0,15271416.0,1883.0,17,R,15270117,15270227,112,640.8,601.0,4593,left
28,1,binary,17,2,trial,15269533.0,15271416.0,1883.0,17,R,15270289,15270677,390,1477.1,582.4,4342,right
28,1,binary,17,2,trial,15269533.0,15271416.0,1883.0,17,R,15270761,15271103,344,478.5,601.2,4571,left
28,1,binary,17,2,trial,15269533.0,15271416.0,1883.0,17,R,15271179,15271381,204,1404.8,629.3,4360,right
28,1,binary,17,2,postResponse,15269533.0,15271416.0,1883.0,17,R,15271399,15271753,356,1482.7,599.7,4327,right
28,1,binary,18,2,fixationCross,15272483.0,15276366.0,3883.0,18,R,15271827,15271927,102,1485.5,602.7,4456,right
28,1,binary,18,2,fixationCross,15272483.0,15276366.0,3883.0,18,R,15271971,15272169,200,1232.3,594.3,4570,right
28,1,binary,18,2,fixationCross,15272483.0,15276366.0,3883.0,18,R,15272207,15272323,118,1041.7,580.6,4668,NA
28,1,binary,18,2,fixationCross,15272483.0,15276366.0,3883.0,18,R,15272339,15272475,138,976.5,566.4,4718,NA
28,1,binary,18,2,trial,15272483.0,15276366.0,3883.0,18,R,15272611,15272743,134,977.1,532.2,4668,NA
28,1,binary,18,2,trial,15272483.0,15276366.0,3883.0,18,R,15272805,15273001,198,571.0,550.6,4884,left
28,1,binary,18,2,trial,15272483.0,15276366.0,3883.0,18,R,15273019,15273201,184,490.9,518.1,4746,left
28,1,binary,18,2,trial,15272483.0,15276366.0,3883.0,18,R,15273219,15273581,364,566.5,483.2,4452,left
28,1,binary,18,2,trial,15272483.0,15276366.0,3883.0,18,R,15273643,15273813,172,1395.4,541.3,4151,right
28,1,binary,18,2,trial,15272483.0,15276366.0,3883.0,18,R,15273829,15274031,204,1435.4,578.1,4187,right
28,1,binary,18,2,trial,15272483.0,15276366.0,3883.0,18,R,15274041,15274287,248,1413.1,594.2,4277,right
28,1,binary,18,2,trial,15272483.0,15276366.0,3883.0,18,R,15274301,15274933,634,1465.2,582.2,4371,right
28,1,binary,18,2,trial,15272483.0,15276366.0,3883.0,18,R,15275007,15275205,200,504.1,546.4,4710,left
28,1,binary,18,2,trial,15272483.0,15276366.0,3883.0,18,R,15275223,15275391,170,558.9,511.0,4617,left
28,1,binary,18,2,trial,15272483.0,15276366.0,3883.0,18,R,15275405,15275685,282,568.3,468.3,4425,left
28,1,binary,18,2,trial,15272483.0,15276366.0,3883.0,18,R,15275709,15275891,184,441.9,436.1,4332,left
28,1,binary,18,2,trial,15272483.0,15276366.0,3883.0,18,R,15275959,15276409,452,1416.5,544.2,4146,right
28,1,binary,18,2,trial,15272483.0,15276366.0,3883.0,18,R,15276423,15276653,232,1428.7,583.9,4262,right
28,1,binary,19,1,fixationCross,15277267.0,15279216.0,1949.0,19,R,15276837,15277183,348,1013.8,589.6,4676,NA
28,1,binary,19,1,trial,15277267.0,15279216.0,1949.0,19,R,15277199,15277425,228,967.3,556.2,4957,NA
28,1,binary,19,1,trial,15277267.0,15279216.0,1949.0,19,R,15277481,15277623,144,1484.1,545.5,4460,right
28,1,binary,19,1,trial,15277267.0,15279216.0,1949.0,19,R,15277691,15277853,164,549.6,588.0,4463,left
28,1,binary,19,1,postResponse,15277267.0,15279216.0,1949.0,19,R,15277869,15279561,1694,476.7,577.5,4161,left
28,1,binary,20,1,fixationCross,15280300.0,15282883.0,2583.0,20,R,15279635,15279955,322,489.7,586.2,4468,left
28,1,binary,20,1,fixationCross,15280300.0,15282883.0,2583.0,20,R,15279999,15280141,144,864.3,568.3,4554,NA
28,1,binary,20,1,trial,15280300.0,15282883.0,2583.0,20,R,15280159,15280457,300,970.4,555.6,4624,NA
28,1,binary,20,1,trial,15280300.0,15282883.0,2583.0,20,R,15280507,15280637,132,1371.0,524.0,4675,right
28,1,binary,20,1,trial,15280300.0,15282883.0,2583.0,20,R,15280655,15281183,530,1357.1,476.5,4357,right
28,1,binary,20,1,trial,15280300.0,15282883.0,2583.0,20,R,15281249,15281479,232,557.5,617.8,4619,left
28,1,binary,20,1,trial,15280300.0,15282883.0,2583.0,20,R,15281507,15281817,312,500.6,682.3,4409,left
28,1,binary,20,1,trial,15280300.0,15282883.0,2583.0,20,R,15281835,15281983,150,411.7,702.5,4247,left
28,1,binary,20,1,trial,15280300.0,15282883.0,2583.0,20,R,15282049,15282167,120,1360.3,509.6,3992,right
28,1,binary,20,1,trial,15280300.0,15282883.0,2583.0,20,R,15282185,15282549,366,1355.2,451.7,4040,right
28,1,binary,20,1,postResponse,15280300.0,15282883.0,2583.0,20,R,15282627,15283231,606,501.8,578.5,4418,left
28,1,binary,21,1,fixationCross,15283967.0,15285817.0,1850.0,21,R,15283333,15283421,90,504.2,580.9,4446,left
28,1,binary,21,1,fixationCross,15283967.0,15285817.0,1850.0,21,R,15283443,15283649,208,618.8,556.7,4504,left
28,1,binary,21,1,fixationCross,15283967.0,15285817.0,1850.0,21,R,15283691,15283835,146,878.0,564.7,4487,NA
28,1,binary,21,1,trial,15283967.0,15285817.0,1850.0,21,R,15283853,15284119,268,964.5,553.2,4540,NA
28,1,binary,21,1,trial,15283967.0,15285817.0,1850.0,21,R,15284175,15284369,196,1408.2,578.4,4436,right
28,1,binary,21,1,trial,15283967.0,15285817.0,1850.0,21,R,15284453,15284631,180,635.5,616.2,4441,left
28,1,binary,21,1,trial,15283967.0,15285817.0,1850.0,21,R,15284653,15284913,262,515.5,655.5,4445,left
28,1,binary,21,1,trial,15283967.0,15285817.0,1850.0,21,R,15284929,15285111,184,454.9,658.1,4466,left
28,1,binary,21,1,trial,15283967.0,15285817.0,1850.0,21,R,15285187,15285433,248,1456.1,616.5,4220,right
28,1,binary,21,1,trial,15283967.0,15285817.0,1850.0,21,R,15285509,15285675,168,504.5,942.6,4529,NA
28,1,binary,21,1,trial,15283967.0,15285817.0,1850.0,21,R,15285689,15285819,132,484.9,981.3,4583,NA
28,1,binary,21,1,postResponse,15283967.0,15285817.0,1850.0,21,R,15285865,15286153,290,464.3,672.1,4563,left
28,1,binary,22,1,fixationCross,15286916.0,15290083.0,3167.0,22,R,15286229,15286245,18,469.2,671.2,4594,left
28,1,binary,22,1,fixationCross,15286916.0,15290083.0,3167.0,22,R,15286409,15286623,216,778.4,632.6,4528,NA
28,1,binary,22,1,fixationCross,15286916.0,15290083.0,3167.0,22,R,15286661,15286907,248,929.8,560.1,4618,NA
28,1,binary,22,1,trial,15286916.0,15290083.0,3167.0,22,R,15286925,15287069,146,1005.4,536.2,4468,NA
28,1,binary,22,1,trial,15286916.0,15290083.0,3167.0,22,R,15287117,15287251,136,1386.8,535.3,4314,right
28,1,binary,22,1,trial,15286916.0,15290083.0,3167.0,22,R,15287317,15287477,162,469.7,503.9,4375,left
28,1,binary,22,1,trial,15286916.0,15290083.0,3167.0,22,R,15287491,15287913,424,415.0,476.8,4249,left
28,1,binary,22,1,trial,15286916.0,15290083.0,3167.0,22,R,15287929,15288109,182,406.3,526.6,4097,left
28,1,binary,22,1,trial,15286916.0,15290083.0,3167.0,22,R,15288131,15288353,224,410.5,441.3,4071,left
28,1,binary,22,1,trial,15286916.0,15290083.0,3167.0,22,R,15288431,15288773,344,1449.9,556.6,3884,right
28,1,binary,22,1,trial,15286916.0,15290083.0,3167.0,22,R,15288783,15289177,396,1403.2,556.9,3950,right
28,1,binary,22,1,trial,15286916.0,15290083.0,3167.0,22,R,15289191,15289349,160,1447.7,565.9,4003,right
28,1,binary,22,1,trial,15286916.0,15290083.0,3167.0,22,R,15289419,15289555,138,511.9,496.7,4265,left
28,1,binary,22,1,postResponse,15286916.0,15290083.0,3167.0,22,R,15289571,15290403,834,422.0,463.1,4149,left
28,1,binary,23,1,fixationCross,15291567.0,15294334.0,2767.0,23,R,15290505,15290773,270,574.4,529.8,4227,left
28,1,binary,23,1,fixationCross,15291567.0,15294334.0,2767.0,23,R,15290901,15291273,374,827.6,593.4,4428,NA
28,1,binary,23,1,fixationCross,15291567.0,15294334.0,2767.0,23,R,15291297,15291459,164,961.2,595.7,4569,NA
28,1,binary,23,1,trial,15291567.0,15294334.0,2767.0,23,R,15291469,15291729,262,973.3,579.4,4504,NA
28,1,binary,23,1,trial,15291567.0,15294334.0,2767.0,23,R,15291781,15291909,130,1388.0,566.3,4360,right
28,1,binary,23,1,trial,15291567.0,15294334.0,2767.0,23,R,15291929,15292067,140,1457.3,597.2,4261,right
28,1,binary,23,1,trial,15291567.0,15294334.0,2767.0,23,R,15292199,15292421,224,521.8,495.1,4482,left
28,1,binary,23,1,trial,15291567.0,15294334.0,2767.0,23,R,15292441,15292741,302,506.1,557.6,4719,left
28,1,binary,23,1,trial,15291567.0,15294334.0,2767.0,23,R,15292813,15292979,168,1541.0,555.9,4465,right
28,1,binary,23,1,trial,15291567.0,15294334.0,2767.0,23,R,15292997,15293293,298,1611.8,527.4,4275,right
28,1,binary,23,1,trial,15291567.0,15294334.0,2767.0,23,R,15293315,15293555,242,1464.3,554.4,4243,right
28,1,binary,23,1,trial,15291567.0,15294334.0,2767.0,23,R,15293569,15293675,108,1428.7,569.6,4286,right
28,1,binary,23,1,trial,15291567.0,15294334.0,2767.0,23,R,15293739,15293963,226,552.1,509.2,4546,left
28,1,binary,23,1,trial,15291567.0,15294334.0,2767.0,23,R,15293983,15294185,204,489.0,532.7,4602,left
28,1,binary,23,1,trial,15291567.0,15294334.0,2767.0,23,R,15294199,15294425,228,484.4,486.8,4614,left
28,1,binary,23,1,postResponse,15291567.0,15294334.0,2767.0,23,R,15294485,15294667,184,1290.4,514.7,4378,right
28,1,binary,24,2,fixationCross,15295600.0,15302017.0,6417.0,24,R,15294851,15295139,290,634.5,543.9,4735,left
28,1,binary,24,2,fixationCross,15295600.0,15302017.0,6417.0,24,R,15295177,15295295,120,803.8,556.3,4906,NA
28,1,binary,24,2,trial,15295600.0,15302017.0,6417.0,24,R,15295319,15295741,424,965.5,566.0,4642,NA
28,1,binary,24,2,trial,15295600.0,15302017.0,6417.0,24,R,15295791,15295987,198,616.5,583.4,4622,left
28,1,binary,24,2,trial,15295600.0,15302017.0,6417.0,24,R,15296011,15296161,152,518.6,618.5,4411,left
28,1,binary,24,2,trial,15295600.0,15302017.0,6417.0,24,R,15296227,15296417,192,1417.6,575.1,4103,right
28,1,binary,24,2,trial,15295600.0,15302017.0,6417.0,24,R,15296433,15297343,912,1505.7,575.2,4181,right
28,1,binary,24,2,trial,15295600.0,15302017.0,6417.0,24,R,15297433,15297775,344,556.2,655.8,4518,left
28,1,binary,24,2,trial,15295600.0,15302017.0,6417.0,24,R,15297791,15298359,570,500.4,638.0,4397,left
28,1,binary,24,2,trial,15295600.0,15302017.0,6417.0,24,R,15298429,15298599,172,1371.0,595.1,4170,right
28,1,binary,24,2,trial,15295600.0,15302017.0,6417.0,24,R,15298623,15299211,590,1517.9,560.2,4049,right
28,1,binary,24,2,trial,15295600.0,15302017.0,6417.0,24,R,15299231,15299525,296,1428.3,548.2,4070,right
28,1,binary,24,2,trial,15295600.0,15302017.0,6417.0,24,R,15299601,15299991,392,528.5,657.6,4431,left
28,1,binary,24,2,trial,15295600.0,15302017.0,6417.0,24,R,15300003,15300469,468,481.3,631.4,4330,left
28,1,binary,24,2,trial,15295600.0,15302017.0,6417.0,24,R,15300537,15300915,380,1427.1,569.3,4152,right
28,1,binary,24,2,trial,15295600.0,15302017.0,6417.0,24,R,15300931,15301083,154,1479.1,574.3,4252,right
28,1,binary,24,2,trial,15295600.0,15302017.0,6417.0,24,R,15301151,15301601,452,540.0,614.0,4526,left
28,1,binary,24,2,trial,15295600.0,15302017.0,6417.0,24,R,15301613,15301803,192,511.8,647.0,4497,left
28,1,binary,24,2,trial,15295600.0,15302017.0,6417.0,24,R,15301873,15302043,172,1467.9,574.0,4242,right
28,1,binary,24,2,postResponse,15295600.0,15302017.0,6417.0,24,R,15302063,15302351,290,1512.2,572.9,4256,right
28,1,binary,25,1,fixationCross,15303150.0,15305967.0,2817.0,25,R,15302451,15302641,192,1516.5,577.4,4374,right
28,1,binary,25,1,fixationCross,15303150.0,15305967.0,2817.0,25,R,15302693,15302825,134,1131.0,654.5,4556,NA
28,1,binary,25,1,fixationCross,15303150.0,15305967.0,2817.0,25,R,15302847,15302967,122,1014.1,613.0,4588,NA
28,1,binary,25,1,trial,15303150.0,15305967.0,2817.0,25,R,15302981,15303295,316,967.4,589.7,4667,NA
28,1,binary,25,1,trial,15303150.0,15305967.0,2817.0,25,R,15303345,15303471,128,1268.1,581.1,4573,right
28,1,binary,25,1,trial,15303150.0,15305967.0,2817.0,25,R,15303527,15303855,330,598.4,589.7,4485,left
28,1,binary,25,1,trial,15303150.0,15305967.0,2817.0,25,R,15303869,15304233,366,599.6,546.9,4326,left
28,1,binary,25,1,trial,15303150.0,15305967.0,2817.0,25,R,15304291,15304463,174,1269.9,537.4,4089,right
28,1,binary,25,1,trial,15303150.0,15305967.0,2817.0,25,R,15304477,15304629,154,1313.5,526.0,4113,right
28,1,binary,25,1,trial,15303150.0,15305967.0,2817.0,25,R,15304671,15305029,360,1597.5,482.1,4028,right
28,1,binary,25,1,trial,15303150.0,15305967.0,2817.0,25,R,15305071,15305201,132,1293.4,491.8,4182,right
28,1,binary,25,1,trial,15303150.0,15305967.0,2817.0,25,R,15305259,15305399,142,641.8,581.1,4376,left
28,1,binary,25,1,trial,15303150.0,15305967.0,2817.0,25,R,15305417,15305795,380,600.4,556.3,4404,left
28,1,binary,25,1,trial,15303150.0,15305967.0,2817.0,25,R,15305837,15306165,330,572.3,672.2,4423,left
28,1,binary,26,2,fixationCross,15329417.0,15334900.0,5483.0,26,R,15328760,15329062,304,122.0,32.9,4327,NA
28,1,binary,26,2,fixationCross,15329417.0,15334900.0,5483.0,26,R,15329126,15329266,142,877.6,570.2,4485,NA
28,1,binary,26,2,trial,15329417.0,15334900.0,5483.0,26,R,15329286,15329624,340,980.5,561.7,4542,NA
28,1,binary,26,2,trial,15329417.0,15334900.0,5483.0,26,R,15329684,15329976,294,563.2,612.9,4609,left
28,1,binary,26,2,trial,15329417.0,15334900.0,5483.0,26,R,15330044,15330178,136,1311.4,819.4,4307,NA
28,1,binary,26,2,trial,15329417.0,15334900.0,5483.0,26,R,15330212,15330430,220,1462.8,658.5,4225,right
28,1,binary,26,2,trial,15329417.0,15334900.0,5483.0,26,R,15330450,15330640,192,1562.1,612.4,4256,right
28,1,binary,26,2,trial,15329417.0,15334900.0,5483.0,26,R,15330860,15331080,222,422.4,547.1,4520,left
28,1,binary,26,2,trial,15329417.0,15334900.0,5483.0,26,R,15331104,15331394,292,538.4,592.1,4716,left
28,1,binary,26,2,trial,15329417.0,15334900.0,5483.0,26,R,15331570,15331944,376,561.4,656.1,4717,left
28,1,binary,26,2,trial,15329417.0,15334900.0,5483.0,26,R,15332010,15332198,190,1378.6,616.5,4579,right
28,1,binary,26,2,trial,15329417.0,15334900.0,5483.0,26,R,15332236,15332464,230,1525.0,635.7,4376,right
28,1,binary,26,2,trial,15329417.0,15334900.0,5483.0,26,R,15332480,15332648,170,1566.1,609.7,4375,right
28,1,binary,26,2,trial,15329417.0,15334900.0,5483.0,26,R,15332664,15332816,154,1570.6,560.7,4408,right
28,1,binary,26,2,trial,15329417.0,15334900.0,5483.0,26,R,15332826,15332948,124,1572.0,542.0,4449,right
28,1,binary,26,2,trial,15329417.0,15334900.0,5483.0,26,R,15333024,15333276,254,513.5,535.4,4780,left
28,1,binary,26,2,trial,15329417.0,15334900.0,5483.0,26,R,15333296,15333592,298,450.9,551.2,4618,left
28,1,binary,26,2,trial,15329417.0,15334900.0,5483.0,26,R,15333666,15333798,134,1429.3,584.4,4208,right
28,1,binary,26,2,trial,15329417.0,15334900.0,5483.0,26,R,15333970,15334152,184,1531.2,612.2,4163,right
28,1,binary,26,2,trial,15329417.0,15334900.0,5483.0,26,R,15334170,15334380,212,1565.4,564.9,4421,right
28,1,binary,26,2,trial,15329417.0,15334900.0,5483.0,26,R,15334458,15334766,310,532.6,619.7,4710,left
28,1,binary,26,2,postResponse,15329417.0,15334900.0,5483.0,26,R,15334786,15335246,462,577.8,627.3,4481,left
28,1,binary,27,1,fixationCross,15336017.0,15338934.0,2917.0,27,R,15335346,15335446,102,588.2,630.2,4581,left
28,1,binary,27,1,fixationCross,15336017.0,15338934.0,2917.0,27,R,15335484,15335712,230,769.6,596.6,4628,NA
28,1,binary,27,1,fixationCross,15336017.0,15338934.0,2917.0,27,R,15335752,15335984,234,955.0,571.7,4638,NA
28,1,binary,27,1,trial,15336017.0,15338934.0,2917.0,27,R,15335996,15336144,150,972.2,551.7,4653,NA
28,1,binary,27,1,trial,15336017.0,15338934.0,2917.0,27,R,15336154,15336212,60,1022.9,534.7,4704,NA
28,1,binary,27,1,trial,15336017.0,15338934.0,2917.0,27,R,15336256,15336386,132,1399.8,545.9,4493,right
28,1,binary,27,1,trial,15336017.0,15338934.0,2917.0,27,R,15336404,15336540,138,1478.9,531.4,4370,right
28,1,binary,27,1,trial,15336017.0,15338934.0,2917.0,27,R,15336606,15336782,178,578.1,582.0,4588,left
28,1,binary,27,1,trial,15336017.0,15338934.0,2917.0,27,R,15336796,15336986,192,559.7,606.4,4616,left
28,1,binary,27,1,trial,15336017.0,15338934.0,2917.0,27,R,15337010,15337242,234,448.9,549.3,4648,left
28,1,binary,27,1,trial,15336017.0,15338934.0,2917.0,27,R,15337256,15337434,180,413.4,548.4,4648,left
28,1,binary,27,1,trial,15336017.0,15338934.0,2917.0,27,R,15337508,15337856,350,1514.2,517.9,4312,right
28,1,binary,27,1,trial,15336017.0,15338934.0,2917.0,27,R,15337874,15338056,184,1558.5,482.0,4131,right
28,1,binary,27,1,trial,15336017.0,15338934.0,2917.0,27,R,15338126,15338242,118,766.3,901.7,4425,likertHorizontal
28,1,binary,27,1,postResponse,15336017.0,15338934.0,2917.0,27,R,15338272,15339284,1014,488.4,997.2,4601,NA
28,1,binary,28,1,fixationCross,15340167.0,15344467.0,4300.0,28,R,15339358,15339710,354,488.4,989.7,4779,NA
28,1,binary,28,1,fixationCross,15340167.0,15344467.0,4300.0,28,R,15339760,15339868,110,921.8,680.4,4723,NA
28,1,binary,28,1,trial,15340167.0,15344467.0,4300.0,28,R,15339892,15340326,436,970.9,565.2,4774,NA
28,1,binary,28,1,trial,15340167.0,15344467.0,4300.0,28,R,15340374,15340508,136,1266.5,615.3,4624,right
28,1,binary,28,1,trial,15340167.0,15344467.0,4300.0,28,R,15340534,15340738,206,1432.7,614.2,4433,right
28,1,binary,28,1,trial,15340167.0,15344467.0,4300.0,28,R,15340884,15341084,202,1490.1,625.5,4390,right
28,1,binary,28,1,trial,15340167.0,15344467.0,4300.0,28,R,15341104,15341218,116,1410.6,626.0,4515,right
28,1,binary,28,1,trial,15340167.0,15344467.0,4300.0,28,R,15341282,15341658,378,560.2,641.2,4734,left
28,1,binary,28,1,trial,15340167.0,15344467.0,4300.0,28,R,15341668,15342118,452,527.1,655.1,4358,left
28,1,binary,28,1,trial,15340167.0,15344467.0,4300.0,28,R,15342262,15343752,1492,542.2,656.7,4630,left
28,1,binary,28,1,trial,15340167.0,15344467.0,4300.0,28,R,15343830,15344000,172,1401.2,579.9,4320,right
28,1,binary,28,1,trial,15340167.0,15344467.0,4300.0,28,R,15344020,15344224,206,1495.2,575.8,4259,right
28,1,binary,28,1,trial,15340167.0,15344467.0,4300.0,28,R,15344298,15344614,318,527.7,704.2,4554,left
28,1,binary,28,1,postResponse,15340167.0,15344467.0,4300.0,28,R,15344666,15344800,136,1000.5,589.4,4407,NA
28,1,binary,29,2,fixationCross,15345334.0,15348534.0,3200.0,29,R,15344874,15345082,210,1000.5,589.4,4544,NA
28,1,binary,29,2,fixationCross,15345334.0,15348534.0,3200.0,29,R,15345100,15345248,150,1011.3,539.5,4642,NA
28,1,binary,29,2,trial,15345334.0,15348534.0,3200.0,29,R,15345262,15345606,346,968.2,548.6,4608,NA
28,1,binary,29,2,trial,15345334.0,15348534.0,3200.0,29,R,15345660,15345840,182,1430.6,589.1,4395,right
28,1,binary,29,2,trial,15345334.0,15348534.0,3200.0,29,R,15345928,15346096,170,477.1,550.1,4587,left
28,1,binary,29,2,trial,15345334.0,15348534.0,3200.0,29,R,15346112,15346228,118,489.2,483.8,4518,left
28,1,binary,29,2,trial,15345334.0,15348534.0,3200.0,29,R,15346244,15346760,518,474.3,438.3,4399,left
28,1,binary,29,2,trial,15345334.0,15348534.0,3200.0,29,R,15346776,15346928,154,555.1,430.8,4358,left
28,1,binary,29,2,trial,15345334.0,15348534.0,3200.0,29,R,15346994,15347184,192,1407.9,546.1,4222,right
28,1,binary,29,2,trial,15345334.0,15348534.0,3200.0,29,R,15347202,15347398,198,1483.7,580.9,4189,right
28,1,binary,29,2,trial,15345334.0,15348534.0,3200.0,29,R,15347410,15347520,112,1498.3,553.5,4119,right
28,1,binary,29,2,trial,15345334.0,15348534.0,3200.0,29,R,15347542,15347802,262,1413.3,474.1,4063,right
28,1,binary,29,2,trial,15345334.0,15348534.0,3200.0,29,R,15347818,15348022,206,1340.5,504.9,4052,right
28,1,binary,29,2,trial,15345334.0,15348534.0,3200.0,29,R,15348088,15348382,296,540.7,496.6,4282,left
28,1,binary,29,2,trial,15345334.0,15348534.0,3200.0,29,R,15348404,15348770,368,511.1,571.8,4406,left
28,1,binary,30,1,fixationCross,15349468.0,15351634.0,2166.0,30,R,15348982,15349354,374,957.9,582.5,4549,NA
28,1,binary,30,1,trial,15349468.0,15351634.0,2166.0,30,R,15349368,15349616,250,988.5,552.8,4709,NA
28,1,binary,30,1,trial,15349468.0,15351634.0,2166.0,30,R,15349676,15350016,342,517.3,588.5,4440,left
28,1,binary,30,1,trial,15349468.0,15351634.0,2166.0,30,R,15350030,15350232,204,444.4,564.1,4235,left
28,1,binary,30,1,trial,15349468.0,15351634.0,2166.0,30,R,15350306,15350500,196,1451.9,605.1,4075,right
28,1,binary,30,1,trial,15349468.0,15351634.0,2166.0,30,R,15350512,15350772,262,1456.8,636.8,4114,right
28,1,binary,30,1,trial,15349468.0,15351634.0,2166.0,30,R,15350784,15350952,170,1431.5,621.7,4089,right
28,1,binary,30,1,trial,15349468.0,15351634.0,2166.0,30,R,15351028,15351282,256,434.8,597.4,4337,left
28,1,binary,30,1,trial,15349468.0,15351634.0,2166.0,30,R,15351296,15351584,290,437.1,556.5,4425,left
28,1,binary,30,1,postResponse,15349468.0,15351634.0,2166.0,30,R,15351598,15351980,384,411.7,589.8,4452,left
28,1,binary,31,2,fixationCross,15352951.0,15355501.0,2550.0,31,R,15352080,15352136,58,420.2,593.6,4562,left
28,1,binary,31,2,fixationCross,15352951.0,15355501.0,2550.0,31,R,15352158,15352438,282,594.5,567.9,4611,left
28,1,binary,31,2,fixationCross,15352951.0,15355501.0,2550.0,31,R,15352484,15352656,174,860.3,571.5,4594,NA
28,1,binary,31,2,trial,15352951.0,15355501.0,2550.0,31,R,15352776,15353096,322,986.0,558.0,4644,NA
28,1,binary,31,2,trial,15352951.0,15355501.0,2550.0,31,R,15353150,15353290,142,638.3,585.3,4840,left
28,1,binary,31,2,trial,15352951.0,15355501.0,2550.0,31,R,15353314,15353582,270,513.7,634.4,4478,left
28,1,binary,31,2,trial,15352951.0,15355501.0,2550.0,31,R,15353606,15353822,218,679.2,612.1,4329,left
28,1,binary,31,2,trial,15352951.0,15355501.0,2550.0,31,R,15353900,15354068,170,1414.7,578.4,4150,right
28,1,binary,31,2,trial,15352951.0,15355501.0,2550.0,31,R,15354088,15354566,480,1475.9,605.5,4196,right
28,1,binary,31,2,trial,15352951.0,15355501.0,2550.0,31,R,15354588,15354892,306,1546.1,531.3,4243,right
28,1,binary,31,2,trial,15352951.0,15355501.0,2550.0,31,R,15354926,15355088,164,1342.6,530.4,4328,right
28,1,binary,31,2,trial,15352951.0,15355501.0,2550.0,31,R,15355108,15355366,260,1249.4,520.2,4417,right
28,1,binary,31,2,trial,15352951.0,15355501.0,2550.0,31,R,15355428,15355614,188,544.5,662.6,4756,left
28,1,binary,31,2,postResponse,15352951.0,15355501.0,2550.0,31,R,15355634,15355836,204,637.0,624.5,4690,left
28,1,binary,32,1,fixationCross,15356634.0,15359550.0,2916.0,32,R,15355910,15356276,368,641.1,632.0,4645,left
28,1,binary,32,1,fixationCross,15356634.0,15359550.0,2916.0,32,R,15356322,15356448,128,921.3,576.4,4572,NA
28,1,binary,32,1,trial,15356634.0,15359550.0,2916.0,32,R,15356466,15356772,308,973.6,564.6,4563,NA
28,1,binary,32,1,trial,15356634.0,15359550.0,2916.0,32,R,15356820,15356926,108,625.3,543.1,4708,left
28,1,binary,32,1,trial,15356634.0,15359550.0,2916.0,32,R,15356946,15357094,150,572.9,477.6,4490,left
28,1,binary,32,1,trial,15356634.0,15359550.0,2916.0,32,R,15357106,15357670,566,622.0,456.8,4317,left
28,1,binary,32,1,trial,15356634.0,15359550.0,2916.0,32,R,15357732,15357878,148,1344.7,531.2,4125,right
28,1,binary,32,1,trial,15356634.0,15359550.0,2916.0,32,R,15357900,15358054,156,1447.5,559.0,4081,right
28,1,binary,32,1,trial,15356634.0,15359550.0,2916.0,32,R,15358120,15358314,196,603.3,426.2,4119,left
28,1,binary,32,1,trial,15356634.0,15359550.0,2916.0,32,R,15358322,15358512,192,621.7,437.7,4176,left
28,1,binary,32,1,trial,15356634.0,15359550.0,2916.0,32,R,15358532,15358896,366,603.4,374.5,4394,left
28,1,binary,32,1,trial,15356634.0,15359550.0,2916.0,32,R,15358938,15358980,44,587.6,578.9,4467,left
28,1,binary,32,1,trial,15356634.0,15359550.0,2916.0,32,R,15359014,15359400,388,661.5,655.6,4537,left
28,1,binary,32,1,postResponse,15356634.0,15359550.0,2916.0,32,R,15359462,15359910,450,1448.9,623.6,4393,right
28,1,binary,33,1,fixationCross,15360484.0,15366518.0,6034.0,33,R,15359984,15360016,34,1451.3,622.2,4279,right
28,1,binary,33,1,fixationCross,15360484.0,15366518.0,6034.0,33,R,15360068,15360364,298,957.4,596.6,4534,NA
28,1,binary,33,1,trial,15360484.0,15366518.0,6034.0,33,R,15360384,15360624,242,983.1,564.5,4735,NA
28,1,binary,33,1,trial,15360484.0,15366518.0,6034.0,33,R,15360672,15360852,182,577.3,577.6,4879,left
28,1,binary,33,1,trial,15360484.0,15366518.0,6034.0,33,R,15360918,15361094,178,1528.9,574.7,4300,right
28,1,binary,33,1,trial,15360484.0,15366518.0,6034.0,33,R,15361108,15361974,868,1548.1,569.6,4150,right
28,1,binary,33,1,trial,15360484.0,15366518.0,6034.0,33,R,15362104,15362414,312,486.4,611.6,4381,left
28,1,binary,33,1,trial,15360484.0,15366518.0,6034.0,33,R,15362436,15362966,532,618.6,600.3,4431,left
28,1,binary,33,1,trial,15360484.0,15366518.0,6034.0,33,R,15362988,15363208,222,485.0,608.9,4473,left
28,1,binary,33,1,trial,15360484.0,15366518.0,6034.0,33,R,15363230,15363602,374,639.2,605.7,4503,left
28,1,binary,33,1,trial,15360484.0,15366518.0,6034.0,33,R,15363676,15363846,172,1472.5,584.4,4305,right
28,1,binary,33,1,trial,15360484.0,15366518.0,6034.0,33,R,15363866,15364456,592,1555.3,579.4,4208,right
28,1,binary,33,1,trial,15360484.0,15366518.0,6034.0,33,R,15364526,15364696,172,689.4,570.6,4441,left
28,1,binary,33,1,trial,15360484.0,15366518.0,6034.0,33,R,15364716,15365380,666,625.9,599.4,4495,left
28,1,binary,33,1,trial,15360484.0,15366518.0,6034.0,33,R,15365414,15365812,400,480.5,603.9,4440,left
28,1,binary,33,1,trial,15360484.0,15366518.0,6034.0,33,R,15365834,15365976,144,625.5,587.8,4378,left
28,1,binary,33,1,trial,15360484.0,15366518.0,6034.0,33,R,15366046,15366280,236,1519.4,587.2,4152,right
28,1,binary,33,1,trial,15360484.0,15366518.0,6034.0,33,R,15366294,15366742,450,1559.7,575.8,4104,right
28,1,binary,33,1,postResponse,15360484.0,15366518.0,6034.0,33,R,15366822,15366854,34,684.4,609.0,4409,left
28,1,binary,34,1,fixationCross,15367617.0,15373118.0,5501.0,34,R,15366954,15367300,348,675.2,613.9,4515,left
28,1,binary,34,1,trial,15367617.0,15373118.0,5501.0,34,R,15367344,15367786,444,967.7,568.7,4466,NA
28,1,binary,34,1,trial,15367617.0,15373118.0,5501.0,34,R,15367840,15367972,134,1465.0,571.4,4327,right
28,1,binary,34,1,trial,15367617.0,15373118.0,5501.0,34,R,15367994,15368182,190,1597.4,527.1,4080,right
28,1,binary,34,1,trial,15367617.0,15373118.0,5501.0,34,R,15368194,15368530,338,1613.2,498.8,4039,right
28,1,binary,34,1,trial,15367617.0,15373118.0,5501.0,34,R,15368602,15368912,312,612.6,538.1,4417,left
28,1,binary,34,1,trial,15367617.0,15373118.0,5501.0,34,R,15368932,15369110,180,519.7,565.3,4428,left
28,1,binary,34,1,trial,15367617.0,15373118.0,5501.0,34,R,15369128,15369396,270,449.5,577.3,4426,left
28,1,binary,34,1,trial,15367617.0,15373118.0,5501.0,34,R,15369420,15369772,354,598.8,501.1,4362,left
28,1,binary,34,1,trial,15367617.0,15373118.0,5501.0,34,R,15369908,15370122,216,568.4,523.6,4444,left
28,1,binary,34,1,trial,15367617.0,15373118.0,5501.0,34,R,15370144,15370806,664,455.0,581.7,4598,left
28,1,binary,34,1,trial,15367617.0,15373118.0,5501.0,34,R,15370816,15371850,1036,426.0,580.9,4405,left
28,1,binary,34,1,trial,15367617.0,15373118.0,5501.0,34,R,15371930,15372070,142,1488.6,529.2,4171,right
28,1,binary,34,1,trial,15367617.0,15373118.0,5501.0,34,R,15372092,15372254,164,1616.7,524.8,4073,right
28,1,binary,34,1,trial,15367617.0,15373118.0,5501.0,34,R,15372268,15372796,530,1618.7,494.0,3928,right
28,1,binary,34,1,trial,15367617.0,15373118.0,5501.0,34,R,15372866,15373040,176,612.4,568.2,4246,left
28,1,binary,34,1,postResponse,15367617.0,15373118.0,5501.0,34,R,15373060,15373452,394,501.8,586.9,4365,left
28,1,binary,35,1,fixationCross,15374217.0,15376684.0,2467.0,35,R,15373552,15373882,332,505.2,590.2,4492,left
28,1,binary,35,1,fixationCross,15374217.0,15376684.0,2467.0,35,R,15373926,15374062,138,919.0,590.8,4415,NA
28,1,binary,35,1,trial,15374217.0,15376684.0,2467.0,35,R,15374074,15374370,298,976.7,580.1,4419,NA
28,1,binary,35,1,trial,15374217.0,15376684.0,2467.0,35,R,15374396,15374470,76,897.0,585.2,4482,NA
28,1,binary,35,1,trial,15374217.0,15376684.0,2467.0,35,R,15374514,15374696,184,523.8,575.8,4421,left
28,1,binary,35,1,trial,15374217.0,15376684.0,2467.0,35,R,15374714,15374840,128,433.5,573.0,4316,left
28,1,binary,35,1,trial,15374217.0,15376684.0,2467.0,35,R,15374936,15375026,92,441.2,561.6,4091,left
28,1,binary,35,1,trial,15374217.0,15376684.0,2467.0,35,R,15375094,15375268,176,1458.0,576.0,3933,right
28,1,binary,35,1,trial,15374217.0,15376684.0,2467.0,35,R,15375280,15375830,552,1492.0,555.4,4110,right
28,1,binary,35,1,trial,15374217.0,15376684.0,2467.0,35,R,15375896,15376052,158,659.4,538.8,4330,left
28,1,binary,35,1,trial,15374217.0,15376684.0,2467.0,35,R,15376074,15376270,198,526.1,559.7,4374,left
28,1,binary,35,1,trial,15374217.0,15376684.0,2467.0,35,R,15376292,15376472,182,418.2,559.1,4364,left
28,1,binary,35,1,postResponse,15374217.0,15376684.0,2467.0,35,R,15376482,15377028,548,443.1,568.4,4419,left
28,1,binary,36,2,fixationCross,15377901.0,15380484.0,2583.0,36,R,15377128,15377442,316,457.6,568.9,4517,left
28,1,binary,36,2,fixationCross,15377901.0,15380484.0,2583.0,36,R,15377490,15377614,126,862.6,584.0,4500,NA
28,1,binary,36,2,trial,15377901.0,15380484.0,2583.0,36,R,15377636,15378060,426,983.6,565.2,4455,NA
28,1,binary,36,2,trial,15377901.0,15380484.0,2583.0,36,R,15378068,15378156,90,972.9,580.1,4575,NA
28,1,binary,36,2,trial,15377901.0,15380484.0,2583.0,36,R,15378202,15378344,144,1378.9,560.4,4247,right
28,1,binary,36,2,trial,15377901.0,15380484.0,2583.0,36,R,15378406,15378646,242,514.8,568.8,4162,left
28,1,binary,36,2,trial,15377901.0,15380484.0,2583.0,36,R,15378664,15378796,134,497.2,611.6,4127,left
28,1,binary,36,2,trial,15377901.0,15380484.0,2583.0,36,R,15378862,15379048,188,1397.1,558.8,4050,right
28,1,binary,36,2,trial,15377901.0,15380484.0,2583.0,36,R,15379066,15379282,218,1451.9,571.8,3951,right
28,1,binary,36,2,trial,15377901.0,15380484.0,2583.0,36,R,15379298,15379718,422,1387.8,541.1,3814,right
28,1,binary,36,2,trial,15377901.0,15380484.0,2583.0,36,R,15379788,15379980,194,423.6,538.4,3982,left
28,1,binary,36,2,trial,15377901.0,15380484.0,2583.0,36,R,15380002,15380234,234,523.7,601.4,4041,left
28,1,binary,36,2,trial,15377901.0,15380484.0,2583.0,36,R,15380250,15380780,532,460.4,576.5,4258,left
28,1,binary,37,2,fixationCross,15381851.0,15384951.0,3100.0,37,R,15380918,15381260,344,570.5,606.1,4421,left
28,1,binary,37,2,fixationCross,15381851.0,15384951.0,3100.0,37,R,15381482,15381632,152,864.2,587.9,4544,NA
28,1,binary,37,2,trial,15381851.0,15384951.0,3100.0,37,R,15381654,15382010,358,955.1,561.1,4613,NA
28,1,binary,37,2,trial,15381851.0,15384951.0,3100.0,37,R,15382046,15382194,150,806.0,587.1,4576,NA
28,1,binary,37,2,trial,15381851.0,15384951.0,3100.0,37,R,15382218,15382384,168,663.5,615.5,4380,left
28,1,binary,37,2,trial,15381851.0,15384951.0,3100.0,37,R,15382446,15382622,178,1434.4,563.7,4132,right
28,1,binary,37,2,trial,15381851.0,15384951.0,3100.0,37,R,15382642,15382774,134,1526.6,562.5,4128,right
28,1,binary,37,2,trial,15381851.0,15384951.0,3100.0,37,R,15382812,15382966,156,1284.6,451.5,4213,right
28,1,binary,37,2,trial,15381851.0,15384951.0,3100.0,37,R,15382976,15383108,134,1259.9,434.6,4270,right
28,1,binary,37,2,trial,15381851.0,15384951.0,3100.0,37,R,15383136,15383380,246,1510.9,446.7,4302,right
28,1,binary,37,2,trial,15381851.0,15384951.0,3100.0,37,R,15383454,15383694,242,538.2,638.7,4683,left
28,1,binary,37,2,trial,15381851.0,15384951.0,3100.0,37,R,15383826,15383980,156,487.1,611.8,4531,left
28,1,binary,37,2,trial,15381851.0,15384951.0,3100.0,37,R,15384048,15384222,176,1431.1,609.9,4446,right
28,1,binary,37,2,trial,15381851.0,15384951.0,3100.0,37,R,15384262,15384410,150,1599.1,647.9,4533,right
28,1,binary,37,2,trial,15381851.0,15384951.0,3100.0,37,R,15384430,15384626,198,1500.7,572.5,4550,right
28,1,binary,37,2,trial,15381851.0,15384951.0,3100.0,37,R,15384640,15384828,190,1495.6,522.4,4517,right
28,1,binary,37,2,trial,15381851.0,15384951.0,3100.0,37,R,15384838,15384986,150,1519.6,525.0,4440,right
28,1,binary,37,2,postResponse,15381851.0,15384951.0,3100.0,37,R,15385066,15385296,232,515.8,615.3,4783,left
28,1,binary,38,1,fixationCross,15386068.0,15391534.0,5466.0,38,R,15385370,15385596,228,525.1,614.2,4821,left
28,1,binary,38,1,fixationCross,15386068.0,15391534.0,5466.0,38,R,15385630,15385742,114,641.7,611.7,4781,left
28,1,binary,38,1,fixationCross,15386068.0,15391534.0,5466.0,38,R,15385788,15385908,122,916.7,562.8,4685,NA
28,1,binary,38,1,trial,15386068.0,15391534.0,5466.0,38,R,15385922,15386210,290,964.6,560.1,4705,NA
28,1,binary,38,1,trial,15386068.0,15391534.0,5466.0,38,R,15386266,15386420,156,585.8,579.5,4791,left
28,1,binary,38,1,trial,15386068.0,15391534.0,5466.0,38,R,15386478,15386610,134,1393.4,576.2,4188,right
28,1,binary,38,1,trial,15386068.0,15391534.0,5466.0,38,R,15386628,15386820,194,1436.8,588.0,3970,right
28,1,binary,38,1,trial,15386068.0,15391534.0,5466.0,38,R,15386830,15387268,440,1425.3,580.5,3950,right
28,1,binary,38,1,trial,15386068.0,15391534.0,5466.0,38,R,15387334,15387582,250,519.2,589.7,4415,left
28,1,binary,38,1,trial,15386068.0,15391534.0,5466.0,38,R,15387602,15387810,210,657.6,561.9,4375,left
28,1,binary,38,1,trial,15386068.0,15391534.0,5466.0,38,R,15387834,15388058,226,495.1,543.4,4305,left
28,1,binary,38,1,trial,15386068.0,15391534.0,5466.0,38,R,15388070,15388310,242,445.1,535.4,4284,left
28,1,binary,38,1,trial,15386068.0,15391534.0,5466.0,38,R,15388330,15388468,140,350.3,533.7,4281,left
28,1,binary,38,1,trial,15386068.0,15391534.0,5466.0,38,R,15388486,15388680,196,356.1,496.0,4302,left
28,1,binary,38,1,trial,15386068.0,15391534.0,5466.0,38,R,15388724,15388890,168,605.1,540.6,4289,left
28,1,binary,38,1,trial,15386068.0,15391534.0,5466.0,38,R,15388972,15389442,472,1433.1,586.3,4155,right
28,1,binary,38,1,trial,15386068.0,15391534.0,5466.0,38,R,15389464,15389710,248,1327.5,571.7,4131,right
28,1,binary,38,1,trial,15386068.0,15391534.0,5466.0,38,R,15389778,15389974,198,501.2,537.9,4334,left
28,1,binary,38,1,trial,15386068.0,15391534.0,5466.0,38,R,15389998,15390312,316,647.6,551.0,4303,left
28,1,binary,38,1,trial,15386068.0,15391534.0,5466.0,38,R,15390330,15390494,166,541.1,546.6,4205,left
28,1,binary,38,1,trial,15386068.0,15391534.0,5466.0,38,R,15390514,15390686,174,460.7,516.7,4180,left
28,1,binary,38,1,trial,15386068.0,15391534.0,5466.0,38,R,15390756,15390916,162,1401.4,589.8,4017,right
28,1,binary,38,1,trial,15386068.0,15391534.0,5466.0,38,R,15390928,15391136,210,1436.5,591.8,4007,right
28,1,binary,38,1,trial,15386068.0,15391534.0,5466.0,38,R,15391148,15391768,622,1421.5,579.3,3996,right
28,1,binary,39,1,fixationCross,15392651.0,15398385.0,5734.0,39,R,15391980,15392356,378,859.1,601.3,4585,NA
28,1,binary,39,1,trial,15392651.0,15398385.0,5734.0,39,R,15392376,15392794,420,962.3,572.3,4601,NA
28,1,binary,39,1,trial,15392651.0,15398385.0,5734.0,39,R,15392846,15393144,300,534.9,580.7,4508,left
28,1,binary,39,1,trial,15392651.0,15398385.0,5734.0,39,R,15393218,15393420,204,1467.6,548.3,4164,right
28,1,binary,39,1,trial,15392651.0,15398385.0,5734.0,39,R,15393440,15393682,244,1554.2,542.3,4094,right
28,1,binary,39,1,trial,15392651.0,15398385.0,5734.0,39,R,15393756,15393958,204,523.0,594.9,4478,left
28,1,binary,39,1,trial,15392651.0,15398385.0,5734.0,39,R,15393970,15394078,110,542.5,580.1,4466,left
28,1,binary,39,1,trial,15392651.0,15398385.0,5734.0,39,R,15394088,15394466,380,529.9,565.1,4291,left
28,1,binary,39,1,trial,15392651.0,15398385.0,5734.0,39,R,15394482,15394634,154,588.7,584.3,4162,left
28,1,binary,39,1,trial,15392651.0,15398385.0,5734.0,39,R,15394700,15394900,202,1524.9,536.1,3959,right
28,1,binary,39,1,trial,15392651.0,15398385.0,5734.0,39,R,15394916,15395222,308,1596.7,510.3,4032,right
28,1,binary,39,1,trial,15392651.0,15398385.0,5734.0,39,R,15395256,15395342,88,1367.7,485.8,4200,right
28,1,binary,39,1,trial,15392651.0,15398385.0,5734.0,39,R,15395412,15395646,236,584.0,580.7,4462,left
28,1,binary,39,1,trial,15392651.0,15398385.0,5734.0,39,R,15395660,15396544,886,523.0,557.8,4315,left
28,1,binary,39,1,trial,15392651.0,15398385.0,5734.0,39,R,15396556,15396916,362,507.8,536.1,4218,left
28,1,binary,39,1,trial,15392651.0,15398385.0,5734.0,39,R,15396928,15397240,314,478.5,556.4,4232,left
28,1,binary,39,1,trial,15392651.0,15398385.0,5734.0,39,R,15397256,15397370,116,498.9,612.9,4282,left
28,1,binary,39,1,trial,15392651.0,15398385.0,5734.0,39,R,15397444,15397668,226,1551.6,549.3,4089,right
28,1,binary,39,1,trial,15392651.0,15398385.0,5734.0,39,R,15397684,15397942,260,1615.6,518.7,4132,right
28,1,binary,39,1,trial,15392651.0,15398385.0,5734.0,39,R,15398012,15398290,280,566.0,560.6,4509,left
28,1,binary,39,1,trial,15392651.0,15398385.0,5734.0,39,R,15398302,15398594,294,535.5,577.3,4401,left
28,1,binary,40,1,fixationCross,15399635.0,15403334.0,3699.0,40,R,15398804,15398978,176,635.4,606.4,4444,left
28,1,binary,40,1,fixationCross,15399635.0,15403334.0,3699.0,40,R,15399156,15399324,170,739.9,540.5,4640,NA
28,1,binary,40,1,fixationCross,15399635.0,15403334.0,3699.0,40,R,15399358,15399484,128,910.2,557.0,4700,NA
28,1,binary,40,1,trial,15399635.0,15403334.0,3699.0,40,R,15399502,15399778,278,982.7,558.4,4565,NA
28,1,binary,40,1,trial,15399635.0,15403334.0,3699.0,40,R,15399830,15400114,286,602.5,550.4,4441,left
28,1,binary,40,1,trial,15399635.0,15403334.0,3699.0,40,R,15400132,15400284,154,532.0,571.3,4434,left
28,1,binary,40,1,trial,15399635.0,15403334.0,3699.0,40,R,15400298,15400454,158,531.2,523.4,4470,left
28,1,binary,40,1,trial,15399635.0,15403334.0,3699.0,40,R,15400522,15400762,242,1546.5,510.7,4159,right
28,1,binary,40,1,trial,15399635.0,15403334.0,3699.0,40,R,15400782,15400978,198,1449.1,486.9,4113,right
28,1,binary,40,1,trial,15399635.0,15403334.0,3699.0,40,R,15401000,15401412,414,1581.2,499.8,4152,right
28,1,binary,40,1,trial,15399635.0,15403334.0,3699.0,40,R,15401434,15401752,320,1422.3,493.8,4279,right
28,1,binary,40,1,trial,15399635.0,15403334.0,3699.0,40,R,15401774,15401864,92,1440.8,617.3,4390,right
28,1,binary,40,1,trial,15399635.0,15403334.0,3699.0,40,R,15401932,15402234,304,499.8,591.0,4698,left
28,1,binary,40,1,trial,15399635.0,15403334.0,3699.0,40,R,15402342,15402480,140,519.0,563.6,4696,left
28,1,binary,40,1,trial,15399635.0,15403334.0,3699.0,40,R,15402492,15402648,158,517.0,523.6,4679,left
28,1,binary,40,1,trial,15399635.0,15403334.0,3699.0,40,R,15402712,15402972,262,1465.9,493.9,4496,right
28,1,binary,40,1,trial,15399635.0,15403334.0,3699.0,40,R,15403050,15403174,126,521.6,958.5,4873,NA
28,1,binary,40,1,trial,15399635.0,15403334.0,3699.0,40,R,15403190,15403348,160,491.3,1008.2,4848,NA
28,1,binary,40,1,postResponse,15399635.0,15403334.0,3699.0,40,R,15403396,15403682,288,567.1,632.2,4656,left
28,1,binary,41,2,fixationCross,15404468.0,15408701.0,4233.0,41,R,15403780,15403834,56,566.5,632.2,4626,left
28,1,binary,41,2,fixationCross,15404468.0,15408701.0,4233.0,41,R,15403970,15404156,188,695.3,611.7,4706,left
28,1,binary,41,2,fixationCross,15404468.0,15408701.0,4233.0,41,R,15404198,15404388,192,956.9,571.6,4754,NA
28,1,binary,41,2,trial,15404468.0,15408701.0,4233.0,41,R,15404396,15404624,230,981.4,559.1,4709,NA
28,1,binary,41,2,trial,15404468.0,15408701.0,4233.0,41,R,15404636,15404722,88,1016.2,571.0,4585,NA
28,1,binary,41,2,trial,15404468.0,15408701.0,4233.0,41,R,15404772,15404936,166,511.7,549.8,4500,left
28,1,binary,41,2,trial,15404468.0,15408701.0,4233.0,41,R,15404996,15405244,250,1379.8,568.3,4145,right
28,1,binary,41,2,trial,15404468.0,15408701.0,4233.0,41,R,15405270,15405462,194,1554.4,572.6,4048,right
28,1,binary,41,2,trial,15404468.0,15408701.0,4233.0,41,R,15405492,15405650,160,1350.1,566.2,4215,right
28,1,binary,41,2,trial,15404468.0,15408701.0,4233.0,41,R,15405666,15405998,334,1278.5,553.6,4348,right
28,1,binary,41,2,trial,15404468.0,15408701.0,4233.0,41,R,15406062,15406260,200,501.2,548.8,4482,left
28,1,binary,41,2,trial,15404468.0,15408701.0,4233.0,41,R,15406278,15406432,156,438.1,516.2,4393,left
28,1,binary,41,2,trial,15404468.0,15408701.0,4233.0,41,R,15406452,15407182,732,536.3,549.9,4274,left
28,1,binary,41,2,trial,15404468.0,15408701.0,4233.0,41,R,15407198,15407436,240,467.5,522.1,4321,left
28,1,binary,41,2,trial,15404468.0,15408701.0,4233.0,41,R,15407444,15407574,132,440.7,523.3,4297,left
28,1,binary,41,2,trial,15404468.0,15408701.0,4233.0,41,R,15407640,15407966,328,1353.6,558.5,4145,right
28,1,binary,41,2,trial,15404468.0,15408701.0,4233.0,41,R,15407990,15408216,228,1527.8,554.3,4011,right
28,1,binary,41,2,trial,15404468.0,15408701.0,4233.0,41,R,15408234,15408406,174,1651.8,587.6,3983,right
28,1,binary,41,2,trial,15404468.0,15408701.0,4233.0,41,R,15408418,15408518,102,1683.2,601.2,4021,right
28,1,binary,41,2,trial,15404468.0,15408701.0,4233.0,41,R,15408562,15408912,352,1297.4,550.4,4210,right
28,1,binary,42,2,fixationCross,15409867.0,15413601.0,3734.0,42,R,15409150,15409550,402,656.9,593.6,4704,left
28,1,binary,42,2,trial,15409867.0,15413601.0,3734.0,42,R,15409594,15410006,414,982.5,583.0,4571,NA
28,1,binary,42,2,trial,15409867.0,15413601.0,3734.0,42,R,15410056,15410216,162,580.0,597.6,4585,left
28,1,binary,42,2,trial,15409867.0,15413601.0,3734.0,42,R,15410254,15410330,78,456.3,532.2,4398,left
28,1,binary,42,2,trial,15409867.0,15413601.0,3734.0,42,R,15410352,15410646,296,371.0,446.2,4289,left
28,1,binary,42,2,trial,15409867.0,15413601.0,3734.0,42,R,15410714,15410904,192,1338.9,592.5,4136,right
28,1,binary,42,2,trial,15409867.0,15413601.0,3734.0,42,R,15410926,15411090,166,1447.5,625.3,4101,right
28,1,binary,42,2,trial,15409867.0,15413601.0,3734.0,42,R,15411108,15411330,224,1508.6,554.2,4083,right
28,1,binary,42,2,trial,15409867.0,15413601.0,3734.0,42,R,15411346,15411454,110,1580.3,567.3,4089,right
28,1,binary,42,2,trial,15409867.0,15413601.0,3734.0,42,R,15411526,15411740,216,590.6,574.5,4353,left
28,1,binary,42,2,trial,15409867.0,15413601.0,3734.0,42,R,15411762,15412006,246,685.4,571.8,4396,left
28,1,binary,42,2,trial,15409867.0,15413601.0,3734.0,42,R,15412030,15412186,158,557.0,566.7,4446,left
28,1,binary,42,2,trial,15409867.0,15413601.0,3734.0,42,R,15412216,15412370,156,386.2,459.0,4454,left
28,1,binary,42,2,trial,15409867.0,15413601.0,3734.0,42,R,15412382,15412616,236,333.7,451.9,4440,left
28,1,binary,42,2,trial,15409867.0,15413601.0,3734.0,42,R,15412660,15412836,178,549.0,572.6,4435,left
28,1,binary,42,2,trial,15409867.0,15413601.0,3734.0,42,R,15412856,15413012,158,580.6,646.5,4468,left
28,1,binary,42,2,trial,15409867.0,15413601.0,3734.0,42,R,15413028,15413298,272,545.4,660.1,4511,left
28,1,binary,42,2,trial,15409867.0,15413601.0,3734.0,42,R,15413318,15413368,52,569.9,662.6,4532,left
28,1,binary,42,2,trial,15409867.0,15413601.0,3734.0,42,R,15413432,15413558,128,1376.4,971.4,4387,NA
28,1,binary,42,2,trial,15409867.0,15413601.0,3734.0,42,R,15413580,15413914,336,1450.9,991.6,4285,NA
28,1,binary,43,2,fixationCross,15414868.0,15420401.0,5533.0,43,R,15414050,15414140,92,1727.4,1091.5,4290,NA
28,1,binary,43,2,fixationCross,15414868.0,15420401.0,5533.0,43,R,15414154,15414376,224,1781.3,1064.0,4349,NA
28,1,binary,43,2,fixationCross,15414868.0,15420401.0,5533.0,43,R,15414440,15414584,146,1024.0,638.7,4553,NA
28,1,binary,43,2,trial,15414868.0,15420401.0,5533.0,43,R,15414604,15415022,420,970.5,557.3,4621,NA
28,1,binary,43,2,trial,15414868.0,15420401.0,5533.0,43,R,15415086,15415266,182,508.4,575.0,4719,left
28,1,binary,43,2,trial,15414868.0,15420401.0,5533.0,43,R,15415328,15415568,242,1341.3,567.5,4364,right
28,1,binary,43,2,trial,15414868.0,15420401.0,5533.0,43,R,15415594,15415824,232,1529.8,591.8,4280,right
28,1,binary,43,2,trial,15414868.0,15420401.0,5533.0,43,R,15415908,15416792,886,504.5,596.7,4588,left
28,1,binary,43,2,trial,15414868.0,15420401.0,5533.0,43,R,15416808,15417026,220,489.4,544.9,4471,left
28,1,binary,43,2,trial,15414868.0,15420401.0,5533.0,43,R,15417034,15417314,282,510.6,538.0,4426,left
28,1,binary,43,2,trial,15414868.0,15420401.0,5533.0,43,R,15417384,15417598,216,1374.9,579.2,4277,right
28,1,binary,43,2,trial,15414868.0,15420401.0,5533.0,43,R,15417640,15417878,240,1605.1,597.1,4205,right
28,1,binary,43,2,trial,15414868.0,15420401.0,5533.0,43,R,15417904,15418446,544,1370.9,599.6,4420,right
28,1,binary,43,2,trial,15414868.0,15420401.0,5533.0,43,R,15418490,15418784,296,1622.5,600.5,4410,right
28,1,binary,43,2,trial,15414868.0,15420401.0,5533.0,43,R,15418792,15418886,96,1648.2,602.5,4343,right
28,1,binary,43,2,trial,15414868.0,15420401.0,5533.0,43,R,15418928,15419062,136,1355.3,579.7,4385,right
28,1,binary,43,2,trial,15414868.0,15420401.0,5533.0,43,R,15419126,15419280,156,551.5,572.8,4557,left
28,1,binary,43,2,trial,15414868.0,15420401.0,5533.0,43,R,15419304,15419642,340,507.6,596.5,4585,left
28,1,binary,43,2,trial,15414868.0,15420401.0,5533.0,43,R,15419660,15420098,440,504.8,551.4,4421,left
28,1,binary,43,2,trial,15414868.0,15420401.0,5533.0,43,R,15420198,15420332,136,1432.3,840.1,4225,NA
28,1,binary,43,2,postResponse,15414868.0,15420401.0,5533.0,43,R,15420370,15420750,382,1411.8,629.8,4340,right
28,1,binary,44,1,fixationCross,15421568.0,15422968.0,1400.0,44,R,15420850,15420968,120,1417.1,634.8,4579,right
28,1,binary,44,1,fixationCross,15421568.0,15422968.0,1400.0,44,R,15421020,15421270,252,932.7,648.0,4684,NA
28,1,binary,44,1,trial,15421568.0,15422968.0,1400.0,44,R,15421288,15421716,430,983.0,587.3,4591,NA
28,1,binary,44,1,trial,15421568.0,15422968.0,1400.0,44,R,15421768,15421984,218,564.0,627.7,4577,left
28,1,binary,44,1,trial,15421568.0,15422968.0,1400.0,44,R,15421996,15422480,486,537.6,648.2,4233,left
28,1,binary,44,1,trial,15421568.0,15422968.0,1400.0,44,R,15422546,15422864,320,1437.6,600.6,3916,right
28,1,binary,44,1,trial,15421568.0,15422968.0,1400.0,44,R,15422876,15423062,188,1477.5,598.1,3892,right
28,1,binary,44,1,trial,15421568.0,15422968.0,1400.0,44,R,15423116,15423186,72,825.7,610.5,4096,NA
28,1,binary,45,2,fixationCross,15424218.0,15427402.0,3184.0,45,R,15423404,15423484,82,840.5,581.3,4304,NA
28,1,binary,45,2,fixationCross,15424218.0,15427402.0,3184.0,45,R,15423528,15423914,388,1120.7,586.7,4660,NA
28,1,binary,45,2,fixationCross,15424218.0,15427402.0,3184.0,45,R,15423936,15424086,152,1028.6,596.8,4704,NA
28,1,binary,45,2,trial,15424218.0,15427402.0,3184.0,45,R,15424102,15424370,270,975.2,585.9,4585,NA
28,1,binary,45,2,trial,15424218.0,15427402.0,3184.0,45,R,15424424,15424654,232,607.0,592.1,4527,left
28,1,binary,45,2,trial,15424218.0,15427402.0,3184.0,45,R,15424674,15424816,144,488.0,599.0,4283,left
28,1,binary,45,2,trial,15424218.0,15427402.0,3184.0,45,R,15424882,15425024,144,1452.7,563.2,4019,right
28,1,binary,45,2,trial,15424218.0,15427402.0,3184.0,45,R,15425042,15425208,168,1510.7,578.2,3971,right
28,1,binary,45,2,trial,15424218.0,15427402.0,3184.0,45,R,15425224,15425568,346,1463.0,618.7,3959,right
28,1,binary,45,2,trial,15424218.0,15427402.0,3184.0,45,R,15425582,15425720,140,1499.4,600.0,3954,right
28,1,binary,45,2,trial,15424218.0,15427402.0,3184.0,45,R,15425732,15426056,326,1505.2,569.2,3956,right
28,1,binary,45,2,trial,15424218.0,15427402.0,3184.0,45,R,15426126,15426560,436,548.1,584.1,4169,left
28,1,binary,45,2,trial,15424218.0,15427402.0,3184.0,45,R,15426580,15426914,336,463.7,514.1,4205,left
28,1,binary,45,2,trial,15424218.0,15427402.0,3184.0,45,R,15426936,15427082,148,596.5,514.1,4213,left
28,1,binary,45,2,trial,15424218.0,15427402.0,3184.0,45,R,15427096,15427254,160,647.1,521.5,4197,left
28,1,binary,45,2,trial,15424218.0,15427402.0,3184.0,45,R,15427322,15427420,100,1439.2,751.8,4108,NA
28,1,binary,45,2,postResponse,15424218.0,15427402.0,3184.0,45,R,15427448,15427750,304,1466.2,543.1,4054,right
28,1,binary,46,1,fixationCross,15428301.0,15431835.0,3534.0,46,R,15428024,15428198,176,914.5,586.9,4451,NA
28,1,binary,46,1,trial,15428301.0,15431835.0,3534.0,46,R,15428218,15428444,228,989.6,562.8,4660,NA
28,1,binary,46,1,trial,15428301.0,15431835.0,3534.0,46,R,15428496,15428620,126,566.2,579.0,4740,left
28,1,binary,46,1,trial,15428301.0,15431835.0,3534.0,46,R,15428644,15428988,346,513.1,680.6,4555,left
28,1,binary,46,1,trial,15428301.0,15431835.0,3534.0,46,R,15429054,15429250,198,1455.0,570.4,4263,right
28,1,binary,46,1,trial,15428301.0,15431835.0,3534.0,46,R,15429274,15429622,350,1594.6,624.6,4142,right
28,1,binary,46,1,trial,15428301.0,15431835.0,3534.0,46,R,15429696,15429878,184,534.9,685.3,4481,left
28,1,binary,46,1,trial,15428301.0,15431835.0,3534.0,46,R,15429886,15430038,154,509.9,675.2,4568,left
28,1,binary,46,1,trial,15428301.0,15431835.0,3534.0,46,R,15430062,15430436,376,514.8,542.3,4518,left
28,1,binary,46,1,trial,15428301.0,15431835.0,3534.0,46,R,15430510,15430674,166,1490.9,593.6,4171,right
28,1,binary,46,1,trial,15428301.0,15431835.0,3534.0,46,R,15430696,15431446,752,1620.4,619.6,4120,right
28,1,binary,46,1,trial,15428301.0,15431835.0,3534.0,46,R,15431476,15431586,112,1405.4,572.4,4257,right
28,1,binary,46,1,trial,15428301.0,15431835.0,3534.0,46,R,15431652,15431856,206,543.4,587.4,4450,left
28,1,binary,46,1,postResponse,15428301.0,15431835.0,3534.0,46,R,15431872,15432180,310,516.9,538.2,4312,left
28,1,binary,47,2,fixationCross,15432885.0,15435818.0,2933.0,47,R,15432256,15432566,312,528.2,540.1,4323,left
28,1,binary,47,2,trial,15432885.0,15435818.0,2933.0,47,R,15432644,15433036,394,978.7,558.0,4322,NA
28,1,binary,47,2,trial,15432885.0,15435818.0,2933.0,47,R,15433094,15433212,120,1423.3,557.9,4270,right
28,1,binary,47,2,trial,15432885.0,15435818.0,2933.0,47,R,15433234,15433474,242,1420.2,458.5,4063,right
28,1,binary,47,2,trial,15432885.0,15435818.0,2933.0,47,R,15433542,15433830,290,573.2,590.0,4186,left
28,1,binary,47,2,trial,15432885.0,15435818.0,2933.0,47,R,15433846,15434498,654,492.9,599.7,4299,left
28,1,binary,47,2,trial,15432885.0,15435818.0,2933.0,47,R,15434566,15434706,142,1409.6,497.4,4167,right
28,1,binary,47,2,trial,15432885.0,15435818.0,2933.0,47,R,15434720,15434942,224,1417.3,464.3,4159,right
28,1,binary,47,2,trial,15432885.0,15435818.0,2933.0,47,R,15434984,15435358,376,1516.7,576.1,4125,right
28,1,binary,47,2,trial,15432885.0,15435818.0,2933.0,47,R,15435378,15435718,342,1464.3,639.2,4188,right
28,1,binary,47,2,trial,15432885.0,15435818.0,2933.0,47,R,15435744,15436036,294,1416.4,473.6,4235,right
28,1,binary,48,1,fixationCross,15436852.0,15438168.0,1316.0,48,R,15436228,15436554,328,794.8,611.9,4595,NA
28,1,binary,48,1,trial,15436852.0,15438168.0,1316.0,48,R,15436576,15437012,438,958.9,582.4,4582,NA
28,1,binary,48,1,trial,15436852.0,15438168.0,1316.0,48,R,15437066,15437320,256,570.1,614.9,4498,left
28,1,binary,48,1,trial,15436852.0,15438168.0,1316.0,48,R,15437336,15437634,300,500.8,626.2,4380,left
28,1,binary,48,1,trial,15436852.0,15438168.0,1316.0,48,R,15437704,15437854,152,1458.4,512.2,3970,right
28,1,binary,48,1,trial,15436852.0,15438168.0,1316.0,48,R,15437870,15438070,202,1530.3,491.1,3878,right
28,1,binary,48,1,postResponse,15436852.0,15438168.0,1316.0,48,R,15438142,15438502,362,538.8,569.1,4185,left
28,1,binary,49,2,fixationCross,15439219.0,15442085.0,2866.0,49,R,15438578,15438884,308,539.8,574.7,4306,left
28,1,binary,49,2,fixationCross,15439219.0,15442085.0,2866.0,49,R,15438930,15439054,126,871.5,553.0,4291,NA
28,1,binary,49,2,trial,15439219.0,15442085.0,2866.0,49,R,15439072,15439370,300,962.3,553.4,4332,NA
28,1,binary,49,2,trial,15439219.0,15442085.0,2866.0,49,R,15439422,15439658,238,1471.6,542.5,4242,right
28,1,binary,49,2,trial,15439219.0,15442085.0,2866.0,49,R,15439678,15439748,72,1509.7,560.1,4107,right
28,1,binary,49,2,trial,15439219.0,15442085.0,2866.0,49,R,15439824,15440012,190,578.0,647.1,4289,left
28,1,binary,49,2,trial,15439219.0,15442085.0,2866.0,49,R,15440024,15440236,214,617.7,643.4,4285,left
28,1,binary,49,2,trial,15439219.0,15442085.0,2866.0,49,R,15440248,15440612,366,567.4,638.5,4358,left
28,1,binary,49,2,trial,15439219.0,15442085.0,2866.0,49,R,15440682,15440946,266,1499.8,543.7,4118,right
28,1,binary,49,2,trial,15439219.0,15442085.0,2866.0,49,R,15440960,15441216,258,1530.7,580.2,4109,right
28,1,binary,49,2,trial,15439219.0,15442085.0,2866.0,49,R,15441240,15441488,250,1572.4,461.3,4164,right
28,1,binary,49,2,trial,15439219.0,15442085.0,2866.0,49,R,15441564,15441778,216,565.0,612.4,4481,left
28,1,binary,49,2,trial,15439219.0,15442085.0,2866.0,49,R,15441792,15441976,186,623.2,630.0,4510,left
28,1,binary,49,2,trial,15439219.0,15442085.0,2866.0,49,R,15442004,15442218,216,811.5,658.0,4600,NA
28,1,binary,49,2,postResponse,15439219.0,15442085.0,2866.0,49,R,15442240,15442430,192,761.4,654.0,4606,NA
28,1,binary,50,1,fixationCross,15443301.0,15445668.0,2367.0,50,R,15442504,15442752,250,767.9,655.5,4617,NA
28,1,binary,50,1,fixationCross,15443301.0,15445668.0,2367.0,50,R,15442778,15442978,202,664.7,622.2,4577,left
28,1,binary,50,1,fixationCross,15443301.0,15445668.0,2367.0,50,R,15443024,15443148,126,949.4,568.4,4518,NA
28,1,binary,50,1,trial,15443301.0,15445668.0,2367.0,50,R,15443160,15443488,330,982.5,569.0,4539,NA
28,1,binary,50,1,trial,15443301.0,15445668.0,2367.0,50,R,15443536,15443850,316,582.7,611.3,4542,left
28,1,binary,50,1,trial,15443301.0,15445668.0,2367.0,50,R,15443922,15444310,390,1516.0,522.8,4062,right
28,1,binary,50,1,trial,15443301.0,15445668.0,2367.0,50,R,15444336,15444524,190,1385.4,611.5,3909,right
28,1,binary,50,1,trial,15443301.0,15445668.0,2367.0,50,R,15444540,15444708,170,1442.9,648.7,3899,right
28,1,binary,50,1,trial,15443301.0,15445668.0,2367.0,50,R,15444722,15444870,150,1489.3,646.2,3923,right
28,1,binary,50,1,trial,15443301.0,15445668.0,2367.0,50,R,15444938,15445236,300,584.6,642.6,4147,left
28,1,binary,50,1,trial,15443301.0,15445668.0,2367.0,50,R,15445246,15445494,250,586.6,613.4,4185,left
28,1,binary,50,1,trial,15443301.0,15445668.0,2367.0,50,R,15445516,15445746,232,476.7,573.7,4252,left
28,1,binary,50,1,trial,15443301.0,15445668.0,2367.0,50,R,15445762,15445900,140,449.2,534.2,4248,left
28,2,continuous,1,59,trial,15529053.0,15543070.0,14017.0,51,R,15528576,15529202,628,971.3,595.6,4459,NA
28,2,continuous,1,59,trial,15529053.0,15543070.0,14017.0,51,R,15529248,15529328,82,782.8,658.7,4540,NA
28,2,continuous,1,59,trial,15529053.0,15543070.0,14017.0,51,R,15529376,15529494,120,967.6,945.1,4414,likertHorizontal
28,2,continuous,1,59,trial,15529053.0,15543070.0,14017.0,51,R,15529556,15529712,158,539.5,996.9,4430,NA
28,2,continuous,1,59,trial,15529053.0,15543070.0,14017.0,51,R,15529776,15529904,130,1404.1,994.4,4194,NA
28,2,continuous,1,59,trial,15529053.0,15543070.0,14017.0,51,R,15529918,15530052,136,1441.4,1008.4,4144,NA
28,2,continuous,1,59,trial,15529053.0,15543070.0,14017.0,51,R,15530120,15530402,284,567.2,630.3,4350,left
28,2,continuous,1,59,trial,15529053.0,15543070.0,14017.0,51,R,15530462,15530646,186,1373.2,580.5,3956,right
28,2,continuous,1,59,trial,15529053.0,15543070.0,14017.0,51,R,15530662,15530838,178,1446.2,597.1,3861,right
28,2,continuous,1,59,trial,15529053.0,15543070.0,14017.0,51,R,15530848,15531158,312,1467.0,631.7,4014,right
28,2,continuous,1,59,trial,15529053.0,15543070.0,14017.0,51,R,15531230,15531698,470,490.5,613.7,4391,left
28,2,continuous,1,59,trial,15529053.0,15543070.0,14017.0,51,R,15531720,15531830,112,601.9,604.8,4129,left
28,2,continuous,1,59,trial,15529053.0,15543070.0,14017.0,51,R,15531890,15532080,192,1405.6,589.7,3807,right
28,2,continuous,1,59,trial,15529053.0,15543070.0,14017.0,51,R,15532098,15532398,302,1464.8,622.2,3891,right
28,2,continuous,1,59,trial,15529053.0,15543070.0,14017.0,51,R,15532462,15532648,188,894.4,979.5,4291,likertHorizontal
28,2,continuous,1,59,trial,15529053.0,15543070.0,14017.0,51,R,15532668,15533050,384,970.8,966.9,4272,likertHorizontal
28,2,continuous,1,59,trial,15529053.0,15543070.0,14017.0,51,R,15533108,15533282,176,532.9,997.4,4342,NA
28,2,continuous,1,59,trial,15529053.0,15543070.0,14017.0,51,R,15533338,15533510,174,504.2,577.9,4152,left
28,2,continuous,1,59,trial,15529053.0,15543070.0,14017.0,51,R,15533566,15533692,128,941.9,911.3,4040,likertHorizontal
28,2,continuous,1,59,trial,15529053.0,15543070.0,14017.0,51,R,15533710,15534362,654,982.5,959.6,4072,likertHorizontal
28,2,continuous,1,59,trial,15529053.0,15543070.0,14017.0,51,R,15534412,15534572,162,1404.0,1001.4,4113,NA
28,2,continuous,1,59,trial,15529053.0,15543070.0,14017.0,51,R,15535386,15535656,272,1440.8,657.2,4468,right
28,2,continuous,1,59,trial,15529053.0,15543070.0,14017.0,51,R,15535704,15535874,172,1322.7,436.3,4274,right
28,2,continuous,1,59,trial,15529053.0,15543070.0,14017.0,51,R,15535886,15536752,868,1350.8,446.4,4129,right
28,2,continuous,1,59,trial,15529053.0,15543070.0,14017.0,51,R,15536776,15536968,194,1407.0,607.4,4147,right
28,2,continuous,1,59,trial,15529053.0,15543070.0,14017.0,51,R,15536986,15537522,538,1468.3,648.0,4196,right
28,2,continuous,1,59,trial,15529053.0,15543070.0,14017.0,51,R,15537592,15537798,208,527.4,557.7,4276,left
28,2,continuous,1,59,trial,15529053.0,15543070.0,14017.0,51,R,15537812,15538048,238,476.8,581.9,4080,left
28,2,continuous,1,59,trial,15529053.0,15543070.0,14017.0,51,R,15538066,15538354,290,390.7,601.8,3900,left
28,2,continuous,1,59,trial,15529053.0,15543070.0,14017.0,51,R,15538382,15538886,506,598.3,580.9,3813,left
28,2,continuous,1,59,trial,15529053.0,15543070.0,14017.0,51,R,15538924,15539304,382,443.6,597.0,3895,left
28,2,continuous,1,59,trial,15529053.0,15543070.0,14017.0,51,R,15539318,15539788,472,389.0,595.6,3996,left
28,2,continuous,1,59,trial,15529053.0,15543070.0,14017.0,51,R,15539814,15540260,448,532.7,594.1,3997,left
28,2,continuous,1,59,trial,15529053.0,15543070.0,14017.0,51,R,15540336,15540492,158,1269.2,493.2,3916,right
28,2,continuous,1,59,trial,15529053.0,15543070.0,14017.0,51,R,15540512,15540676,166,1347.9,447.1,3904,right
28,2,continuous,1,59,trial,15529053.0,15543070.0,14017.0,51,R,15540686,15541074,390,1359.3,431.6,3948,right
28,2,continuous,1,59,trial,15529053.0,15543070.0,14017.0,51,R,15541118,15541324,208,1452.2,611.6,4045,right
28,2,continuous,1,59,trial,15529053.0,15543070.0,14017.0,51,R,15541394,15541522,130,1038.3,977.8,4282,likertHorizontal
28,2,continuous,1,59,trial,15529053.0,15543070.0,14017.0,51,R,15541534,15541684,152,998.4,970.0,4329,likertHorizontal
28,2,continuous,1,59,trial,15529053.0,15543070.0,14017.0,51,R,15541740,15541938,200,536.3,595.3,4224,left
28,2,continuous,1,59,trial,15529053.0,15543070.0,14017.0,51,R,15542004,15542168,166,1439.5,616.5,3952,right
28,2,continuous,1,59,trial,15529053.0,15543070.0,14017.0,51,R,15542190,15542344,156,1489.8,654.0,3962,right
28,2,continuous,1,59,trial,15529053.0,15543070.0,14017.0,51,R,15542398,15542544,148,1077.6,932.3,4190,likertHorizontal
28,2,continuous,1,59,postResponse,15529053.0,15543070.0,14017.0,51,R,15542558,15543414,858,1048.7,973.1,4169,likertHorizontal
28,2,continuous,2,27,fixationCross,15544170.0,15548336.0,4166.0,52,R,15543530,15543850,322,863.8,711.9,4414,NA
28,2,continuous,2,27,trial,15544170.0,15548336.0,4166.0,52,R,15543896,15544216,322,961.8,552.0,4351,NA
28,2,continuous,2,27,trial,15544170.0,15548336.0,4166.0,52,R,15544380,15544536,158,669.7,600.3,4241,left
28,2,continuous,2,27,trial,15544170.0,15548336.0,4166.0,52,R,15544562,15544740,180,504.1,582.8,4182,left
28,2,continuous,2,27,trial,15544170.0,15548336.0,4166.0,52,R,15544760,15544978,220,591.8,532.7,3957,left
28,2,continuous,2,27,trial,15544170.0,15548336.0,4166.0,52,R,15545042,15545260,220,1393.4,547.6,3628,right
28,2,continuous,2,27,trial,15544170.0,15548336.0,4166.0,52,R,15545282,15545468,188,1508.7,609.7,3612,right
28,2,continuous,2,27,trial,15544170.0,15548336.0,4166.0,52,R,15545494,15545650,158,1393.2,509.3,3694,right
28,2,continuous,2,27,trial,15544170.0,15548336.0,4166.0,52,R,15545660,15545786,128,1408.2,494.9,3759,right
28,2,continuous,2,27,trial,15544170.0,15548336.0,4166.0,52,R,15545814,15546138,326,1234.3,455.0,3813,right
28,2,continuous,2,27,trial,15544170.0,15548336.0,4166.0,52,R,15546188,15546560,374,1617.2,644.5,3825,right
28,2,continuous,2,27,trial,15544170.0,15548336.0,4166.0,52,R,15546636,15546876,242,594.6,548.7,4099,left
28,2,continuous,2,27,trial,15544170.0,15548336.0,4166.0,52,R,15546894,15547106,214,633.9,496.1,4053,left
28,2,continuous,2,27,trial,15544170.0,15548336.0,4166.0,52,R,15547128,15547638,512,498.0,545.8,4098,left
28,2,continuous,2,27,trial,15544170.0,15548336.0,4166.0,52,R,15547692,15547904,214,763.8,946.2,4206,likertHorizontal
28,2,continuous,2,27,trial,15544170.0,15548336.0,4166.0,52,R,15547950,15548154,206,605.6,547.0,4155,left
28,2,continuous,2,27,postResponse,15544170.0,15548336.0,4166.0,52,R,15548178,15548680,504,670.8,456.1,4201,left
28,2,continuous,3,19,fixationCross,15549553.0,15552970.0,3417.0,53,R,15548780,15549090,312,685.3,463.5,4270,left
28,2,continuous,3,19,fixationCross,15549553.0,15552970.0,3417.0,53,R,15549130,15549250,122,852.5,547.5,4257,NA
28,2,continuous,3,19,trial,15549553.0,15552970.0,3417.0,53,R,15549270,15549706,438,976.8,530.1,4262,NA
28,2,continuous,3,19,trial,15549553.0,15552970.0,3417.0,53,R,15549774,15549920,148,635.5,582.5,4340,left
28,2,continuous,3,19,trial,15549553.0,15552970.0,3417.0,53,R,15549938,15550120,184,554.5,597.2,4188,left
28,2,continuous,3,19,trial,15549553.0,15552970.0,3417.0,53,R,15550184,15550358,176,1384.6,567.2,3991,right
28,2,continuous,3,19,trial,15549553.0,15552970.0,3417.0,53,R,15550380,15550638,260,1359.2,512.8,3805,right
28,2,continuous,3,19,trial,15549553.0,15552970.0,3417.0,53,R,15550658,15550884,228,1438.2,572.6,3755,right
28,2,continuous,3,19,trial,15549553.0,15552970.0,3417.0,53,R,15550954,15551170,218,593.5,954.4,4214,NA
28,2,continuous,3,19,trial,15549553.0,15552970.0,3417.0,53,R,15551188,15551352,166,517.8,961.3,4258,NA
28,2,continuous,3,19,trial,15549553.0,15552970.0,3417.0,53,R,15551392,15552682,1292,550.4,583.1,4425,left
28,2,continuous,3,19,postResponse,15549553.0,15552970.0,3417.0,53,R,15552700,15553314,616,673.5,605.3,4570,left
28,2,continuous,4,87,fixationCross,15554237.0,15557770.0,3533.0,54,R,15553388,15553576,190,681.2,610.6,4606,left
28,2,continuous,4,87,fixationCross,15554237.0,15557770.0,3533.0,54,R,15553760,15553788,30,708.2,600.3,4703,left
28,2,continuous,4,87,fixationCross,15554237.0,15557770.0,3533.0,54,R,15553798,15553928,132,710.3,646.3,4603,left
28,2,continuous,4,87,fixationCross,15554237.0,15557770.0,3533.0,54,R,15553970,15554100,132,937.2,569.5,4682,NA
28,2,continuous,4,87,trial,15554237.0,15557770.0,3533.0,54,R,15554114,15554372,260,984.3,549.3,4601,NA
28,2,continuous,4,87,trial,15554237.0,15557770.0,3533.0,54,R,15554426,15554572,148,1198.6,547.9,4225,right
28,2,continuous,4,87,trial,15554237.0,15557770.0,3533.0,54,R,15554630,15554790,162,669.1,554.0,3935,left
28,2,continuous,4,87,trial,15554237.0,15557770.0,3533.0,54,R,15554836,15555084,250,366.4,492.3,3663,left
28,2,continuous,4,87,trial,15554237.0,15557770.0,3533.0,54,R,15555156,15555334,180,1391.4,554.4,3288,right
28,2,continuous,4,87,trial,15554237.0,15557770.0,3533.0,54,R,15555350,15555808,460,1486.6,568.3,3180,right
28,2,continuous,4,87,trial,15554237.0,15557770.0,3533.0,54,R,15555878,15555992,116,533.2,504.6,3262,left
28,2,continuous,4,87,trial,15554237.0,15557770.0,3533.0,54,R,15556020,15556230,212,342.0,456.2,3336,left
28,2,continuous,4,87,trial,15554237.0,15557770.0,3533.0,54,R,15556276,15556428,154,662.2,550.5,3339,left
28,2,continuous,4,87,trial,15554237.0,15557770.0,3533.0,54,R,15556480,15556646,168,1058.5,923.0,3385,likertHorizontal
28,2,continuous,4,87,trial,15554237.0,15557770.0,3533.0,54,R,15556692,15556848,158,1405.2,965.9,3420,NA
28,2,continuous,4,87,trial,15554237.0,15557770.0,3533.0,54,R,15556864,15557028,166,1458.9,978.1,3479,NA
28,2,continuous,4,87,trial,15554237.0,15557770.0,3533.0,54,R,15557066,15557276,212,1459.7,732.2,3564,NA
28,2,continuous,4,87,trial,15554237.0,15557770.0,3533.0,54,R,15557318,15557694,378,1316.6,959.4,3686,NA
