participantNo,block,task,blockTrial,response,trialStage,trialStartTime,trialFinishTime,rt,trial,eye,fixStart,fixEnd,fixLength,fixPosX,fixPosY,dilation,aoi
45,1,continuous,1,7,fixationCross,15361155.0,15364871.0,3716.0,1,R,15360400,15360502,104,840.7,870.4,5658,likertHorizontal
45,1,continuous,1,7,fixationCross,15361155.0,15364871.0,3716.0,1,R,15360552,15360716,166,877.2,434.5,5686,NA
45,1,continuous,1,7,fixationCross,15361155.0,15364871.0,3716.0,1,R,15360730,15360812,84,865.6,399.4,5727,NA
45,1,continuous,1,7,trial,15361155.0,15364871.0,3716.0,1,R,15360836,15361192,358,953.3,536.5,5826,NA
45,1,continuous,1,7,trial,15361155.0,15364871.0,3716.0,1,R,15361286,15361372,88,956.7,544.0,6006,NA
45,1,continuous,1,7,trial,15361155.0,15364871.0,3716.0,1,R,15361420,15361588,170,508.0,551.7,5998,left
45,1,continuous,1,7,trial,15361155.0,15364871.0,3716.0,1,R,15361638,15361754,118,464.0,1057.4,5792,NA
45,1,continuous,1,7,trial,15361155.0,15364871.0,3716.0,1,R,15361772,15361886,116,397.1,1065.8,5629,NA
45,1,continuous,1,7,trial,15361155.0,15364871.0,3716.0,1,R,15361934,15362112,180,973.7,1023.2,5511,likertHorizontal
45,1,continuous,1,7,trial,15361155.0,15364871.0,3716.0,1,R,15362122,15362334,214,945.1,1008.2,5626,likertHorizontal
45,1,continuous,1,7,trial,15361155.0,15364871.0,3716.0,1,R,15362370,15362560,192,683.0,1014.6,5845,NA
45,1,continuous,1,7,trial,15361155.0,15364871.0,3716.0,1,R,15362592,15362764,174,405.3,1087.4,5910,NA
45,1,continuous,1,7,trial,15361155.0,15364871.0,3716.0,1,R,15362780,15362908,130,459.8,1057.4,5913,NA
45,1,continuous,1,7,trial,15361155.0,15364871.0,3716.0,1,R,15362956,15363068,114,501.8,497.9,5765,left
45,1,continuous,1,7,trial,15361155.0,15364871.0,3716.0,1,R,15363138,15363452,316,1403.8,604.3,5530,right
45,1,continuous,1,7,trial,15361155.0,15364871.0,3716.0,1,R,15363468,15363692,226,1347.0,615.2,5522,right
45,1,continuous,1,7,trial,15361155.0,15364871.0,3716.0,1,R,15363776,15363882,108,332.1,1094.4,5652,NA
45,1,continuous,1,7,trial,15361155.0,15364871.0,3716.0,1,R,15363904,15364034,132,432.8,1037.7,5605,NA
45,1,continuous,1,7,trial,15361155.0,15364871.0,3716.0,1,R,15364056,15364232,178,549.9,1008.6,5457,NA
45,1,continuous,1,7,trial,15361155.0,15364871.0,3716.0,1,R,15364244,15364482,240,509.0,1015.7,5364,NA
45,1,continuous,1,7,trial,15361155.0,15364871.0,3716.0,1,R,15364608,15364704,98,472.0,989.2,5505,NA
45,1,continuous,1,7,trial,15361155.0,15364871.0,3716.0,1,R,15364756,15364906,152,431.0,510.6,5420,left
45,1,continuous,1,7,trial,15361155.0,15364871.0,3716.0,1,R,15364956,15365132,178,509.1,1038.8,5594,NA
45,1,continuous,1,7,postResponse,15361155.0,15364871.0,3716.0,1,R,15365202,15365238,38,923.1,526.6,5496,NA
45,1,continuous,2,84,fixationCross,15365821.0,15368188.0,2367.0,2,R,15365338,15365646,310,911.2,538.1,5584,NA
45,1,continuous,2,84,trial,15365821.0,15368188.0,2367.0,2,R,15365660,15366002,344,971.2,543.1,5870,NA
45,1,continuous,2,84,trial,15365821.0,15368188.0,2367.0,2,R,15366048,15366114,68,555.5,598.6,5951,left
45,1,continuous,2,84,trial,15365821.0,15368188.0,2367.0,2,R,15366158,15366278,122,509.6,967.0,5793,NA
45,1,continuous,2,84,trial,15365821.0,15368188.0,2367.0,2,R,15366346,15366466,122,1389.3,569.4,5439,right
45,1,continuous,2,84,trial,15365821.0,15368188.0,2367.0,2,R,15366490,15366698,210,1372.2,487.6,5419,right
45,1,continuous,2,84,trial,15365821.0,15368188.0,2367.0,2,R,15366766,15366910,146,462.8,606.3,5469,left
45,1,continuous,2,84,trial,15365821.0,15368188.0,2367.0,2,R,15366932,15367216,286,592.6,604.8,5478,left
45,1,continuous,2,84,trial,15365821.0,15368188.0,2367.0,2,R,15367272,15367410,140,1060.5,1041.6,5601,likertHorizontal
45,1,continuous,2,84,trial,15365821.0,15368188.0,2367.0,2,R,15367430,15367536,108,975.7,997.0,5647,likertHorizontal
45,1,continuous,2,84,trial,15365821.0,15368188.0,2367.0,2,R,15367580,15367834,256,1418.3,1039.6,5602,NA
45,1,continuous,2,84,trial,15365821.0,15368188.0,2367.0,2,R,15367858,15368374,518,1281.4,1001.4,5675,NA
45,1,continuous,2,84,postResponse,15365821.0,15368188.0,2367.0,2,R,15368508,15368536,30,1239.2,797.3,5882,NA
45,1,continuous,3,79,fixationCross,15369271.0,15373422.0,4151.0,3,R,15368648,15368966,320,789.4,577.1,5793,NA
45,1,continuous,3,79,trial,15369271.0,15373422.0,4151.0,3,R,15368994,15369440,448,981.6,563.9,5838,NA
45,1,continuous,3,79,trial,15369271.0,15373422.0,4151.0,3,R,15369486,15369626,142,533.4,575.6,5915,left
45,1,continuous,3,79,trial,15369271.0,15373422.0,4151.0,3,R,15369646,15369732,88,485.3,650.7,5677,left
45,1,continuous,3,79,trial,15369271.0,15373422.0,4151.0,3,R,15369786,15369910,126,917.6,998.2,5553,likertHorizontal
45,1,continuous,3,79,trial,15369271.0,15373422.0,4151.0,3,R,15369924,15370032,110,975.4,996.0,5550,likertHorizontal
45,1,continuous,3,79,trial,15369271.0,15373422.0,4151.0,3,R,15370086,15370320,236,1408.1,606.0,5442,right
45,1,continuous,3,79,trial,15369271.0,15373422.0,4151.0,3,R,15370468,15370674,208,1371.5,595.6,5609,right
45,1,continuous,3,79,trial,15369271.0,15373422.0,4151.0,3,R,15370690,15370814,126,1308.9,588.5,5671,right
45,1,continuous,3,79,trial,15369271.0,15373422.0,4151.0,3,R,15370934,15371026,94,1319.2,573.2,5709,right
45,1,continuous,3,79,trial,15369271.0,15373422.0,4151.0,3,R,15371088,15371278,192,519.5,575.8,5792,left
45,1,continuous,3,79,trial,15369271.0,15373422.0,4151.0,3,R,15371294,15371396,104,486.9,629.0,5728,left
45,1,continuous,3,79,trial,15369271.0,15373422.0,4151.0,3,R,15371464,15371672,210,1374.6,578.1,5468,right
45,1,continuous,3,79,trial,15369271.0,15373422.0,4151.0,3,R,15371696,15371902,208,1397.5,504.6,5368,right
45,1,continuous,3,79,trial,15369271.0,15373422.0,4151.0,3,R,15371974,15372160,188,448.1,617.3,5442,left
45,1,continuous,3,79,trial,15369271.0,15373422.0,4151.0,3,R,15372172,15372274,104,470.9,646.0,5466,left
45,1,continuous,3,79,trial,15369271.0,15373422.0,4151.0,3,R,15372326,15372566,242,978.8,1015.6,5577,likertHorizontal
45,1,continuous,3,79,trial,15369271.0,15373422.0,4151.0,3,R,15372610,15372724,116,1374.3,1024.8,5652,NA
45,1,continuous,3,79,trial,15369271.0,15373422.0,4151.0,3,R,15372760,15372914,156,1130.3,998.9,5747,likertHorizontal
45,1,continuous,3,79,trial,15369271.0,15373422.0,4151.0,3,R,15372928,15373210,284,1202.4,995.7,5775,NA
45,1,continuous,3,79,trial,15369271.0,15373422.0,4151.0,3,R,15373222,15373370,150,1274.8,981.8,5790,NA
45,1,continuous,3,79,trial,15369271.0,15373422.0,4151.0,3,R,15373378,15373684,308,1249.5,976.8,5870,NA
45,1,continuous,3,79,postResponse,15369271.0,15373422.0,4151.0,3,R,15373708,15373760,54,1144.3,852.7,5830,likertHorizontal
45,1,continuous,4,50,fixationCross,15374504.0,15380588.0,6084.0,4,R,15373862,15374202,342,849.0,450.6,5828,NA
45,1,continuous,4,50,trial,15374504.0,15380588.0,6084.0,4,R,15374230,15374572,344,976.1,568.1,5878,NA
45,1,continuous,4,50,trial,15374504.0,15380588.0,6084.0,4,R,15374700,15375008,310,530.5,565.7,5876,left
45,1,continuous,4,50,trial,15374504.0,15380588.0,6084.0,4,R,15375088,15375384,298,1411.4,605.5,5260,right
45,1,continuous,4,50,trial,15374504.0,15380588.0,6084.0,4,R,15375402,15375554,154,1462.5,626.9,5218,right
45,1,continuous,4,50,trial,15374504.0,15380588.0,6084.0,4,R,15375590,15375832,244,1555.5,449.3,5314,right
45,1,continuous,4,50,trial,15374504.0,15380588.0,6084.0,4,R,15375872,15376016,146,1249.2,466.7,5411,right
45,1,continuous,4,50,trial,15374504.0,15380588.0,6084.0,4,R,15376084,15376246,164,420.6,535.8,5542,left
45,1,continuous,4,50,trial,15374504.0,15380588.0,6084.0,4,R,15376270,15376494,226,505.7,596.4,5484,left
45,1,continuous,4,50,trial,15374504.0,15380588.0,6084.0,4,R,15376514,15376774,262,599.2,593.6,5397,left
45,1,continuous,4,50,trial,15374504.0,15380588.0,6084.0,4,R,15376800,15377008,210,498.9,520.4,5410,left
45,1,continuous,4,50,trial,15374504.0,15380588.0,6084.0,4,R,15377082,15377386,306,1410.4,631.3,5401,right
45,1,continuous,4,50,trial,15374504.0,15380588.0,6084.0,4,R,15377424,15377638,216,1261.5,486.7,5431,right
45,1,continuous,4,50,trial,15374504.0,15380588.0,6084.0,4,R,15377666,15377860,196,1389.6,609.3,5499,right
45,1,continuous,4,50,trial,15374504.0,15380588.0,6084.0,4,R,15377870,15378084,216,1396.1,639.0,5543,right
45,1,continuous,4,50,trial,15374504.0,15380588.0,6084.0,4,R,15378158,15378334,178,477.4,540.9,5747,left
45,1,continuous,4,50,trial,15374504.0,15380588.0,6084.0,4,R,15378354,15378554,202,508.2,613.0,5691,left
45,1,continuous,4,50,trial,15374504.0,15380588.0,6084.0,4,R,15378580,15378810,232,382.8,604.6,5615,left
45,1,continuous,4,50,trial,15374504.0,15380588.0,6084.0,4,R,15378842,15379028,188,453.7,490.3,5440,left
45,1,continuous,4,50,trial,15374504.0,15380588.0,6084.0,4,R,15379052,15379250,200,539.6,569.7,5285,left
45,1,continuous,4,50,trial,15374504.0,15380588.0,6084.0,4,R,15379268,15379482,216,484.8,610.3,5297,left
45,1,continuous,4,50,trial,15374504.0,15380588.0,6084.0,4,R,15379550,15379684,136,1015.5,1042.4,5467,likertHorizontal
45,1,continuous,4,50,trial,15374504.0,15380588.0,6084.0,4,R,15379698,15379836,140,967.1,1012.3,5512,likertHorizontal
45,1,continuous,4,50,trial,15374504.0,15380588.0,6084.0,4,R,15379882,15380062,182,1429.7,1053.9,5394,NA
45,1,continuous,4,50,trial,15374504.0,15380588.0,6084.0,4,R,15380116,15380282,168,1301.2,583.9,5272,right
45,1,continuous,4,50,trial,15374504.0,15380588.0,6084.0,4,R,15380328,15380384,58,933.9,525.3,5312,NA
45,1,continuous,4,50,trial,15374504.0,15380588.0,6084.0,4,R,15380436,15380580,146,1488.6,580.2,5233,right
45,1,continuous,4,50,trial,15374504.0,15380588.0,6084.0,4,R,15380640,15380852,214,943.1,992.0,5615,likertHorizontal
45,1,continuous,4,50,postResponse,15374504.0,15380588.0,6084.0,4,R,15380908,15380944,38,913.6,548.6,5704,NA
45,1,continuous,5,13,fixationCross,15381488.0,15384138.0,2650.0,5,R,15381108,15381438,332,960.1,512.8,5915,NA
45,1,continuous,5,13,trial,15381488.0,15384138.0,2650.0,5,R,15381452,15381650,200,993.8,546.7,5780,NA
45,1,continuous,5,13,trial,15381488.0,15384138.0,2650.0,5,R,15381700,15381888,190,485.4,568.7,5652,left
45,1,continuous,5,13,trial,15381488.0,15384138.0,2650.0,5,R,15381902,15382048,148,533.6,560.6,5367,left
45,1,continuous,5,13,trial,15381488.0,15384138.0,2650.0,5,R,15382120,15382268,150,1464.2,539.3,5078,right
45,1,continuous,5,13,trial,15381488.0,15384138.0,2650.0,5,R,15382300,15382550,252,1571.3,452.2,4915,right
45,1,continuous,5,13,trial,15381488.0,15384138.0,2650.0,5,R,15382592,15382870,280,1394.7,628.2,4837,right
45,1,continuous,5,13,trial,15381488.0,15384138.0,2650.0,5,R,15382942,15383468,528,518.9,560.9,4955,left
45,1,continuous,5,13,trial,15381488.0,15384138.0,2650.0,5,R,15383520,15383754,236,586.9,1044.9,5271,NA
45,1,continuous,5,13,trial,15381488.0,15384138.0,2650.0,5,R,15383776,15383932,158,477.5,1032.8,5372,NA
45,1,continuous,5,13,trial,15381488.0,15384138.0,2650.0,5,R,15383952,15384350,400,570.9,1012.3,5424,NA
45,1,continuous,6,92,fixationCross,15385238.0,15387005.0,1767.0,6,R,15384594,15384920,328,827.2,573.4,5499,NA
45,1,continuous,6,92,trial,15385238.0,15387005.0,1767.0,6,R,15384948,15385394,448,983.3,541.7,5433,NA
45,1,continuous,6,92,trial,15385238.0,15387005.0,1767.0,6,R,15385444,15385654,212,530.2,524.0,5409,left
45,1,continuous,6,92,trial,15385238.0,15387005.0,1767.0,6,R,15385668,15385728,62,533.7,569.4,5150,left
45,1,continuous,6,92,trial,15385238.0,15387005.0,1767.0,6,R,15385796,15386102,308,1389.2,574.9,4937,right
45,1,continuous,6,92,trial,15385238.0,15387005.0,1767.0,6,R,15386124,15386476,354,1421.6,667.4,5326,right
45,1,continuous,6,92,trial,15385238.0,15387005.0,1767.0,6,R,15386534,15386650,118,1358.4,1017.2,5704,NA
45,1,continuous,6,92,trial,15385238.0,15387005.0,1767.0,6,R,15386660,15386802,144,1337.8,991.9,5766,NA
45,1,continuous,6,92,trial,15385238.0,15387005.0,1767.0,6,R,15386854,15387050,198,1469.4,568.4,5524,right
45,1,continuous,6,92,postResponse,15385238.0,15387005.0,1767.0,6,R,15387082,15387340,260,1299.0,532.2,5333,right
45,1,continuous,7,97,fixationCross,15388172.0,15391988.0,3816.0,7,R,15387418,15387820,404,717.1,513.0,5427,left
45,1,continuous,7,97,trial,15388172.0,15391988.0,3816.0,7,R,15387856,15388306,452,973.3,528.5,5706,NA
45,1,continuous,7,97,trial,15388172.0,15391988.0,3816.0,7,R,15388350,15388504,156,535.8,495.7,5834,left
45,1,continuous,7,97,trial,15388172.0,15391988.0,3816.0,7,R,15388570,15388782,214,1410.5,587.2,5210,right
45,1,continuous,7,97,trial,15388172.0,15391988.0,3816.0,7,R,15388808,15388904,98,1366.0,484.9,5018,right
45,1,continuous,7,97,trial,15388172.0,15391988.0,3816.0,7,R,15388972,15389206,236,474.5,529.7,4947,left
45,1,continuous,7,97,trial,15388172.0,15391988.0,3816.0,7,R,15389228,15389472,246,573.4,624.3,4907,left
45,1,continuous,7,97,trial,15388172.0,15391988.0,3816.0,7,R,15389504,15389714,212,435.8,478.8,4974,left
45,1,continuous,7,97,trial,15388172.0,15391988.0,3816.0,7,R,15389790,15390010,222,1420.8,605.5,5075,right
45,1,continuous,7,97,trial,15388172.0,15391988.0,3816.0,7,R,15390034,15390218,186,1351.6,503.8,5041,right
45,1,continuous,7,97,trial,15388172.0,15391988.0,3816.0,7,R,15390244,15390498,256,1415.1,620.8,4905,right
45,1,continuous,7,97,trial,15388172.0,15391988.0,3816.0,7,R,15390522,15390674,154,1509.5,607.8,4872,right
45,1,continuous,7,97,trial,15388172.0,15391988.0,3816.0,7,R,15390704,15390882,180,1364.5,461.7,4992,right
45,1,continuous,7,97,trial,15388172.0,15391988.0,3816.0,7,R,15390966,15391148,184,451.9,586.1,5045,left
45,1,continuous,7,97,trial,15388172.0,15391988.0,3816.0,7,R,15391204,15391348,146,1030.9,1013.7,5010,likertHorizontal
45,1,continuous,7,97,trial,15388172.0,15391988.0,3816.0,7,R,15391394,15391646,254,1444.3,1039.7,5094,NA
45,1,continuous,7,97,trial,15388172.0,15391988.0,3816.0,7,R,15391672,15391882,212,1311.0,986.9,5301,NA
45,1,continuous,7,97,trial,15388172.0,15391988.0,3816.0,7,R,15391902,15392282,382,1409.8,982.2,5490,NA
45,1,continuous,8,4,fixationCross,15393039.0,15396172.0,3133.0,8,R,15392412,15392648,238,957.8,483.4,5799,NA
45,1,continuous,8,4,fixationCross,15393039.0,15396172.0,3133.0,8,R,15392672,15392848,178,830.5,514.0,5917,NA
45,1,continuous,8,4,trial,15393039.0,15396172.0,3133.0,8,R,15392870,15393188,320,968.3,543.4,5915,NA
45,1,continuous,8,4,trial,15393039.0,15396172.0,3133.0,8,R,15393238,15393432,196,477.7,515.0,5799,left
45,1,continuous,8,4,trial,15393039.0,15396172.0,3133.0,8,R,15393506,15393774,270,1443.1,543.2,5131,right
45,1,continuous,8,4,trial,15393039.0,15396172.0,3133.0,8,R,15393844,15394070,228,513.3,464.1,5176,left
45,1,continuous,8,4,trial,15393039.0,15396172.0,3133.0,8,R,15394086,15394284,200,469.1,492.4,5194,left
45,1,continuous,8,4,trial,15393039.0,15396172.0,3133.0,8,R,15394324,15394472,150,640.5,639.4,5231,left
45,1,continuous,8,4,trial,15393039.0,15396172.0,3133.0,8,R,15394504,15394608,106,484.9,490.6,5310,left
45,1,continuous,8,4,trial,15393039.0,15396172.0,3133.0,8,R,15394680,15394830,152,1415.1,511.3,5237,right
45,1,continuous,8,4,trial,15393039.0,15396172.0,3133.0,8,R,15394848,15394992,146,1476.2,531.1,5199,right
45,1,continuous,8,4,trial,15393039.0,15396172.0,3133.0,8,R,15395020,15395106,88,1480.4,431.8,5226,right
45,1,continuous,8,4,trial,15393039.0,15396172.0,3133.0,8,R,15395214,15395406,194,480.8,528.2,5502,left
45,1,continuous,8,4,trial,15393039.0,15396172.0,3133.0,8,R,15395446,15395562,118,485.3,731.3,5530,left
45,1,continuous,8,4,trial,15393039.0,15396172.0,3133.0,8,R,15395606,15395844,240,533.1,1007.2,5436,NA
45,1,continuous,8,4,trial,15393039.0,15396172.0,3133.0,8,R,15395862,15396050,190,453.3,1041.9,5346,NA
45,1,continuous,8,4,trial,15393039.0,15396172.0,3133.0,8,R,15396062,15396204,144,468.2,1009.8,5301,NA
45,1,continuous,8,4,trial,15393039.0,15396172.0,3133.0,8,R,15396260,15396444,186,528.1,470.1,5313,left
45,1,continuous,8,4,postResponse,15393039.0,15396172.0,3133.0,8,R,15396478,15396512,36,732.9,449.3,5310,left
45,1,continuous,9,100,fixationCross,15397072.0,15399839.0,2767.0,9,R,15396586,15396724,140,728.7,449.9,5323,left
45,1,continuous,9,100,fixationCross,15397072.0,15399839.0,2767.0,9,R,15396768,15397010,244,1023.8,513.5,5556,NA
45,1,continuous,9,100,trial,15397072.0,15399839.0,2767.0,9,R,15397026,15397220,196,983.1,542.9,5768,NA
45,1,continuous,9,100,trial,15397072.0,15399839.0,2767.0,9,R,15397268,15397466,200,503.2,576.0,5812,left
45,1,continuous,9,100,trial,15397072.0,15399839.0,2767.0,9,R,15397492,15397690,200,395.9,534.4,5377,left
45,1,continuous,9,100,trial,15397072.0,15399839.0,2767.0,9,R,15397710,15397944,236,440.4,482.6,5137,left
45,1,continuous,9,100,trial,15397072.0,15399839.0,2767.0,9,R,15397976,15398172,198,367.1,624.0,5093,left
45,1,continuous,9,100,trial,15397072.0,15399839.0,2767.0,9,R,15398210,15398384,176,453.0,481.5,5151,left
45,1,continuous,9,100,trial,15397072.0,15399839.0,2767.0,9,R,15398458,15398596,140,1432.8,514.2,4952,right
45,1,continuous,9,100,trial,15397072.0,15399839.0,2767.0,9,R,15398610,15398778,170,1483.0,495.5,4939,right
45,1,continuous,9,100,trial,15397072.0,15399839.0,2767.0,9,R,15398822,15398972,152,1393.0,778.0,5049,NA
45,1,continuous,9,100,trial,15397072.0,15399839.0,2767.0,9,R,15399012,15399356,346,1400.6,1002.3,5237,NA
45,1,continuous,9,100,trial,15397072.0,15399839.0,2767.0,9,R,15399366,15399578,214,1367.2,988.1,5409,NA
45,1,continuous,9,100,trial,15397072.0,15399839.0,2767.0,9,R,15399594,15400028,436,1441.6,978.5,5552,NA
45,1,continuous,9,100,postResponse,15397072.0,15399839.0,2767.0,9,R,15400152,15400188,38,859.7,462.2,5801,NA
45,1,continuous,10,89,fixationCross,15400972.0,15403439.0,2467.0,10,R,15400264,15400666,404,844.0,458.0,5701,NA
45,1,continuous,10,89,fixationCross,15400972.0,15403439.0,2467.0,10,R,15400698,15400858,162,980.4,571.7,5647,NA
45,1,continuous,10,89,trial,15400972.0,15403439.0,2467.0,10,R,15400868,15401108,242,974.7,559.1,5585,NA
45,1,continuous,10,89,trial,15400972.0,15403439.0,2467.0,10,R,15401158,15401354,198,518.0,560.5,5531,left
45,1,continuous,10,89,trial,15400972.0,15403439.0,2467.0,10,R,15401422,15401786,366,1422.2,582.8,4961,right
45,1,continuous,10,89,trial,15400972.0,15403439.0,2467.0,10,R,15401858,15402106,250,467.6,554.7,5135,left
45,1,continuous,10,89,trial,15400972.0,15403439.0,2467.0,10,R,15402124,15402530,408,547.5,589.2,4965,left
45,1,continuous,10,89,trial,15400972.0,15403439.0,2467.0,10,R,15402572,15402694,124,873.6,688.1,5054,NA
45,1,continuous,10,89,trial,15400972.0,15403439.0,2467.0,10,R,15402756,15403052,298,1453.0,563.2,5198,right
45,1,continuous,10,89,trial,15400972.0,15403439.0,2467.0,10,R,15403108,15403244,138,1334.4,1051.1,5507,NA
45,1,continuous,10,89,trial,15400972.0,15403439.0,2467.0,10,R,15403262,15403402,142,1351.6,989.5,5511,NA
45,1,continuous,10,89,trial,15400972.0,15403439.0,2467.0,10,R,15403454,15403742,290,1370.6,629.8,5227,right
45,1,continuous,11,7,fixationCross,15404689.0,15406555.0,1866.0,11,R,15403872,15404340,470,805.5,491.7,5391,NA
45,1,continuous,11,7,fixationCross,15404689.0,15406555.0,1866.0,11,R,15404366,15404396,32,972.3,534.9,5612,NA
45,1,continuous,11,7,fixationCross,15404689.0,15406555.0,1866.0,11,R,15404510,15404616,108,940.9,560.2,5695,NA
45,1,continuous,11,7,trial,15404689.0,15406555.0,1866.0,11,R,15404630,15404824,196,992.9,554.2,5705,NA
45,1,continuous,11,7,trial,15404689.0,15406555.0,1866.0,11,R,15404870,15405152,284,566.8,562.2,5493,left
45,1,continuous,11,7,trial,15404689.0,15406555.0,1866.0,11,R,15405222,15405562,342,1407.0,597.4,4791,right
45,1,continuous,11,7,trial,15404689.0,15406555.0,1866.0,11,R,15405636,15405734,100,599.9,971.8,4907,NA
45,1,continuous,11,7,trial,15404689.0,15406555.0,1866.0,11,R,15405786,15406030,246,481.8,570.3,4977,left
45,1,continuous,11,7,trial,15404689.0,15406555.0,1866.0,11,R,15406084,15406224,142,443.9,1025.8,5005,NA
45,1,continuous,11,7,trial,15404689.0,15406555.0,1866.0,11,R,15406240,15406436,198,517.6,1010.1,5047,NA
45,1,continuous,11,7,postResponse,15404689.0,15406555.0,1866.0,11,R,15406446,15406890,446,474.5,1021.9,5071,NA
45,1,continuous,12,99,fixationCross,15407472.0,15409422.0,1950.0,12,R,15406990,15407432,444,915.3,535.0,5254,NA
45,1,continuous,12,99,trial,15407472.0,15409422.0,1950.0,12,R,15407448,15407638,192,986.1,538.8,5468,NA
45,1,continuous,12,99,trial,15407472.0,15409422.0,1950.0,12,R,15407688,15407920,234,480.3,567.0,5300,left
45,1,continuous,12,99,trial,15407472.0,15409422.0,1950.0,12,R,15407940,15408102,164,434.4,541.2,4769,left
45,1,continuous,12,99,trial,15407472.0,15409422.0,1950.0,12,R,15408176,15408332,158,1390.1,585.8,4509,right
45,1,continuous,12,99,trial,15407472.0,15409422.0,1950.0,12,R,15408354,15408514,162,1284.8,626.4,4494,right
45,1,continuous,12,99,trial,15407472.0,15409422.0,1950.0,12,R,15408524,15408862,340,1256.3,643.6,4711,right
45,1,continuous,12,99,trial,15407472.0,15409422.0,1950.0,12,R,15408914,15409126,214,1367.4,998.3,5189,NA
45,1,continuous,12,99,trial,15407472.0,15409422.0,1950.0,12,R,15409142,15409360,220,1444.5,994.6,5331,NA
45,1,continuous,12,99,trial,15407472.0,15409422.0,1950.0,12,R,15409512,15409568,58,1469.4,943.3,5521,NA
45,1,continuous,12,99,trial,15407472.0,15409422.0,1950.0,12,R,15409578,15409658,82,1462.0,985.5,5421,NA
45,1,continuous,12,99,postResponse,15407472.0,15409422.0,1950.0,12,R,15409726,15409762,38,770.0,512.3,5496,NA
45,1,continuous,13,81,fixationCross,15410605.0,15412872.0,2267.0,13,R,15409838,15410288,452,790.7,516.1,5532,NA
45,1,continuous,13,81,trial,15410605.0,15412872.0,2267.0,13,R,15410316,15410746,432,985.8,551.0,5487,NA
45,1,continuous,13,81,trial,15410605.0,15412872.0,2267.0,13,R,15410794,15410924,132,525.1,526.4,5632,left
45,1,continuous,13,81,trial,15410605.0,15412872.0,2267.0,13,R,15410946,15411098,154,408.6,592.9,5253,left
45,1,continuous,13,81,trial,15410605.0,15412872.0,2267.0,13,R,15411162,15411320,160,1278.2,561.0,4881,right
45,1,continuous,13,81,trial,15410605.0,15412872.0,2267.0,13,R,15411338,15411480,144,1299.0,524.7,4801,right
45,1,continuous,13,81,trial,15410605.0,15412872.0,2267.0,13,R,15411516,15411714,200,1505.5,528.7,4776,right
45,1,continuous,13,81,trial,15410605.0,15412872.0,2267.0,13,R,15411728,15411818,92,1471.6,497.0,4839,right
45,1,continuous,13,81,trial,15410605.0,15412872.0,2267.0,13,R,15411892,15412124,234,476.7,569.6,4869,left
45,1,continuous,13,81,trial,15410605.0,15412872.0,2267.0,13,R,15412186,15412344,160,1085.5,997.7,4972,likertHorizontal
45,1,continuous,13,81,trial,15410605.0,15412872.0,2267.0,13,R,15412376,15412568,194,1326.3,1001.5,5143,NA
45,1,continuous,13,81,trial,15410605.0,15412872.0,2267.0,13,R,15412592,15412716,126,1202.8,965.8,5310,NA
45,1,continuous,13,81,trial,15410605.0,15412872.0,2267.0,13,R,15412782,15413168,388,465.7,577.6,5452,left
45,1,continuous,14,92,fixationCross,15413938.0,15416639.0,2701.0,14,R,15413286,15413626,342,797.7,516.2,5134,NA
45,1,continuous,14,92,trial,15413938.0,15416639.0,2701.0,14,R,15413656,15414070,416,993.6,570.4,5432,NA
45,1,continuous,14,92,trial,15413938.0,15416639.0,2701.0,14,R,15414118,15414260,144,599.3,523.0,5533,left
45,1,continuous,14,92,trial,15413938.0,15416639.0,2701.0,14,R,15414282,15414470,190,508.9,532.2,5279,left
45,1,continuous,14,92,trial,15413938.0,15416639.0,2701.0,14,R,15414534,15414656,124,1328.1,500.5,4968,right
45,1,continuous,14,92,trial,15413938.0,15416639.0,2701.0,14,R,15414676,15414846,172,1338.2,439.6,4825,right
45,1,continuous,14,92,trial,15413938.0,15416639.0,2701.0,14,R,15414878,15415096,220,1487.9,577.6,4893,right
45,1,continuous,14,92,trial,15413938.0,15416639.0,2701.0,14,R,15415168,15415326,160,489.1,620.1,5180,left
45,1,continuous,14,92,trial,15413938.0,15416639.0,2701.0,14,R,15415350,15415502,154,492.4,527.6,5151,left
45,1,continuous,14,92,trial,15413938.0,15416639.0,2701.0,14,R,15415522,15415876,356,570.2,533.2,5172,left
45,1,continuous,14,92,trial,15413938.0,15416639.0,2701.0,14,R,15415950,15416374,426,1255.5,1011.4,5475,NA
45,1,continuous,14,92,trial,15413938.0,15416639.0,2701.0,14,R,15416398,15416572,176,1430.8,994.7,5613,NA
45,1,continuous,14,92,postResponse,15413938.0,15416639.0,2701.0,14,R,15416582,15416956,376,1395.2,981.2,5718,NA
45,1,continuous,15,10,fixationCross,15417722.0,15420389.0,2667.0,15,R,15417044,15417192,150,895.5,580.7,5753,NA
45,1,continuous,15,10,fixationCross,15417722.0,15420389.0,2667.0,15,R,15417220,15417408,190,748.0,521.3,5840,NA
45,1,continuous,15,10,trial,15417722.0,15420389.0,2667.0,15,R,15417438,15417800,364,986.2,542.5,5901,NA
45,1,continuous,15,10,trial,15417722.0,15420389.0,2667.0,15,R,15417902,15418022,122,548.4,562.7,5799,left
45,1,continuous,15,10,trial,15417722.0,15420389.0,2667.0,15,R,15418048,15418202,156,428.9,530.1,5458,left
45,1,continuous,15,10,trial,15417722.0,15420389.0,2667.0,15,R,15418272,15418506,236,1391.0,594.2,4939,right
45,1,continuous,15,10,trial,15417722.0,15420389.0,2667.0,15,R,15418522,15418562,42,1460.0,596.0,4766,right
45,1,continuous,15,10,trial,15417722.0,15420389.0,2667.0,15,R,15418580,15418860,282,1456.7,581.5,4783,right
45,1,continuous,15,10,trial,15417722.0,15420389.0,2667.0,15,R,15418998,15419104,108,1417.0,600.6,4919,right
45,1,continuous,15,10,trial,15417722.0,15420389.0,2667.0,15,R,15419182,15419296,116,352.0,551.1,5145,left
45,1,continuous,15,10,trial,15417722.0,15420389.0,2667.0,15,R,15419316,15419468,154,427.0,515.6,5049,left
45,1,continuous,15,10,trial,15417722.0,15420389.0,2667.0,15,R,15419488,15419634,148,459.8,590.2,4913,left
45,1,continuous,15,10,trial,15417722.0,15420389.0,2667.0,15,R,15419686,15419850,166,607.9,987.2,4877,NA
45,1,continuous,15,10,trial,15417722.0,15420389.0,2667.0,15,R,15419874,15419994,122,463.7,1022.0,4945,NA
45,1,continuous,15,10,trial,15417722.0,15420389.0,2667.0,15,R,15420018,15420274,258,584.0,1002.8,5036,NA
45,1,continuous,15,10,trial,15417722.0,15420389.0,2667.0,15,R,15420286,15420670,386,540.7,1019.1,5338,NA
45,1,continuous,16,95,fixationCross,15421289.0,15422756.0,1467.0,16,R,15420810,15421170,362,898.6,520.0,5377,NA
45,1,continuous,16,95,trial,15421289.0,15422756.0,1467.0,16,R,15421190,15421458,270,990.1,551.4,5491,NA
45,1,continuous,16,95,trial,15421289.0,15422756.0,1467.0,16,R,15421506,15421672,168,538.8,555.8,5516,left
45,1,continuous,16,95,trial,15421289.0,15422756.0,1467.0,16,R,15421742,15421900,160,1378.6,547.0,5057,right
45,1,continuous,16,95,trial,15421289.0,15422756.0,1467.0,16,R,15421922,15422140,220,1482.0,528.2,4957,right
45,1,continuous,16,95,trial,15421289.0,15422756.0,1467.0,16,R,15422160,15422280,122,1391.4,539.8,4818,right
45,1,continuous,16,95,trial,15421289.0,15422756.0,1467.0,16,R,15422328,15422572,246,1334.7,976.0,4964,NA
45,1,continuous,16,95,trial,15421289.0,15422756.0,1467.0,16,R,15422590,15422676,88,1423.4,998.3,5061,NA
45,1,continuous,16,95,postResponse,15421289.0,15422756.0,1467.0,16,R,15422730,15423090,362,1332.2,505.0,5156,right
45,1,continuous,17,94,fixationCross,15423672.0,15425938.0,2266.0,17,R,15423188,15423342,156,1340.0,506.9,5209,right
45,1,continuous,17,94,fixationCross,15423672.0,15425938.0,2266.0,17,R,15423398,15423660,264,921.3,588.2,5505,NA
45,1,continuous,17,94,trial,15423672.0,15425938.0,2266.0,17,R,15423678,15423818,142,990.4,555.7,5641,NA
45,1,continuous,17,94,trial,15423672.0,15425938.0,2266.0,17,R,15423866,15423990,126,527.0,540.5,5662,left
45,1,continuous,17,94,trial,15423672.0,15425938.0,2266.0,17,R,15424016,15424210,196,417.8,469.7,5151,left
45,1,continuous,17,94,trial,15423672.0,15425938.0,2266.0,17,R,15424286,15424464,180,1458.5,616.2,4727,right
45,1,continuous,17,94,trial,15423672.0,15425938.0,2266.0,17,R,15424490,15424706,218,1589.1,548.6,4679,right
45,1,continuous,17,94,trial,15423672.0,15425938.0,2266.0,17,R,15424724,15424942,220,1569.8,505.0,4806,right
45,1,continuous,17,94,trial,15423672.0,15425938.0,2266.0,17,R,15425016,15425262,248,573.0,656.7,5035,left
45,1,continuous,17,94,trial,15423672.0,15425938.0,2266.0,17,R,15425282,15425438,158,661.4,705.9,5027,left
45,1,continuous,17,94,trial,15423672.0,15425938.0,2266.0,17,R,15425500,15425854,356,1337.6,1003.6,5155,NA
45,1,continuous,17,94,trial,15423672.0,15425938.0,2266.0,17,R,15425868,15426246,380,1401.8,995.5,5175,NA
45,1,continuous,18,92,trial,15426822.0,15429039.0,2217.0,18,R,15426354,15426848,496,874.0,505.1,5382,NA
45,1,continuous,18,92,trial,15426822.0,15429039.0,2217.0,18,R,15426866,15426970,106,965.7,548.1,5484,NA
45,1,continuous,18,92,trial,15426822.0,15429039.0,2217.0,18,R,15427014,15427184,172,574.8,569.2,5508,left
45,1,continuous,18,92,trial,15426822.0,15429039.0,2217.0,18,R,15427222,15427380,160,366.5,471.5,5068,left
45,1,continuous,18,92,trial,15426822.0,15429039.0,2217.0,18,R,15427508,15427676,170,1525.2,557.1,4715,right
45,1,continuous,18,92,trial,15426822.0,15429039.0,2217.0,18,R,15427692,15427964,274,1563.6,515.9,4789,right
45,1,continuous,18,92,trial,15426822.0,15429039.0,2217.0,18,R,15428044,15428152,110,429.7,517.2,5070,left
45,1,continuous,18,92,trial,15426822.0,15429039.0,2217.0,18,R,15428172,15428332,162,351.4,454.1,5040,left
45,1,continuous,18,92,trial,15426822.0,15429039.0,2217.0,18,R,15428402,15428566,166,1253.2,968.8,5034,NA
45,1,continuous,18,92,trial,15426822.0,15429039.0,2217.0,18,R,15428596,15428840,246,1439.2,1021.3,5025,NA
45,1,continuous,18,92,postResponse,15426822.0,15429039.0,2217.0,18,R,15428862,15429374,514,1367.8,969.7,5325,NA
45,1,continuous,19,7,fixationCross,15430139.0,15431689.0,1550.0,19,R,15429558,15429834,278,710.4,557.8,5651,left
45,1,continuous,19,7,fixationCross,15430139.0,15431689.0,1550.0,19,R,15429872,15430084,214,990.7,544.5,5794,NA
45,1,continuous,19,7,trial,15430139.0,15431689.0,1550.0,19,R,15430206,15430286,82,969.0,542.8,5800,NA
45,1,continuous,19,7,trial,15430139.0,15431689.0,1550.0,19,R,15430332,15430552,222,553.3,595.8,5823,left
45,1,continuous,19,7,trial,15430139.0,15431689.0,1550.0,19,R,15430564,15430744,182,544.0,562.5,5585,left
45,1,continuous,19,7,trial,15430139.0,15431689.0,1550.0,19,R,15430812,15431164,354,1417.6,628.2,5170,right
45,1,continuous,19,7,trial,15430139.0,15431689.0,1550.0,19,R,15431242,15431400,160,464.0,1033.9,5484,NA
45,1,continuous,19,7,trial,15430139.0,15431689.0,1550.0,19,R,15431412,15431624,214,507.1,1020.3,5534,NA
45,1,continuous,19,7,postResponse,15430139.0,15431689.0,1550.0,19,R,15431684,15432022,340,517.7,532.1,5273,left
45,1,continuous,20,93,fixationCross,15432572.0,15436506.0,3934.0,20,R,15432096,15432208,114,527.8,524.3,5320,left
45,1,continuous,20,93,fixationCross,15432572.0,15436506.0,3934.0,20,R,15432264,15432504,242,1018.5,540.2,5384,NA
45,1,continuous,20,93,trial,15432572.0,15436506.0,3934.0,20,R,15432520,15432722,204,963.4,547.4,5453,NA
45,1,continuous,20,93,trial,15432572.0,15436506.0,3934.0,20,R,15432774,15432948,176,463.1,528.7,5539,left
45,1,continuous,20,93,trial,15432572.0,15436506.0,3934.0,20,R,15432974,15433090,118,409.1,419.3,5208,left
45,1,continuous,20,93,trial,15432572.0,15436506.0,3934.0,20,R,15433156,15433280,126,1107.8,972.6,5148,likertHorizontal
45,1,continuous,20,93,trial,15432572.0,15436506.0,3934.0,20,R,15433342,15433570,230,1457.6,596.5,4974,right
45,1,continuous,20,93,trial,15432572.0,15436506.0,3934.0,20,R,15433588,15433780,194,1361.1,605.4,5120,right
45,1,continuous,20,93,trial,15432572.0,15436506.0,3934.0,20,R,15433858,15433992,136,427.6,519.2,5360,left
45,1,continuous,20,93,trial,15432572.0,15436506.0,3934.0,20,R,15434016,15434214,200,435.9,400.2,5295,left
45,1,continuous,20,93,trial,15432572.0,15436506.0,3934.0,20,R,15434242,15434544,304,399.6,518.8,5051,left
45,1,continuous,20,93,trial,15432572.0,15436506.0,3934.0,20,R,15434570,15434724,156,471.4,606.9,5195,left
45,1,continuous,20,93,trial,15432572.0,15436506.0,3934.0,20,R,15434744,15434942,200,582.8,643.9,5436,left
45,1,continuous,20,93,trial,15432572.0,15436506.0,3934.0,20,R,15434980,15435182,204,548.1,474.2,5630,left
45,1,continuous,20,93,trial,15432572.0,15436506.0,3934.0,20,R,15435220,15435492,274,515.5,648.5,5751,left
45,1,continuous,20,93,trial,15432572.0,15436506.0,3934.0,20,R,15435556,15435670,116,1191.8,944.3,5802,NA
45,1,continuous,20,93,trial,15432572.0,15436506.0,3934.0,20,R,15435696,15435840,146,1316.7,1000.7,5753,NA
45,1,continuous,20,93,trial,15432572.0,15436506.0,3934.0,20,R,15435918,15436176,260,340.2,600.8,5415,left
45,1,continuous,20,93,trial,15432572.0,15436506.0,3934.0,20,R,15436258,15436458,202,1476.6,603.3,5151,right
45,1,continuous,20,93,postResponse,15432572.0,15436506.0,3934.0,20,R,15436480,15436840,362,1533.6,658.2,5214,right
45,1,continuous,21,97,fixationCross,15437689.0,15439688.0,1999.0,21,R,15436942,15437366,426,711.5,498.1,5481,left
45,1,continuous,21,97,trial,15437689.0,15439688.0,1999.0,21,R,15437400,15437826,428,982.8,548.0,5649,NA
45,1,continuous,21,97,trial,15437689.0,15439688.0,1999.0,21,R,15437874,15438150,278,539.9,560.0,5577,left
45,1,continuous,21,97,trial,15437689.0,15439688.0,1999.0,21,R,15438166,15438308,144,509.0,603.8,5162,left
45,1,continuous,21,97,trial,15437689.0,15439688.0,1999.0,21,R,15438378,15438592,216,1377.5,567.2,4943,right
45,1,continuous,21,97,trial,15437689.0,15439688.0,1999.0,21,R,15438612,15438938,328,1366.7,509.5,4915,right
45,1,continuous,21,97,trial,15437689.0,15439688.0,1999.0,21,R,15438950,15439092,144,1365.9,550.0,4993,right
45,1,continuous,21,97,trial,15437689.0,15439688.0,1999.0,21,R,15439142,15439398,258,1387.8,1021.4,5215,NA
45,1,continuous,21,97,trial,15437689.0,15439688.0,1999.0,21,R,15439410,15439552,144,1409.5,983.4,5312,NA
45,1,continuous,21,97,postResponse,15437689.0,15439688.0,1999.0,21,R,15439598,15440024,428,1424.0,647.1,5385,right
45,1,continuous,22,3,fixationCross,15440856.0,15442556.0,1700.0,22,R,15440098,15440552,456,807.6,455.3,5651,NA
45,1,continuous,22,3,trial,15440856.0,15442556.0,1700.0,22,R,15440580,15440964,386,980.1,534.5,5828,NA
45,1,continuous,22,3,trial,15440856.0,15442556.0,1700.0,22,R,15441018,15441158,142,505.0,523.7,5884,left
45,1,continuous,22,3,trial,15440856.0,15442556.0,1700.0,22,R,15441178,15441300,124,521.2,617.0,5540,left
45,1,continuous,22,3,trial,15440856.0,15442556.0,1700.0,22,R,15441312,15441452,142,496.3,657.0,5243,left
45,1,continuous,22,3,trial,15440856.0,15442556.0,1700.0,22,R,15441520,15441762,244,1341.4,608.5,4970,right
45,1,continuous,22,3,trial,15440856.0,15442556.0,1700.0,22,R,15441790,15441960,172,1523.3,614.5,4889,right
45,1,continuous,22,3,trial,15440856.0,15442556.0,1700.0,22,R,15442040,15442138,100,488.8,1066.0,5241,NA
45,1,continuous,22,3,trial,15440856.0,15442556.0,1700.0,22,R,15442158,15442842,686,438.1,1019.5,5180,NA
45,1,continuous,23,99,fixationCross,15443689.0,15445972.0,2283.0,23,R,15442992,15443188,198,765.9,489.1,5234,NA
45,1,continuous,23,99,fixationCross,15443689.0,15445972.0,2283.0,23,R,15443214,15443388,176,683.8,574.1,5372,left
45,1,continuous,23,99,fixationCross,15443689.0,15445972.0,2283.0,23,R,15443430,15443568,140,1008.4,567.6,5530,NA
45,1,continuous,23,99,trial,15443689.0,15445972.0,2283.0,23,R,15443580,15443822,244,989.2,539.3,5653,NA
45,1,continuous,23,99,trial,15443689.0,15445972.0,2283.0,23,R,15443868,15443992,126,575.5,466.3,5740,left
45,1,continuous,23,99,trial,15443689.0,15445972.0,2283.0,23,R,15444014,15444226,214,633.2,394.3,5378,left
45,1,continuous,23,99,trial,15443689.0,15445972.0,2283.0,23,R,15444238,15444422,186,670.5,380.5,5161,left
45,1,continuous,23,99,trial,15443689.0,15445972.0,2283.0,23,R,15444490,15444668,180,1473.3,621.6,5288,right
45,1,continuous,23,99,trial,15443689.0,15445972.0,2283.0,23,R,15444690,15445676,988,1390.0,597.1,5300,right
45,1,continuous,23,99,postResponse,15443689.0,15445972.0,2283.0,23,R,15445738,15446308,572,636.1,419.5,5303,left
45,1,continuous,24,1,fixationCross,15446889.0,15449855.0,2966.0,24,R,15446408,15446446,40,640.8,409.5,5385,left
45,1,continuous,24,1,fixationCross,15446889.0,15449855.0,2966.0,24,R,15446484,15446752,270,906.2,487.9,5545,NA
45,1,continuous,24,1,trial,15446889.0,15449855.0,2966.0,24,R,15446770,15447034,266,978.1,536.5,5677,NA
45,1,continuous,24,1,trial,15446889.0,15449855.0,2966.0,24,R,15447078,15447282,206,566.9,515.7,5708,left
45,1,continuous,24,1,trial,15446889.0,15449855.0,2966.0,24,R,15447348,15447502,156,1435.8,588.2,5079,right
45,1,continuous,24,1,trial,15446889.0,15449855.0,2966.0,24,R,15447528,15447684,158,1377.4,467.2,4948,right
45,1,continuous,24,1,trial,15446889.0,15449855.0,2966.0,24,R,15447694,15447812,120,1388.5,442.3,4743,right
45,1,continuous,24,1,trial,15446889.0,15449855.0,2966.0,24,R,15447836,15448028,194,1471.6,539.4,4661,right
45,1,continuous,24,1,trial,15446889.0,15449855.0,2966.0,24,R,15448048,15448154,108,1403.6,494.2,4752,right
45,1,continuous,24,1,trial,15446889.0,15449855.0,2966.0,24,R,15448272,15448626,356,473.4,541.3,5023,left
45,1,continuous,24,1,trial,15446889.0,15449855.0,2966.0,24,R,15448642,15448934,294,502.3,578.2,4947,left
45,1,continuous,24,1,trial,15446889.0,15449855.0,2966.0,24,R,15448964,15449152,190,670.7,557.2,4904,left
45,1,continuous,24,1,trial,15446889.0,15449855.0,2966.0,24,R,15449162,15449422,262,646.7,545.0,5051,left
45,1,continuous,24,1,trial,15446889.0,15449855.0,2966.0,24,R,15449456,15449566,112,441.8,615.7,5228,left
45,1,continuous,24,1,trial,15446889.0,15449855.0,2966.0,24,R,15449608,15449840,234,431.2,988.0,5455,NA
45,1,continuous,24,1,trial,15446889.0,15449855.0,2966.0,24,R,15449896,15450120,226,470.8,510.0,5348,left
45,1,continuous,25,1,fixationCross,15451006.0,15453506.0,2500.0,25,R,15450292,15450570,280,841.9,471.5,5462,NA
45,1,continuous,25,1,fixationCross,15451006.0,15453506.0,2500.0,25,R,15450596,15450702,108,749.1,524.1,5697,NA
45,1,continuous,25,1,trial,15451006.0,15453506.0,2500.0,25,R,15450736,15451066,332,997.6,535.2,5714,NA
45,1,continuous,25,1,trial,15451006.0,15453506.0,2500.0,25,R,15451196,15451314,120,574.9,539.0,5698,left
45,1,continuous,25,1,trial,15451006.0,15453506.0,2500.0,25,R,15451354,15451534,182,377.5,488.0,5334,left
45,1,continuous,25,1,trial,15451006.0,15453506.0,2500.0,25,R,15451608,15451820,214,1387.6,576.1,4987,right
45,1,continuous,25,1,trial,15451006.0,15453506.0,2500.0,25,R,15451846,15452202,358,1544.0,598.5,4865,right
45,1,continuous,25,1,trial,15451006.0,15453506.0,2500.0,25,R,15452240,15452448,210,1285.5,504.3,4948,right
45,1,continuous,25,1,trial,15451006.0,15453506.0,2500.0,25,R,15452520,15452680,162,523.9,999.7,5287,NA
45,1,continuous,25,1,trial,15451006.0,15453506.0,2500.0,25,R,15452730,15452866,138,1009.7,975.3,5383,likertHorizontal
45,1,continuous,25,1,trial,15451006.0,15453506.0,2500.0,25,R,15452918,15453732,816,454.9,991.3,5450,NA
45,1,continuous,25,1,postResponse,15451006.0,15453506.0,2500.0,25,R,15453790,15453840,52,1000.8,1163.7,5380,likertHorizontal
45,1,continuous,26,1,fixationCross,15479756.0,15484440.0,4684.0,26,R,15479269,15479411,144,443.7,98.1,4802,NA
45,1,continuous,26,1,fixationCross,15479756.0,15484440.0,4684.0,26,R,15479465,15479623,160,891.9,581.2,5280,NA
45,1,continuous,26,1,trial,15479756.0,15484440.0,4684.0,26,R,15479645,15479905,262,983.0,535.2,5481,NA
45,1,continuous,26,1,trial,15479756.0,15484440.0,4684.0,26,R,15479951,15480095,146,561.3,484.0,5583,left
45,1,continuous,26,1,trial,15479756.0,15484440.0,4684.0,26,R,15480109,15480179,72,615.8,515.3,5328,left
45,1,continuous,26,1,trial,15479756.0,15484440.0,4684.0,26,R,15480229,15480367,140,492.0,1031.8,5183,NA
45,1,continuous,26,1,trial,15479756.0,15484440.0,4684.0,26,R,15480457,15480711,256,1446.3,644.6,5106,right
45,1,continuous,26,1,trial,15479756.0,15484440.0,4684.0,26,R,15480729,15480935,208,1518.7,683.5,5024,right
45,1,continuous,26,1,trial,15479756.0,15484440.0,4684.0,26,R,15480967,15481091,126,1479.8,536.1,5043,right
45,1,continuous,26,1,trial,15479756.0,15484440.0,4684.0,26,R,15481161,15481303,144,493.9,548.6,5274,left
45,1,continuous,26,1,trial,15479756.0,15484440.0,4684.0,26,R,15481325,15481643,320,438.4,511.2,5343,left
45,1,continuous,26,1,trial,15479756.0,15484440.0,4684.0,26,R,15481669,15482095,428,581.7,530.7,5288,left
45,1,continuous,26,1,trial,15479756.0,15484440.0,4684.0,26,R,15482121,15482517,398,457.5,501.1,5319,left
45,1,continuous,26,1,trial,15479756.0,15484440.0,4684.0,26,R,15482593,15482751,160,1534.2,575.2,5185,right
45,1,continuous,26,1,trial,15479756.0,15484440.0,4684.0,26,R,15482769,15483089,322,1496.2,650.5,5155,right
45,1,continuous,26,1,trial,15479756.0,15484440.0,4684.0,26,R,15483147,15483325,180,1284.7,996.9,5392,NA
45,1,continuous,26,1,trial,15479756.0,15484440.0,4684.0,26,R,15483351,15483481,132,1460.6,927.4,5497,NA
45,1,continuous,26,1,trial,15479756.0,15484440.0,4684.0,26,R,15483523,15483835,314,1516.5,646.0,5399,right
45,1,continuous,26,1,trial,15479756.0,15484440.0,4684.0,26,R,15483923,15484281,360,427.6,606.2,5573,left
45,1,continuous,26,1,trial,15479756.0,15484440.0,4684.0,26,R,15484325,15484453,130,479.2,1029.0,5630,NA
45,1,continuous,26,1,trial,15479756.0,15484440.0,4684.0,26,R,15484465,15484689,226,445.5,997.3,5633,NA
45,1,continuous,27,76,fixationCross,15485506.0,15487273.0,1767.0,27,R,15484847,15485211,366,844.3,461.7,5342,NA
45,1,continuous,27,76,trial,15485506.0,15487273.0,1767.0,27,R,15485233,15485647,416,974.2,527.0,5489,NA
45,1,continuous,27,76,trial,15485506.0,15487273.0,1767.0,27,R,15485691,15485879,190,616.4,487.8,5433,left
45,1,continuous,27,76,trial,15485506.0,15487273.0,1767.0,27,R,15485891,15486125,236,661.3,486.4,5008,left
45,1,continuous,27,76,trial,15485506.0,15487273.0,1767.0,27,R,15486197,15486765,570,1373.8,551.5,4857,right
45,1,continuous,27,76,trial,15485506.0,15487273.0,1767.0,27,R,15486829,15487081,254,1245.3,945.7,5276,NA
45,1,continuous,27,76,trial,15485506.0,15487273.0,1767.0,27,R,15487095,15487489,396,1211.9,964.2,5370,NA
45,1,continuous,28,15,fixationCross,15488406.0,15490556.0,2150.0,28,R,15487707,15487769,64,989.5,522.6,5161,NA
45,1,continuous,28,15,fixationCross,15488406.0,15490556.0,2150.0,28,R,15487811,15488099,290,724.8,473.6,5307,left
45,1,continuous,28,15,trial,15488406.0,15490556.0,2150.0,28,R,15488135,15488551,418,964.9,543.5,5476,NA
45,1,continuous,28,15,trial,15488406.0,15490556.0,2150.0,28,R,15488597,15488857,262,559.0,500.5,5411,left
45,1,continuous,28,15,trial,15488406.0,15490556.0,2150.0,28,R,15488877,15488947,72,605.4,534.6,5038,left
45,1,continuous,28,15,trial,15488406.0,15490556.0,2150.0,28,R,15489015,15489183,170,1450.9,550.7,4661,right
45,1,continuous,28,15,trial,15488406.0,15490556.0,2150.0,28,R,15489203,15489595,394,1466.7,489.6,4434,right
45,1,continuous,28,15,trial,15488406.0,15490556.0,2150.0,28,R,15489671,15489935,266,502.1,556.4,4830,left
45,1,continuous,28,15,trial,15488406.0,15490556.0,2150.0,28,R,15489981,15490111,132,530.8,919.2,4859,NA
45,1,continuous,28,15,trial,15488406.0,15490556.0,2150.0,28,R,15490155,15490383,230,495.2,583.6,4680,left
45,1,continuous,28,15,postResponse,15488406.0,15490556.0,2150.0,28,R,15490399,15490893,496,554.4,592.9,4591,left
45,1,continuous,29,88,fixationCross,15491640.0,15493556.0,1916.0,29,R,15490993,15491095,104,663.1,561.8,4639,left
45,1,continuous,29,88,fixationCross,15491640.0,15493556.0,1916.0,29,R,15491121,15491333,214,752.9,475.8,4854,NA
45,1,continuous,29,88,trial,15491640.0,15493556.0,1916.0,29,R,15491371,15491791,422,983.8,549.7,5290,NA
45,1,continuous,29,88,trial,15491640.0,15493556.0,1916.0,29,R,15491839,15492069,232,540.2,523.2,5298,left
45,1,continuous,29,88,trial,15491640.0,15493556.0,1916.0,29,R,15492141,15492369,230,1442.6,525.4,4725,right
45,1,continuous,29,88,trial,15491640.0,15493556.0,1916.0,29,R,15492383,15492513,132,1402.9,551.1,4653,right
45,1,continuous,29,88,trial,15491640.0,15493556.0,1916.0,29,R,15492535,15492801,268,1398.1,630.0,4764,right
45,1,continuous,29,88,trial,15491640.0,15493556.0,1916.0,29,R,15492835,15493057,224,1306.4,476.2,4953,right
45,1,continuous,29,88,trial,15491640.0,15493556.0,1916.0,29,R,15493117,15493267,152,1320.5,1025.2,5075,NA
45,1,continuous,29,88,trial,15491640.0,15493556.0,1916.0,29,R,15493287,15493415,130,1365.0,961.2,5130,NA
45,1,continuous,29,88,trial,15491640.0,15493556.0,1916.0,29,R,15493461,15493843,384,1409.4,638.0,5080,right
45,1,continuous,30,19,fixationCross,15494723.0,15497156.0,2433.0,30,R,15493991,15494407,418,766.5,516.2,5271,NA
45,1,continuous,30,19,trial,15494723.0,15497156.0,2433.0,30,R,15494435,15494849,416,977.4,528.3,5411,NA
45,1,continuous,30,19,trial,15494723.0,15497156.0,2433.0,30,R,15494897,15495163,268,509.8,505.4,5409,left
45,1,continuous,30,19,trial,15494723.0,15497156.0,2433.0,30,R,15495183,15495319,138,457.8,491.5,4897,left
45,1,continuous,30,19,trial,15494723.0,15497156.0,2433.0,30,R,15495331,15495457,128,426.5,512.9,4740,left
45,1,continuous,30,19,trial,15494723.0,15497156.0,2433.0,30,R,15495529,15495713,186,1372.5,537.3,4631,right
45,1,continuous,30,19,trial,15494723.0,15497156.0,2433.0,30,R,15495737,15495905,170,1421.9,649.4,4737,right
45,1,continuous,30,19,trial,15494723.0,15497156.0,2433.0,30,R,15495915,15496239,326,1411.3,675.2,5070,right
45,1,continuous,30,19,trial,15494723.0,15497156.0,2433.0,30,R,15496309,15496469,162,510.2,541.4,5364,left
45,1,continuous,30,19,trial,15494723.0,15497156.0,2433.0,30,R,15496487,15496643,158,496.8,506.9,5298,left
45,1,continuous,30,19,trial,15494723.0,15497156.0,2433.0,30,R,15496697,15496835,140,524.4,1042.1,5210,NA
45,1,continuous,30,19,trial,15494723.0,15497156.0,2433.0,30,R,15496859,15497013,156,619.4,977.5,5217,NA
45,1,continuous,30,19,trial,15494723.0,15497156.0,2433.0,30,R,15497065,15497333,270,436.8,529.1,5171,left
45,1,continuous,31,44,fixationCross,15498290.0,15499890.0,1600.0,31,R,15497591,15497637,48,714.7,484.2,5123,left
45,1,continuous,31,44,fixationCross,15498290.0,15499890.0,1600.0,31,R,15497659,15497985,328,833.4,491.2,5230,NA
45,1,continuous,31,44,trial,15498290.0,15499890.0,1600.0,31,R,15498009,15498441,434,967.1,544.9,5379,NA
45,1,continuous,31,44,trial,15498290.0,15499890.0,1600.0,31,R,15498485,15498765,282,556.0,543.3,5216,left
45,1,continuous,31,44,trial,15498290.0,15499890.0,1600.0,31,R,15498839,15499131,294,1442.6,617.3,4855,right
45,1,continuous,31,44,trial,15498290.0,15499890.0,1600.0,31,R,15499143,15499427,286,1396.8,607.7,4810,right
45,1,continuous,31,44,trial,15498290.0,15499890.0,1600.0,31,R,15499497,15499759,264,525.1,602.6,5125,left
45,1,continuous,31,44,trial,15498290.0,15499890.0,1600.0,31,R,15499779,15500055,278,510.2,683.3,5031,left
45,1,continuous,31,44,postResponse,15498290.0,15499890.0,1600.0,31,R,15500103,15500225,124,841.3,1033.1,5089,likertHorizontal
45,1,continuous,32,23,fixationCross,15501007.0,15504073.0,3066.0,32,R,15500329,15500411,84,998.0,1048.4,5285,likertHorizontal
45,1,continuous,32,23,fixationCross,15501007.0,15504073.0,3066.0,32,R,15500585,15500709,126,876.3,687.1,5681,NA
45,1,continuous,32,23,fixationCross,15501007.0,15504073.0,3066.0,32,R,15500743,15500867,126,971.9,560.2,5780,NA
45,1,continuous,32,23,trial,15501007.0,15504073.0,3066.0,32,R,15500879,15501137,260,993.5,531.4,5890,NA
45,1,continuous,32,23,trial,15501007.0,15504073.0,3066.0,32,R,15501183,15501373,192,504.0,510.3,5701,left
45,1,continuous,32,23,trial,15501007.0,15504073.0,3066.0,32,R,15501391,15501551,162,562.1,574.2,5304,left
45,1,continuous,32,23,trial,15501007.0,15504073.0,3066.0,32,R,15501569,15501765,198,513.6,643.9,5229,left
45,1,continuous,32,23,trial,15501007.0,15504073.0,3066.0,32,R,15501841,15502017,178,1491.4,508.8,5290,right
45,1,continuous,32,23,trial,15501007.0,15504073.0,3066.0,32,R,15502035,15502355,322,1476.6,572.6,5368,right
45,1,continuous,32,23,trial,15501007.0,15504073.0,3066.0,32,R,15502379,15502553,176,1453.1,491.0,5481,right
45,1,continuous,32,23,trial,15501007.0,15504073.0,3066.0,32,R,15502567,15502655,90,1500.0,479.7,5511,right
45,1,continuous,32,23,trial,15501007.0,15504073.0,3066.0,32,R,15502669,15503033,366,1550.9,485.4,5518,right
45,1,continuous,32,23,trial,15501007.0,15504073.0,3066.0,32,R,15503109,15503289,182,523.0,587.5,5786,left
45,1,continuous,32,23,trial,15501007.0,15504073.0,3066.0,32,R,15503309,15503607,300,497.1,647.0,5589,left
45,1,continuous,32,23,trial,15501007.0,15504073.0,3066.0,32,R,15503621,15503813,194,545.1,631.9,5453,left
45,1,continuous,32,23,trial,15501007.0,15504073.0,3066.0,32,R,15503839,15504037,200,567.2,553.5,5480,left
45,1,continuous,32,23,trial,15501007.0,15504073.0,3066.0,32,R,15504085,15504337,254,664.6,1005.3,5635,NA
45,1,continuous,33,14,fixationCross,15505023.0,15507840.0,2817.0,33,R,15504535,15504913,380,917.2,483.8,5461,NA
45,1,continuous,33,14,trial,15505023.0,15507840.0,2817.0,33,R,15504935,15505171,238,994.6,541.3,5594,NA
45,1,continuous,33,14,trial,15505023.0,15507840.0,2817.0,33,R,15505217,15505357,142,540.3,517.1,5530,left
45,1,continuous,33,14,trial,15505023.0,15507840.0,2817.0,33,R,15505383,15505755,374,560.9,423.6,5061,left
45,1,continuous,33,14,trial,15505023.0,15507840.0,2817.0,33,R,15505823,15506017,196,1413.4,605.0,4932,right
45,1,continuous,33,14,trial,15505023.0,15507840.0,2817.0,33,R,15506037,15506175,140,1443.0,547.9,4933,right
45,1,continuous,33,14,trial,15505023.0,15507840.0,2817.0,33,R,15506191,15506459,270,1476.1,608.1,4886,right
45,1,continuous,33,14,trial,15505023.0,15507840.0,2817.0,33,R,15506497,15506745,250,1360.8,432.0,5016,right
45,1,continuous,33,14,trial,15505023.0,15507840.0,2817.0,33,R,15506873,15507069,198,560.4,474.1,5256,left
45,1,continuous,33,14,trial,15505023.0,15507840.0,2817.0,33,R,15507083,15507243,162,552.5,519.9,5360,left
45,1,continuous,33,14,trial,15505023.0,15507840.0,2817.0,33,R,15507271,15507553,284,573.4,404.8,5195,left
45,1,continuous,33,14,trial,15505023.0,15507840.0,2817.0,33,R,15507605,15508155,552,606.0,984.9,5433,NA
45,1,continuous,34,12,fixationCross,15508923.0,15510774.0,1851.0,34,R,15508249,15508621,374,745.3,471.7,5300,NA
45,1,continuous,34,12,fixationCross,15508923.0,15510774.0,1851.0,34,R,15508661,15508777,118,1027.3,548.1,5479,NA
45,1,continuous,34,12,trial,15508923.0,15510774.0,1851.0,34,R,15508793,15509071,280,991.1,521.5,5565,NA
45,1,continuous,34,12,trial,15508923.0,15510774.0,1851.0,34,R,15509115,15509327,214,590.1,472.3,5521,left
45,1,continuous,34,12,trial,15508923.0,15510774.0,1851.0,34,R,15509345,15509425,82,565.2,535.7,5189,left
45,1,continuous,34,12,trial,15508923.0,15510774.0,1851.0,34,R,15509493,15509931,440,1423.6,585.2,4805,right
45,1,continuous,34,12,trial,15508923.0,15510774.0,1851.0,34,R,15510005,15510277,274,501.0,597.6,5018,left
45,1,continuous,34,12,trial,15508923.0,15510774.0,1851.0,34,R,15510325,15510471,148,615.8,995.5,5090,NA
45,1,continuous,34,12,trial,15508923.0,15510774.0,1851.0,34,R,15510485,15510973,490,548.7,978.4,5064,NA
45,1,continuous,34,12,postResponse,15508923.0,15510774.0,1851.0,34,R,15511031,15511121,92,738.7,519.0,5155,NA
45,1,continuous,35,1,fixationCross,15511690.0,15513957.0,2267.0,35,R,15511221,15511349,130,737.9,525.3,5197,NA
45,1,continuous,35,1,trial,15511690.0,15513957.0,2267.0,35,R,15511385,15511831,448,979.3,503.2,5399,NA
45,1,continuous,35,1,trial,15511690.0,15513957.0,2267.0,35,R,15511875,15512031,158,584.4,537.8,5579,left
45,1,continuous,35,1,trial,15511690.0,15513957.0,2267.0,35,R,15512041,15512195,156,568.6,566.6,5293,left
45,1,continuous,35,1,trial,15511690.0,15513957.0,2267.0,35,R,15512265,15512587,324,1451.7,612.4,4843,right
45,1,continuous,35,1,trial,15511690.0,15513957.0,2267.0,35,R,15512609,15512697,90,1412.9,548.0,4790,right
45,1,continuous,35,1,trial,15511690.0,15513957.0,2267.0,35,R,15512769,15512991,224,545.4,573.5,5057,left
45,1,continuous,35,1,trial,15511690.0,15513957.0,2267.0,35,R,15513041,15513185,146,547.6,1040.1,5146,NA
45,1,continuous,35,1,trial,15511690.0,15513957.0,2267.0,35,R,15513209,15513445,238,650.6,980.9,5125,NA
45,1,continuous,35,1,trial,15511690.0,15513957.0,2267.0,35,R,15513463,15513609,148,562.2,984.1,5072,NA
45,1,continuous,35,1,trial,15511690.0,15513957.0,2267.0,35,R,15513635,15513821,188,427.1,993.5,5214,NA
45,1,continuous,35,1,trial,15511690.0,15513957.0,2267.0,35,R,15513831,15514015,186,450.1,973.8,5467,NA
45,1,continuous,35,1,trial,15511690.0,15513957.0,2267.0,35,R,15514027,15514193,168,455.6,1023.1,5630,NA
45,1,continuous,36,1,fixationCross,15514890.0,15518240.0,3350.0,36,R,15514367,15514583,218,787.4,563.6,5506,NA
45,1,continuous,36,1,fixationCross,15514890.0,15518240.0,3350.0,36,R,15514617,15514819,204,1019.3,572.4,5502,NA
45,1,continuous,36,1,trial,15514890.0,15518240.0,3350.0,36,R,15514833,15515039,208,996.8,537.7,5562,NA
45,1,continuous,36,1,trial,15514890.0,15518240.0,3350.0,36,R,15515087,15515321,236,535.9,539.5,5545,left
45,1,continuous,36,1,trial,15514890.0,15518240.0,3350.0,36,R,15515341,15515593,254,431.1,563.8,5207,left
45,1,continuous,36,1,trial,15514890.0,15518240.0,3350.0,36,R,15515667,15515837,172,1425.6,628.9,4843,right
45,1,continuous,36,1,trial,15514890.0,15518240.0,3350.0,36,R,15515861,15516067,208,1478.1,537.7,4703,right
45,1,continuous,36,1,trial,15514890.0,15518240.0,3350.0,36,R,15516079,15516335,258,1472.7,510.4,4798,right
45,1,continuous,36,1,trial,15514890.0,15518240.0,3350.0,36,R,15516419,15516647,230,391.8,581.9,5226,left
45,1,continuous,36,1,trial,15514890.0,15518240.0,3350.0,36,R,15516663,15516903,242,331.4,566.9,5045,left
45,1,continuous,36,1,trial,15514890.0,15518240.0,3350.0,36,R,15516943,15517127,186,610.3,556.6,4838,left
45,1,continuous,36,1,trial,15514890.0,15518240.0,3350.0,36,R,15517153,15517347,196,494.9,534.5,4839,left
45,1,continuous,36,1,trial,15514890.0,15518240.0,3350.0,36,R,15517359,15517671,314,465.7,557.0,4939,left
45,1,continuous,36,1,trial,15514890.0,15518240.0,3350.0,36,R,15517721,15517873,154,439.8,1026.5,5128,NA
45,1,continuous,36,1,trial,15514890.0,15518240.0,3350.0,36,R,15517893,15518135,244,531.5,1004.0,5229,NA
45,1,continuous,36,1,trial,15514890.0,15518240.0,3350.0,36,R,15518155,15518449,296,430.3,1000.7,5370,NA
45,1,continuous,37,98,fixationCross,15519373.0,15521307.0,1934.0,37,R,15518675,15518811,138,981.5,622.8,5366,NA
45,1,continuous,37,98,fixationCross,15519373.0,15521307.0,1934.0,37,R,15518843,15519065,224,785.1,541.5,5446,NA
45,1,continuous,37,98,trial,15519373.0,15521307.0,1934.0,37,R,15519095,15519509,416,988.4,536.7,5453,NA
45,1,continuous,37,98,trial,15519373.0,15521307.0,1934.0,37,R,15519559,15519709,152,484.4,512.8,5358,left
45,1,continuous,37,98,trial,15519373.0,15521307.0,1934.0,37,R,15519733,15519959,228,400.9,453.7,4971,left
45,1,continuous,37,98,trial,15519373.0,15521307.0,1934.0,37,R,15519977,15520063,88,459.7,418.9,4750,left
45,1,continuous,37,98,trial,15519373.0,15521307.0,1934.0,37,R,15520141,15520525,386,1447.5,584.4,4751,right
45,1,continuous,37,98,trial,15519373.0,15521307.0,1934.0,37,R,15520547,15520849,304,1356.0,546.3,5038,right
45,1,continuous,37,98,trial,15519373.0,15521307.0,1934.0,37,R,15520919,15521061,144,444.9,500.3,5293,left
45,1,continuous,37,98,trial,15519373.0,15521307.0,1934.0,37,R,15521081,15521209,130,404.2,437.5,5342,left
45,1,continuous,37,98,trial,15519373.0,15521307.0,1934.0,37,R,15521289,15521595,308,1440.1,1007.9,5097,NA
45,1,continuous,38,97,fixationCross,15522473.0,15525440.0,2967.0,38,R,15521751,15522167,418,817.9,482.9,5169,NA
45,1,continuous,38,97,trial,15522473.0,15525440.0,2967.0,38,R,15522193,15522621,430,988.4,525.1,5199,NA
45,1,continuous,38,97,trial,15522473.0,15525440.0,2967.0,38,R,15522665,15522855,192,625.1,513.7,5343,left
45,1,continuous,38,97,trial,15522473.0,15525440.0,2967.0,38,R,15522921,15523345,426,1483.3,545.3,5128,right
45,1,continuous,38,97,trial,15522473.0,15525440.0,2967.0,38,R,15523369,15523689,322,1598.8,600.3,5091,right
45,1,continuous,38,97,trial,15522473.0,15525440.0,2967.0,38,R,15523707,15523869,164,1555.1,582.2,5165,right
45,1,continuous,38,97,trial,15522473.0,15525440.0,2967.0,38,R,15523895,15524125,232,1380.8,549.5,5264,right
45,1,continuous,38,97,trial,15522473.0,15525440.0,2967.0,38,R,15524191,15524393,204,566.5,579.3,5353,left
45,1,continuous,38,97,trial,15522473.0,15525440.0,2967.0,38,R,15524415,15524613,200,629.0,495.2,5275,left
45,1,continuous,38,97,trial,15522473.0,15525440.0,2967.0,38,R,15524625,15524821,198,641.6,462.5,5244,left
45,1,continuous,38,97,trial,15522473.0,15525440.0,2967.0,38,R,15524895,15525021,128,1468.2,983.4,5421,NA
45,1,continuous,38,97,trial,15522473.0,15525440.0,2967.0,38,R,15525037,15525201,166,1406.8,962.8,5511,NA
45,1,continuous,38,97,trial,15522473.0,15525440.0,2967.0,38,R,15525249,15525445,198,1531.7,616.8,5255,right
45,1,continuous,38,97,trial,15522473.0,15525440.0,2967.0,38,R,15525455,15525689,236,1555.9,641.8,5118,right
45,1,continuous,39,95,fixationCross,15526356.0,15528857.0,2501.0,39,R,15525875,15526289,416,893.7,466.6,5278,NA
45,1,continuous,39,95,trial,15526356.0,15528857.0,2501.0,39,R,15526311,15526499,190,987.4,544.2,5445,NA
45,1,continuous,39,95,trial,15526356.0,15528857.0,2501.0,39,R,15526545,15526699,156,595.4,573.3,5497,left
45,1,continuous,39,95,trial,15526356.0,15528857.0,2501.0,39,R,15526719,15527155,438,623.9,521.8,5021,left
45,1,continuous,39,95,trial,15526356.0,15528857.0,2501.0,39,R,15527173,15527313,142,590.4,599.2,4918,left
45,1,continuous,39,95,trial,15526356.0,15528857.0,2501.0,39,R,15527381,15527539,160,1393.3,578.7,5008,right
45,1,continuous,39,95,trial,15526356.0,15528857.0,2501.0,39,R,15527553,15527693,142,1337.3,603.5,5114,right
45,1,continuous,39,95,trial,15526356.0,15528857.0,2501.0,39,R,15527725,15528069,346,1569.4,605.5,5044,right
45,1,continuous,39,95,trial,15526356.0,15528857.0,2501.0,39,R,15528123,15528441,320,1350.2,990.7,5297,NA
45,1,continuous,39,95,trial,15526356.0,15528857.0,2501.0,39,R,15528455,15528735,282,1386.6,960.3,5306,NA
45,1,continuous,39,95,trial,15526356.0,15528857.0,2501.0,39,R,15528801,15529141,342,673.5,544.2,5365,left
45,1,continuous,40,7,fixationCross,15529790.0,15531407.0,1617.0,40,R,15529303,15529473,172,789.8,553.8,5350,NA
45,1,continuous,40,7,fixationCross,15529790.0,15531407.0,1617.0,40,R,15529497,15529651,156,887.7,538.8,5434,NA
45,1,continuous,40,7,trial,15529790.0,15531407.0,1617.0,40,R,15529673,15529823,152,991.5,530.1,5537,NA
45,1,continuous,40,7,trial,15529790.0,15531407.0,1617.0,40,R,15529833,15529953,122,969.4,533.8,5515,NA
45,1,continuous,40,7,trial,15529790.0,15531407.0,1617.0,40,R,15530001,15530205,206,483.8,535.9,5298,left
45,1,continuous,40,7,trial,15529790.0,15531407.0,1617.0,40,R,15530225,15530349,126,421.1,488.3,4964,left
45,1,continuous,40,7,trial,15529790.0,15531407.0,1617.0,40,R,15530427,15530801,376,1488.6,505.7,4697,right
45,1,continuous,40,7,trial,15529790.0,15531407.0,1617.0,40,R,15530881,15531041,162,465.3,973.3,5073,NA
45,1,continuous,40,7,trial,15529790.0,15531407.0,1617.0,40,R,15531061,15531213,154,574.8,965.1,5233,NA
45,1,continuous,40,7,trial,15529790.0,15531407.0,1617.0,40,R,15531259,15531657,400,461.9,638.3,5169,left
45,1,continuous,40,7,postResponse,15529790.0,15531407.0,1617.0,40,R,15531709,15531743,36,873.4,527.5,5231,NA
45,1,continuous,41,94,fixationCross,15532323.0,15534207.0,1884.0,41,R,15531843,15532229,388,867.4,531.2,5385,NA
45,1,continuous,41,94,trial,15532323.0,15534207.0,1884.0,41,R,15532253,15532485,234,1007.8,538.7,5650,NA
45,1,continuous,41,94,trial,15532323.0,15534207.0,1884.0,41,R,15532533,15532739,208,536.1,569.5,5571,left
45,1,continuous,41,94,trial,15532323.0,15534207.0,1884.0,41,R,15532809,15532951,144,1421.1,515.9,5054,right
45,1,continuous,41,94,trial,15532323.0,15534207.0,1884.0,41,R,15532983,15533171,190,1619.7,501.4,4847,right
45,1,continuous,41,94,trial,15532323.0,15534207.0,1884.0,41,R,15533189,15533369,182,1515.7,492.4,4929,right
45,1,continuous,41,94,trial,15532323.0,15534207.0,1884.0,41,R,15533383,15533523,142,1461.3,494.8,5034,right
45,1,continuous,41,94,trial,15532323.0,15534207.0,1884.0,41,R,15533595,15533847,254,502.9,584.6,5225,left
45,1,continuous,41,94,trial,15532323.0,15534207.0,1884.0,41,R,15533915,15534005,92,1327.0,922.4,5126,NA
45,1,continuous,41,94,trial,15532323.0,15534207.0,1884.0,41,R,15534029,15534161,134,1427.8,967.6,5004,NA
45,1,continuous,41,94,postResponse,15532323.0,15534207.0,1884.0,41,R,15534233,15534553,322,511.8,589.6,5115,left
45,1,continuous,42,6,fixationCross,15535340.0,15537557.0,2217.0,42,R,15534629,15535029,402,824.4,508.4,5165,NA
45,1,continuous,42,6,trial,15535340.0,15537557.0,2217.0,42,R,15535055,15535405,352,982.3,540.1,5325,NA
45,1,continuous,42,6,trial,15535340.0,15537557.0,2217.0,42,R,15535521,15535613,94,535.8,567.7,5494,left
45,1,continuous,42,6,trial,15535340.0,15537557.0,2217.0,42,R,15535647,15536049,404,424.8,434.3,5048,left
45,1,continuous,42,6,trial,15535340.0,15537557.0,2217.0,42,R,15536125,15536363,240,1426.0,551.9,4947,right
45,1,continuous,42,6,trial,15535340.0,15537557.0,2217.0,42,R,15536381,15536587,208,1382.1,596.6,5067,right
45,1,continuous,42,6,trial,15535340.0,15537557.0,2217.0,42,R,15536599,15536707,110,1342.3,602.9,5193,right
45,1,continuous,42,6,trial,15535340.0,15537557.0,2217.0,42,R,15536775,15536893,120,469.2,462.0,5349,left
45,1,continuous,42,6,trial,15535340.0,15537557.0,2217.0,42,R,15536911,15537085,176,430.9,427.8,5352,left
45,1,continuous,42,6,trial,15535340.0,15537557.0,2217.0,42,R,15537141,15537303,164,526.9,994.6,5560,NA
45,1,continuous,42,6,trial,15535340.0,15537557.0,2217.0,42,R,15537317,15537539,224,468.7,983.8,5561,NA
45,1,continuous,42,6,trial,15535340.0,15537557.0,2217.0,42,R,15537585,15537853,270,402.4,627.8,5372,left
45,1,continuous,43,28,fixationCross,15538607.0,15540690.0,2083.0,43,R,15537967,15538311,346,836.3,491.6,5313,NA
45,1,continuous,43,28,trial,15538607.0,15540690.0,2083.0,43,R,15538335,15538745,412,993.7,519.8,5602,NA
45,1,continuous,43,28,trial,15538607.0,15540690.0,2083.0,43,R,15538789,15539009,222,600.9,502.1,5505,left
45,1,continuous,43,28,trial,15538607.0,15540690.0,2083.0,43,R,15539081,15539317,238,1406.4,570.8,4976,right
45,1,continuous,43,28,trial,15538607.0,15540690.0,2083.0,43,R,15539333,15539477,146,1458.9,539.8,4909,right
45,1,continuous,43,28,trial,15538607.0,15540690.0,2083.0,43,R,15539543,15539711,170,561.3,506.0,5032,left
45,1,continuous,43,28,trial,15538607.0,15540690.0,2083.0,43,R,15539733,15539939,208,513.8,591.4,4991,left
45,1,continuous,43,28,trial,15538607.0,15540690.0,2083.0,43,R,15539989,15540243,256,673.9,961.9,5161,NA
45,1,continuous,43,28,trial,15538607.0,15540690.0,2083.0,43,R,15540263,15540635,374,736.5,940.1,5265,NA
45,1,continuous,43,28,trial,15538607.0,15540690.0,2083.0,43,R,15540683,15540895,214,598.0,513.7,5342,left
45,1,continuous,44,92,fixationCross,15541607.0,15544507.0,2900.0,44,R,15541113,15541505,394,1009.6,525.8,5363,NA
45,1,continuous,44,92,trial,15541607.0,15544507.0,2900.0,44,R,15541515,15541757,244,987.8,528.4,5474,NA
45,1,continuous,44,92,trial,15541607.0,15544507.0,2900.0,44,R,15541803,15541937,136,496.5,570.4,5336,left
45,1,continuous,44,92,trial,15541607.0,15544507.0,2900.0,44,R,15541953,15542163,212,544.7,564.5,4980,left
45,1,continuous,44,92,trial,15541607.0,15544507.0,2900.0,44,R,15542233,15542361,130,1412.7,543.3,4645,right
45,1,continuous,44,92,trial,15541607.0,15544507.0,2900.0,44,R,15542381,15542659,280,1507.4,527.6,4613,right
45,1,continuous,44,92,trial,15541607.0,15544507.0,2900.0,44,R,15542683,15542857,176,1626.9,608.5,4774,right
45,1,continuous,44,92,trial,15541607.0,15544507.0,2900.0,44,R,15542869,15543381,514,1604.3,642.0,4988,right
45,1,continuous,44,92,trial,15541607.0,15544507.0,2900.0,44,R,15543483,15543635,154,546.5,561.1,5416,left
45,1,continuous,44,92,trial,15541607.0,15544507.0,2900.0,44,R,15543645,15544067,424,537.6,582.3,5245,left
45,1,continuous,44,92,trial,15541607.0,15544507.0,2900.0,44,R,15544143,15544371,230,1394.0,979.3,5230,NA
45,1,continuous,44,92,postResponse,15541607.0,15544507.0,2900.0,44,R,15544385,15544843,460,1414.4,942.7,5241,NA
45,1,continuous,45,34,fixationCross,15545624.0,15548724.0,3100.0,45,R,15544955,15545301,348,738.6,514.1,5468,NA
45,1,continuous,45,34,trial,15545624.0,15548724.0,3100.0,45,R,15545335,15545749,416,999.7,536.7,5442,NA
45,1,continuous,45,34,trial,15545624.0,15548724.0,3100.0,45,R,15545871,15546027,158,565.0,557.0,5439,left
45,1,continuous,45,34,trial,15545624.0,15548724.0,3100.0,45,R,15546091,15546299,210,1379.1,550.4,4884,right
45,1,continuous,45,34,trial,15545624.0,15548724.0,3100.0,45,R,15546323,15546583,262,1464.8,474.1,4676,right
45,1,continuous,45,34,trial,15545624.0,15548724.0,3100.0,45,R,15546653,15546845,194,507.0,498.2,4935,left
45,1,continuous,45,34,trial,15545624.0,15548724.0,3100.0,45,R,15546865,15547069,206,494.3,539.7,5051,left
45,1,continuous,45,34,trial,15545624.0,15548724.0,3100.0,45,R,15547087,15547309,224,542.4,596.6,5180,left
45,1,continuous,45,34,trial,15545624.0,15548724.0,3100.0,45,R,15547347,15547513,168,543.1,407.0,5255,left
45,1,continuous,45,34,trial,15545624.0,15548724.0,3100.0,45,R,15547525,15547711,188,495.9,402.8,5314,left
45,1,continuous,45,34,trial,15545624.0,15548724.0,3100.0,45,R,15547781,15548013,234,1365.5,553.9,5365,right
45,1,continuous,45,34,trial,15545624.0,15548724.0,3100.0,45,R,15548037,15548261,226,1461.9,494.2,5173,right
45,1,continuous,45,34,trial,15545624.0,15548724.0,3100.0,45,R,15548293,15548341,50,1264.2,607.8,5159,right
45,1,continuous,45,34,trial,15545624.0,15548724.0,3100.0,45,R,15548389,15548503,116,966.3,898.3,5286,likertHorizontal
45,1,continuous,45,34,trial,15545624.0,15548724.0,3100.0,45,R,15548527,15548657,132,849.8,944.9,5409,likertHorizontal
45,1,continuous,45,34,trial,15545624.0,15548724.0,3100.0,45,R,15548671,15548707,38,807.5,963.3,5489,likertHorizontal
45,1,continuous,45,34,trial,15545624.0,15548724.0,3100.0,45,R,15548765,15548957,194,1408.4,559.8,5401,right
45,1,continuous,46,14,fixationCross,15549840.0,15551224.0,1384.0,46,R,15549161,15549549,390,829.6,481.5,5268,NA
45,1,continuous,46,14,fixationCross,15549840.0,15551224.0,1384.0,46,R,15549575,15549699,126,962.9,549.9,5225,NA
45,1,continuous,46,14,trial,15549840.0,15551224.0,1384.0,46,R,15549709,15549981,274,975.6,539.3,5225,NA
45,1,continuous,46,14,trial,15549840.0,15551224.0,1384.0,46,R,15550027,15550239,214,593.2,533.7,5096,left
45,1,continuous,46,14,trial,15549840.0,15551224.0,1384.0,46,R,15550307,15550439,134,1428.4,497.7,4692,right
45,1,continuous,46,14,trial,15549840.0,15551224.0,1384.0,46,R,15550453,15550715,264,1402.2,455.1,4586,right
45,1,continuous,46,14,trial,15549840.0,15551224.0,1384.0,46,R,15550791,15550921,132,559.4,1033.3,4894,NA
45,1,continuous,46,14,trial,15549840.0,15551224.0,1384.0,46,R,15550939,15551175,238,497.0,979.1,5133,NA
45,1,continuous,46,14,postResponse,15549840.0,15551224.0,1384.0,46,R,15551193,15551559,368,591.1,967.7,5111,NA
45,1,continuous,47,3,fixationCross,15552191.0,15553724.0,1533.0,47,R,15551659,15551855,198,681.6,458.3,5244,left
45,1,continuous,47,3,fixationCross,15552191.0,15553724.0,1533.0,47,R,15551891,15552087,198,898.4,494.4,5388,NA
45,1,continuous,47,3,trial,15552191.0,15553724.0,1533.0,47,R,15552111,15552345,236,1004.4,527.3,5408,NA
45,1,continuous,47,3,trial,15552191.0,15553724.0,1533.0,47,R,15552393,15552649,258,552.9,550.6,5336,left
45,1,continuous,47,3,trial,15552191.0,15553724.0,1533.0,47,R,15552673,15552783,112,517.9,485.3,4918,left
45,1,continuous,47,3,trial,15552191.0,15553724.0,1533.0,47,R,15552847,15553061,216,1325.4,566.3,4731,right
45,1,continuous,47,3,trial,15552191.0,15553724.0,1533.0,47,R,15553129,15553281,154,607.3,976.1,4804,NA
45,1,continuous,47,3,trial,15552191.0,15553724.0,1533.0,47,R,15553313,15553565,254,421.7,994.9,4975,NA
45,1,continuous,47,3,postResponse,15552191.0,15553724.0,1533.0,47,R,15553579,15554061,484,475.8,978.0,5304,NA
45,1,continuous,48,100,fixationCross,15554640.0,15556857.0,2217.0,48,R,15554251,15554533,284,969.2,495.9,5411,NA
45,1,continuous,48,100,trial,15554640.0,15556857.0,2217.0,48,R,15554541,15554789,250,997.4,526.4,5469,NA
45,1,continuous,48,100,trial,15554640.0,15556857.0,2217.0,48,R,15554835,15555109,276,606.3,530.6,5401,left
45,1,continuous,48,100,trial,15554640.0,15556857.0,2217.0,48,R,15555147,15555351,206,372.1,644.1,4954,left
45,1,continuous,48,100,trial,15554640.0,15556857.0,2217.0,48,R,15555433,15555855,424,1493.1,505.5,4648,right
45,1,continuous,48,100,trial,15554640.0,15556857.0,2217.0,48,R,15555871,15556067,198,1559.7,525.7,4776,right
45,1,continuous,48,100,trial,15554640.0,15556857.0,2217.0,48,R,15556093,15556459,368,1471.1,656.5,4983,right
45,1,continuous,48,100,trial,15554640.0,15556857.0,2217.0,48,R,15556503,15556725,224,1441.9,964.9,5126,NA
45,1,continuous,48,100,trial,15554640.0,15556857.0,2217.0,48,R,15556771,15557123,354,1356.8,671.9,5127,right
45,1,continuous,49,12,fixationCross,15558057.0,15559958.0,1901.0,49,R,15557283,15557749,468,781.6,515.2,5338,NA
45,1,continuous,49,12,trial,15558057.0,15559958.0,1901.0,49,R,15557777,15558193,418,976.9,528.1,5346,NA
45,1,continuous,49,12,trial,15558057.0,15559958.0,1901.0,49,R,15558235,15558379,146,591.7,548.1,5320,left
45,1,continuous,49,12,trial,15558057.0,15559958.0,1901.0,49,R,15558447,15558679,234,1450.4,559.0,4762,right
45,1,continuous,49,12,trial,15558057.0,15559958.0,1901.0,49,R,15558699,15558831,134,1416.1,500.9,4725,right
45,1,continuous,49,12,trial,15558057.0,15559958.0,1901.0,49,R,15558851,15558987,138,1507.0,534.6,4858,right
45,1,continuous,49,12,trial,15558057.0,15559958.0,1901.0,49,R,15559063,15559417,356,541.5,584.8,5375,left
45,1,continuous,49,12,trial,15558057.0,15559958.0,1901.0,49,R,15559465,15559587,124,604.3,965.8,5437,NA
45,1,continuous,49,12,trial,15558057.0,15559958.0,1901.0,49,R,15559659,15559937,280,1512.3,664.5,5215,right
45,1,continuous,49,12,trial,15558057.0,15559958.0,1901.0,49,R,15559951,15560247,298,1562.2,689.7,5285,right
45,1,continuous,50,8,fixationCross,15561040.0,15562607.0,1567.0,50,R,15560407,15560731,326,653.1,463.2,5517,left
45,1,continuous,50,8,fixationCross,15561040.0,15562607.0,1567.0,50,R,15560773,15560921,150,1025.5,562.0,5410,NA
45,1,continuous,50,8,trial,15561040.0,15562607.0,1567.0,50,R,15560931,15561203,274,1002.7,537.6,5379,NA
45,1,continuous,50,8,trial,15561040.0,15562607.0,1567.0,50,R,15561247,15561405,160,604.9,544.9,5347,left
45,1,continuous,50,8,trial,15561040.0,15562607.0,1567.0,50,R,15561467,15561825,360,1399.0,600.6,4865,right
45,1,continuous,50,8,trial,15561040.0,15562607.0,1567.0,50,R,15561899,15562071,174,578.2,762.6,4994,NA
45,1,continuous,50,8,trial,15561040.0,15562607.0,1567.0,50,R,15562105,15562319,216,620.0,999.5,5176,NA
45,1,continuous,50,8,trial,15561040.0,15562607.0,1567.0,50,R,15562341,15562517,178,498.2,985.2,5282,NA
45,1,continuous,50,8,postResponse,15561040.0,15562607.0,1567.0,50,R,15562563,15562941,380,512.7,648.8,5122,left
45,2,binary,1,1,fixationCross,15624458.0,15626374.0,1916.0,51,R,15623756,15623936,182,1103.9,848.2,5273,likertHorizontal
45,2,binary,1,1,fixationCross,15624458.0,15626374.0,1916.0,51,R,15624122,15624222,102,949.1,651.2,5478,NA
45,2,binary,1,1,trial,15624458.0,15626374.0,1916.0,51,R,15624248,15624610,364,976.2,551.4,5456,NA
45,2,binary,1,1,trial,15624458.0,15626374.0,1916.0,51,R,15624656,15624764,110,547.8,537.2,5429,left
45,2,binary,1,1,trial,15624458.0,15626374.0,1916.0,51,R,15624784,15624922,140,570.5,471.0,5218,left
45,2,binary,1,1,trial,15624458.0,15626374.0,1916.0,51,R,15624988,15625252,266,1427.6,549.4,4796,right
45,2,binary,1,1,trial,15624458.0,15626374.0,1916.0,51,R,15625276,15625528,254,1283.2,522.2,4741,right
45,2,binary,1,1,trial,15624458.0,15626374.0,1916.0,51,R,15625588,15625722,136,1625.7,613.2,4775,right
45,2,binary,1,1,trial,15624458.0,15626374.0,1916.0,51,R,15625798,15625940,144,606.0,486.6,5008,left
45,2,binary,1,1,trial,15624458.0,15626374.0,1916.0,51,R,15625956,15626094,140,555.4,481.7,4979,left
45,2,binary,1,1,trial,15624458.0,15626374.0,1916.0,51,R,15626144,15626288,146,447.6,987.5,4981,NA
45,2,binary,1,1,trial,15624458.0,15626374.0,1916.0,51,R,15626304,15626644,342,479.3,1025.0,4951,NA
45,2,binary,2,1,fixationCross,15627292.0,15629458.0,2166.0,52,R,15626796,15627160,366,927.6,544.0,5098,NA
45,2,binary,2,1,trial,15627292.0,15629458.0,2166.0,52,R,15627174,15627462,290,980.1,554.3,5348,NA
45,2,binary,2,1,trial,15627292.0,15629458.0,2166.0,52,R,15627526,15627606,82,619.5,973.9,5590,NA
45,2,binary,2,1,trial,15627292.0,15629458.0,2166.0,52,R,15627630,15627752,124,490.7,1021.8,5406,NA
45,2,binary,2,1,trial,15627292.0,15629458.0,2166.0,52,R,15627800,15627956,158,611.9,599.0,5166,left
45,2,binary,2,1,trial,15627292.0,15629458.0,2166.0,52,R,15627976,15628110,136,668.0,557.8,5052,left
45,2,binary,2,1,trial,15627292.0,15629458.0,2166.0,52,R,15628176,15628298,124,1496.2,519.4,4699,right
45,2,binary,2,1,trial,15627292.0,15629458.0,2166.0,52,R,15628316,15628584,270,1563.0,488.0,4609,right
45,2,binary,2,1,trial,15627292.0,15629458.0,2166.0,52,R,15628654,15628820,168,620.9,569.6,4821,left
45,2,binary,2,1,trial,15627292.0,15629458.0,2166.0,52,R,15628832,15629066,236,665.0,557.4,4875,left
45,2,binary,2,1,trial,15627292.0,15629458.0,2166.0,52,R,15629100,15629396,298,397.8,501.5,4820,left
45,2,binary,2,1,trial,15627292.0,15629458.0,2166.0,52,R,15629410,15629678,270,398.3,454.7,5009,left
45,2,binary,2,1,postResponse,15627292.0,15629458.0,2166.0,52,R,15629730,15629794,66,672.6,757.8,5110,NA
45,2,binary,3,1,fixationCross,15630375.0,15633741.0,3366.0,53,R,15629894,15629978,86,668.0,749.0,5080,NA
45,2,binary,3,1,fixationCross,15630375.0,15633741.0,3366.0,53,R,15630020,15630260,242,956.0,598.6,5184,NA
45,2,binary,3,1,trial,15630375.0,15633741.0,3366.0,53,R,15630278,15630574,298,980.8,543.0,5426,NA
45,2,binary,3,1,trial,15630375.0,15633741.0,3366.0,53,R,15630638,15630718,82,542.0,984.9,5580,NA
45,2,binary,3,1,trial,15630375.0,15633741.0,3366.0,53,R,15630738,15630800,64,467.7,1012.3,5436,NA
45,2,binary,3,1,trial,15630375.0,15633741.0,3366.0,53,R,15630850,15631040,192,993.9,976.3,5291,likertHorizontal
45,2,binary,3,1,trial,15630375.0,15633741.0,3366.0,53,R,15631056,15631182,128,1053.7,931.4,5219,likertHorizontal
45,2,binary,3,1,trial,15630375.0,15633741.0,3366.0,53,R,15631204,15631406,204,950.6,975.0,5280,likertHorizontal
45,2,binary,3,1,trial,15630375.0,15633741.0,3366.0,53,R,15631452,15631574,124,1431.6,951.7,5397,NA
45,2,binary,3,1,trial,15630375.0,15633741.0,3366.0,53,R,15631624,15631804,182,1458.2,571.4,5415,right
45,2,binary,3,1,trial,15630375.0,15633741.0,3366.0,53,R,15631828,15631966,140,1516.8,506.5,5199,right
45,2,binary,3,1,trial,15630375.0,15633741.0,3366.0,53,R,15632036,15632228,194,572.5,699.6,5073,left
45,2,binary,3,1,trial,15630375.0,15633741.0,3366.0,53,R,15632272,15632382,112,455.4,997.6,5166,NA
45,2,binary,3,1,trial,15630375.0,15633741.0,3366.0,53,R,15632544,15632654,112,539.8,601.7,5442,left
45,2,binary,3,1,trial,15630375.0,15633741.0,3366.0,53,R,15632682,15632808,128,704.6,541.5,5422,left
45,2,binary,3,1,trial,15630375.0,15633741.0,3366.0,53,R,15632874,15633026,154,1453.1,535.5,5133,right
45,2,binary,3,1,trial,15630375.0,15633741.0,3366.0,53,R,15633040,15633174,136,1509.3,534.1,4940,right
45,2,binary,3,1,trial,15630375.0,15633741.0,3366.0,53,R,15633184,15633486,304,1496.1,517.8,4789,right
45,2,binary,3,1,trial,15630375.0,15633741.0,3366.0,53,R,15633560,15633694,136,514.6,612.4,4811,left
45,2,binary,3,1,trial,15630375.0,15633741.0,3366.0,53,R,15633842,15634058,218,576.3,547.6,4783,left
45,2,binary,4,1,fixationCross,15634775.0,15637525.0,2750.0,54,R,15634150,15634478,330,836.4,516.4,4859,NA
45,2,binary,4,1,trial,15634775.0,15637525.0,2750.0,54,R,15634502,15634920,420,981.4,545.2,5161,NA
45,2,binary,4,1,trial,15634775.0,15637525.0,2750.0,54,R,15634966,15635110,146,541.8,539.7,5476,left
45,2,binary,4,1,trial,15634775.0,15637525.0,2750.0,54,R,15635132,15635304,174,624.8,492.3,5324,left
45,2,binary,4,1,trial,15634775.0,15637525.0,2750.0,54,R,15635374,15635648,276,1477.9,553.7,4859,right
45,2,binary,4,1,trial,15634775.0,15637525.0,2750.0,54,R,15635664,15635776,114,1451.3,601.0,4831,right
45,2,binary,4,1,trial,15634775.0,15637525.0,2750.0,54,R,15635792,15636276,486,1455.6,677.7,5007,right
45,2,binary,4,1,trial,15634775.0,15637525.0,2750.0,54,R,15636348,15636514,168,544.7,529.6,5235,left
45,2,binary,4,1,trial,15634775.0,15637525.0,2750.0,54,R,15636532,15636892,362,620.6,515.3,5061,left
45,2,binary,4,1,trial,15634775.0,15637525.0,2750.0,54,R,15636926,15637164,240,383.4,584.6,4792,left
45,2,binary,4,1,trial,15634775.0,15637525.0,2750.0,54,R,15637212,15637406,196,416.9,985.0,4745,NA
45,2,binary,4,1,trial,15634775.0,15637525.0,2750.0,54,R,15637418,15637704,288,460.4,1013.3,4916,NA
45,2,binary,4,1,postResponse,15634775.0,15637525.0,2750.0,54,R,15637770,15637874,106,833.9,448.6,5080,NA
45,2,binary,5,1,fixationCross,15638642.0,15640875.0,2233.0,55,R,15637974,15638328,356,843.5,464.0,5261,NA
45,2,binary,5,1,trial,15638642.0,15640875.0,2233.0,55,R,15638352,15638780,430,977.9,550.4,5493,NA
45,2,binary,5,1,trial,15638642.0,15640875.0,2233.0,55,R,15638828,15638976,150,554.6,535.1,5615,left
45,2,binary,5,1,trial,15638642.0,15640875.0,2233.0,55,R,15638986,15639152,168,565.8,567.4,5345,left
45,2,binary,5,1,trial,15638642.0,15640875.0,2233.0,55,R,15639322,15639540,220,1323.9,536.6,4994,right
45,2,binary,5,1,trial,15638642.0,15640875.0,2233.0,55,R,15639564,15639842,280,1431.1,559.1,5011,right
45,2,binary,5,1,trial,15638642.0,15640875.0,2233.0,55,R,15639916,15640074,160,605.7,573.1,5191,left
45,2,binary,5,1,trial,15638642.0,15640875.0,2233.0,55,R,15640094,15641116,1024,558.2,571.6,5034,left
45,2,binary,5,1,postResponse,15638642.0,15640875.0,2233.0,55,R,15641182,15641222,42,1250.7,561.2,5072,right
45,2,binary,6,1,fixationCross,15642092.0,15645025.0,2933.0,56,R,15641296,15641790,496,1228.3,551.6,5155,right
45,2,binary,6,1,fixationCross,15642092.0,15645025.0,2933.0,56,R,15641830,15641960,132,950.8,568.7,5453,NA
45,2,binary,6,1,trial,15642092.0,15645025.0,2933.0,56,R,15641968,15642238,272,972.2,556.9,5534,NA
45,2,binary,6,1,trial,15642092.0,15645025.0,2933.0,56,R,15642284,15642406,124,642.3,496.0,5523,left
45,2,binary,6,1,trial,15642092.0,15645025.0,2933.0,56,R,15642424,15642514,92,674.9,453.0,5183,left
45,2,binary,6,1,trial,15642092.0,15645025.0,2933.0,56,R,15642578,15642702,126,1441.9,499.9,4670,right
45,2,binary,6,1,trial,15642092.0,15645025.0,2933.0,56,R,15642716,15643048,334,1407.9,472.5,4523,right
45,2,binary,6,1,trial,15642092.0,15645025.0,2933.0,56,R,15643114,15643272,160,680.2,460.6,4557,left
45,2,binary,6,1,trial,15642092.0,15645025.0,2933.0,56,R,15643282,15643494,214,665.0,448.5,4601,left
45,2,binary,6,1,trial,15642092.0,15645025.0,2933.0,56,R,15643538,15643764,228,330.8,525.7,4750,left
45,2,binary,6,1,trial,15642092.0,15645025.0,2933.0,56,R,15643930,15644448,520,679.3,439.0,4881,left
45,2,binary,6,1,trial,15642092.0,15645025.0,2933.0,56,R,15644480,15644656,178,543.5,563.4,5037,left
45,2,binary,6,1,trial,15642092.0,15645025.0,2933.0,56,R,15644702,15644816,116,564.2,880.6,5160,NA
45,2,binary,6,1,trial,15642092.0,15645025.0,2933.0,56,R,15644840,15644954,116,501.4,966.6,5147,NA
45,2,binary,6,1,trial,15642092.0,15645025.0,2933.0,56,R,15645230,15645274,46,1340.8,522.3,5314,right
45,2,binary,6,1,postResponse,15642092.0,15645025.0,2933.0,56,R,15645316,15645372,58,997.9,504.1,5282,NA
45,2,binary,7,1,fixationCross,15645941.0,15648292.0,2351.0,57,R,15645472,15645736,266,1009.4,495.6,5449,NA
45,2,binary,7,1,fixationCross,15645941.0,15648292.0,2351.0,57,R,15645754,15645896,144,948.8,510.6,5424,NA
45,2,binary,7,1,trial,15645941.0,15648292.0,2351.0,57,R,15645912,15646096,186,973.0,541.2,5328,NA
45,2,binary,7,1,trial,15645941.0,15648292.0,2351.0,57,R,15646146,15646304,160,528.0,567.1,5376,left
45,2,binary,7,1,trial,15645941.0,15648292.0,2351.0,57,R,15646370,15646542,174,1360.1,550.6,4908,right
45,2,binary,7,1,trial,15645941.0,15648292.0,2351.0,57,R,15646564,15646786,224,1382.2,481.7,4666,right
45,2,binary,7,1,trial,15645941.0,15648292.0,2351.0,57,R,15646802,15646966,166,1361.4,526.4,4660,right
45,2,binary,7,1,trial,15645941.0,15648292.0,2351.0,57,R,15647036,15647208,174,554.8,576.3,4983,left
45,2,binary,7,1,trial,15645941.0,15648292.0,2351.0,57,R,15647284,15647384,102,1551.6,920.1,4912,NA
45,2,binary,7,1,trial,15645941.0,15648292.0,2351.0,57,R,15647408,15647530,124,1441.0,975.0,4836,NA
45,2,binary,7,1,trial,15645941.0,15648292.0,2351.0,57,R,15647578,15647712,136,1473.4,509.4,4664,right
45,2,binary,7,1,trial,15645941.0,15648292.0,2351.0,57,R,15647732,15648000,270,1383.3,479.9,4811,right
45,2,binary,7,1,trial,15645941.0,15648292.0,2351.0,57,R,15648072,15648244,174,479.6,952.5,5077,NA
45,2,binary,7,1,trial,15645941.0,15648292.0,2351.0,57,R,15648254,15648492,240,468.4,977.1,5160,NA
45,2,binary,8,2,fixationCross,15649525.0,15652891.0,3366.0,58,R,15648712,15648942,232,796.4,429.8,5219,NA
45,2,binary,8,2,fixationCross,15649525.0,15652891.0,3366.0,58,R,15648982,15649206,226,579.6,503.9,5316,left
45,2,binary,8,2,trial,15649525.0,15652891.0,3366.0,58,R,15649248,15649668,422,973.7,531.5,5450,NA
45,2,binary,8,2,trial,15649525.0,15652891.0,3366.0,58,R,15649714,15649890,178,481.6,548.4,5533,left
45,2,binary,8,2,trial,15649525.0,15652891.0,3366.0,58,R,15649928,15650058,132,351.5,423.6,5169,left
45,2,binary,8,2,trial,15649525.0,15652891.0,3366.0,58,R,15650132,15650300,170,1310.9,568.5,4946,right
45,2,binary,8,2,trial,15649525.0,15652891.0,3366.0,58,R,15650324,15650634,312,1433.0,567.7,4823,right
45,2,binary,8,2,trial,15649525.0,15652891.0,3366.0,58,R,15650654,15650814,162,1385.1,529.7,4802,right
45,2,binary,8,2,trial,15649525.0,15652891.0,3366.0,58,R,15650884,15651118,236,455.3,509.6,4886,left
45,2,binary,8,2,trial,15649525.0,15652891.0,3366.0,58,R,15651144,15651316,174,547.3,581.0,4874,left
45,2,binary,8,2,trial,15649525.0,15652891.0,3366.0,58,R,15651338,15651442,106,663.3,621.0,4967,left
45,2,binary,8,2,trial,15649525.0,15652891.0,3366.0,58,R,15651504,15651696,194,1302.0,994.7,5178,NA
45,2,binary,8,2,trial,15649525.0,15652891.0,3366.0,58,R,15651720,15651862,144,1422.0,958.4,5293,NA
45,2,binary,8,2,trial,15649525.0,15652891.0,3366.0,58,R,15651932,15652092,162,514.6,580.6,5469,left
45,2,binary,8,2,trial,15649525.0,15652891.0,3366.0,58,R,15652118,15652244,128,682.3,628.0,5573,left
45,2,binary,8,2,trial,15649525.0,15652891.0,3366.0,58,R,15652286,15652402,118,395.5,471.0,5397,left
45,2,binary,8,2,trial,15649525.0,15652891.0,3366.0,58,R,15652424,15652556,134,315.2,437.3,5241,left
45,2,binary,8,2,trial,15649525.0,15652891.0,3366.0,58,R,15652752,15653128,378,1454.5,623.3,5045,right
45,2,binary,8,2,postResponse,15649525.0,15652891.0,3366.0,58,R,15653198,15653226,30,676.7,514.7,5096,left
45,2,binary,9,1,fixationCross,15653992.0,15656825.0,2833.0,59,R,15653326,15653692,368,689.0,508.2,5086,left
45,2,binary,9,1,trial,15653992.0,15656825.0,2833.0,59,R,15653730,15654130,402,961.3,547.2,5247,NA
45,2,binary,9,1,trial,15653992.0,15656825.0,2833.0,59,R,15654178,15654338,162,485.9,566.7,5354,left
45,2,binary,9,1,trial,15653992.0,15656825.0,2833.0,59,R,15654354,15654522,170,434.0,593.6,5199,left
45,2,binary,9,1,trial,15653992.0,15656825.0,2833.0,59,R,15654602,15654744,144,1498.4,526.1,4972,right
45,2,binary,9,1,trial,15653992.0,15656825.0,2833.0,59,R,15654764,15654936,174,1574.5,476.3,4919,right
45,2,binary,9,1,trial,15653992.0,15656825.0,2833.0,59,R,15655012,15655212,202,440.6,608.5,4953,left
45,2,binary,9,1,trial,15653992.0,15656825.0,2833.0,59,R,15655234,15655430,198,558.7,636.8,4846,left
45,2,binary,9,1,trial,15653992.0,15656825.0,2833.0,59,R,15655458,15655636,180,428.0,551.7,4844,left
45,2,binary,9,1,trial,15653992.0,15656825.0,2833.0,59,R,15655716,15655818,104,1442.4,548.0,4826,right
45,2,binary,9,1,trial,15653992.0,15656825.0,2833.0,59,R,15655842,15655942,102,1580.0,493.4,4851,right
45,2,binary,9,1,trial,15653992.0,15656825.0,2833.0,59,R,15655990,15656092,104,1375.0,909.0,5058,NA
45,2,binary,9,1,trial,15653992.0,15656825.0,2833.0,59,R,15656164,15656406,244,491.6,609.8,5176,left
45,2,binary,9,1,trial,15653992.0,15656825.0,2833.0,59,R,15656428,15656674,248,601.7,661.0,5349,left
45,2,binary,9,1,trial,15653992.0,15656825.0,2833.0,59,R,15656718,15657020,304,477.3,1030.2,5489,NA
45,2,binary,9,1,postResponse,15653992.0,15656825.0,2833.0,59,R,15657078,15657160,84,747.2,575.7,5378,NA
45,2,binary,10,1,fixationCross,15657892.0,15660041.0,2149.0,60,R,15657266,15657608,344,846.9,494.7,5323,NA
45,2,binary,10,1,trial,15657892.0,15660041.0,2149.0,60,R,15657634,15658032,400,979.3,552.8,5488,NA
45,2,binary,10,1,trial,15657892.0,15660041.0,2149.0,60,R,15658076,15658228,154,575.3,536.4,5511,left
45,2,binary,10,1,trial,15657892.0,15660041.0,2149.0,60,R,15658254,15658392,140,438.8,575.5,5274,left
45,2,binary,10,1,trial,15657892.0,15660041.0,2149.0,60,R,15658402,15658582,182,476.9,574.6,5104,left
45,2,binary,10,1,trial,15657892.0,15660041.0,2149.0,60,R,15658654,15658808,156,1417.7,475.5,4938,right
45,2,binary,10,1,trial,15657892.0,15660041.0,2149.0,60,R,15658832,15658956,126,1456.9,410.8,4960,right
45,2,binary,10,1,trial,15657892.0,15660041.0,2149.0,60,R,15658980,15659186,208,1463.4,517.1,5091,right
45,2,binary,10,1,trial,15657892.0,15660041.0,2149.0,60,R,15659206,15659420,216,1467.9,587.9,5250,right
45,2,binary,10,1,trial,15657892.0,15660041.0,2149.0,60,R,15659494,15659666,174,554.9,596.8,5460,left
45,2,binary,10,1,trial,15657892.0,15660041.0,2149.0,60,R,15659688,15659830,144,470.5,584.1,5368,left
45,2,binary,10,1,trial,15657892.0,15660041.0,2149.0,60,R,15659910,15660302,394,1475.8,632.7,5076,right
45,2,binary,11,1,fixationCross,15661209.0,15663375.0,2166.0,61,R,15660474,15660908,436,712.1,506.2,5468,left
45,2,binary,11,1,fixationCross,15661209.0,15663375.0,2166.0,61,R,15660944,15661074,132,942.1,555.5,5452,NA
45,2,binary,11,1,trial,15661209.0,15663375.0,2166.0,61,R,15661086,15661348,264,977.9,551.4,5452,NA
45,2,binary,11,1,trial,15661209.0,15663375.0,2166.0,61,R,15661394,15661516,124,504.9,532.3,5476,left
45,2,binary,11,1,trial,15661209.0,15663375.0,2166.0,61,R,15661542,15661718,178,380.8,512.7,5097,left
45,2,binary,11,1,trial,15661209.0,15663375.0,2166.0,61,R,15661730,15661802,74,422.8,492.9,4846,left
45,2,binary,11,1,trial,15661209.0,15663375.0,2166.0,61,R,15661876,15662108,234,1461.4,577.9,4668,right
45,2,binary,11,1,trial,15661209.0,15663375.0,2166.0,61,R,15662128,15662312,186,1393.8,528.4,4636,right
45,2,binary,11,1,trial,15661209.0,15663375.0,2166.0,61,R,15662334,15662460,128,1501.4,588.1,4515,right
45,2,binary,11,1,trial,15661209.0,15663375.0,2166.0,61,R,15662522,15662642,122,815.8,953.4,4623,likertHorizontal
45,2,binary,11,1,trial,15661209.0,15663375.0,2166.0,61,R,15662666,15662768,104,988.2,934.1,4570,likertHorizontal
45,2,binary,11,1,trial,15661209.0,15663375.0,2166.0,61,R,15662820,15662936,118,1473.1,565.6,4503,right
45,2,binary,11,1,trial,15661209.0,15663375.0,2166.0,61,R,15663012,15663620,610,500.7,1021.8,5111,NA
45,2,binary,11,1,postResponse,15661209.0,15663375.0,2166.0,61,R,15663680,15663708,30,920.7,452.9,5258,NA
45,2,binary,12,2,fixationCross,15664308.0,15666676.0,2368.0,62,R,15663806,15664050,246,916.7,455.0,5286,NA
45,2,binary,12,2,fixationCross,15664308.0,15666676.0,2368.0,62,R,15664074,15664226,154,1004.5,514.4,5438,NA
45,2,binary,12,2,trial,15664308.0,15666676.0,2368.0,62,R,15664238,15664450,214,969.7,537.5,5673,NA
45,2,binary,12,2,trial,15664308.0,15666676.0,2368.0,62,R,15664498,15664670,174,578.3,514.8,5755,left
45,2,binary,12,2,trial,15664308.0,15666676.0,2368.0,62,R,15664690,15664760,72,490.3,525.5,5375,left
45,2,binary,12,2,trial,15664308.0,15666676.0,2368.0,62,R,15664832,15665104,274,1456.9,569.3,4867,right
45,2,binary,12,2,trial,15664308.0,15666676.0,2368.0,62,R,15665118,15665552,436,1517.4,581.1,4902,right
45,2,binary,12,2,trial,15664308.0,15666676.0,2368.0,62,R,15665592,15665826,236,1366.0,736.9,5084,NA
45,2,binary,12,2,trial,15664308.0,15666676.0,2368.0,62,R,15665874,15666052,180,939.9,971.6,5436,likertHorizontal
45,2,binary,12,2,trial,15664308.0,15666676.0,2368.0,62,R,15666100,15666238,140,455.4,1005.5,5727,NA
45,2,binary,12,2,trial,15664308.0,15666676.0,2368.0,62,R,15666290,15666408,120,1026.1,965.2,5877,likertHorizontal
45,2,binary,12,2,trial,15664308.0,15666676.0,2368.0,62,R,15666454,15666630,178,1458.9,987.6,5724,NA
45,2,binary,12,2,trial,15664308.0,15666676.0,2368.0,62,R,15666750,15666896,148,1396.6,551.7,5729,right
45,2,binary,13,2,fixationCross,15667775.0,15670459.0,2684.0,63,R,15667108,15667478,372,721.4,477.9,5444,left
45,2,binary,13,2,trial,15667775.0,15670459.0,2684.0,63,R,15667514,15667912,400,982.4,544.8,5252,NA
45,2,binary,13,2,trial,15667775.0,15670459.0,2684.0,63,R,15667960,15668132,174,502.1,556.9,5312,left
45,2,binary,13,2,trial,15667775.0,15670459.0,2684.0,63,R,15668142,15668312,172,540.1,543.2,5183,left
45,2,binary,13,2,trial,15667775.0,15670459.0,2684.0,63,R,15668342,15668608,268,407.3,571.3,5205,left
45,2,binary,13,2,trial,15667775.0,15670459.0,2684.0,63,R,15668688,15669030,344,1458.3,619.7,5422,right
45,2,binary,13,2,trial,15667775.0,15670459.0,2684.0,63,R,15669052,15669270,220,1395.0,691.8,5307,right
45,2,binary,13,2,trial,15667775.0,15670459.0,2684.0,63,R,15669346,15669460,116,498.8,966.4,5485,NA
45,2,binary,13,2,trial,15667775.0,15670459.0,2684.0,63,R,15669504,15669684,182,574.3,565.7,5423,left
45,2,binary,13,2,trial,15667775.0,15670459.0,2684.0,63,R,15669700,15669856,158,529.4,535.6,5388,left
45,2,binary,13,2,trial,15667775.0,15670459.0,2684.0,63,R,15669880,15670220,342,427.9,576.2,5484,left
45,2,binary,13,2,trial,15667775.0,15670459.0,2684.0,63,R,15670294,15670448,156,1467.5,971.8,5634,NA
45,2,binary,13,2,trial,15667775.0,15670459.0,2684.0,63,R,15670496,15670700,206,1519.5,575.9,5396,right
45,2,binary,14,1,fixationCross,15671525.0,15673059.0,1534.0,64,R,15670894,15671230,338,737.0,536.1,5321,NA
45,2,binary,14,1,trial,15671525.0,15673059.0,1534.0,64,R,15671258,15671662,406,976.6,559.4,5314,NA
45,2,binary,14,1,trial,15671525.0,15673059.0,1534.0,64,R,15671708,15671860,154,543.2,622.4,5262,left
45,2,binary,14,1,trial,15671525.0,15673059.0,1534.0,64,R,15671882,15672078,198,480.3,669.8,5047,left
45,2,binary,14,1,trial,15671525.0,15673059.0,1534.0,64,R,15672148,15672356,210,1363.4,564.3,4859,right
45,2,binary,14,1,trial,15671525.0,15673059.0,1534.0,64,R,15672384,15672672,290,1548.7,609.0,4851,right
45,2,binary,14,1,trial,15671525.0,15673059.0,1534.0,64,R,15672696,15672860,166,1412.4,628.8,4830,right
45,2,binary,14,1,trial,15671525.0,15673059.0,1534.0,64,R,15672932,15673070,140,483.2,972.0,5076,NA
45,2,binary,14,1,trial,15671525.0,15673059.0,1534.0,64,R,15673116,15673316,202,496.0,589.7,5067,left
45,2,binary,15,1,fixationCross,15674026.0,15676508.0,2482.0,65,R,15673490,15673840,352,868.8,491.4,5137,NA
45,2,binary,15,1,trial,15674026.0,15676508.0,2482.0,65,R,15673864,15674174,312,981.8,544.1,5427,NA
45,2,binary,15,1,trial,15674026.0,15676508.0,2482.0,65,R,15674220,15674408,190,541.0,579.2,5421,left
45,2,binary,15,1,trial,15674026.0,15676508.0,2482.0,65,R,15674432,15674574,144,433.4,560.8,5011,left
45,2,binary,15,1,trial,15674026.0,15676508.0,2482.0,65,R,15674584,15674658,76,454.5,545.3,4854,left
45,2,binary,15,1,trial,15674026.0,15676508.0,2482.0,65,R,15674732,15674896,166,1459.2,555.0,4611,right
45,2,binary,15,1,trial,15674026.0,15676508.0,2482.0,65,R,15674914,15675298,386,1377.5,576.5,4642,right
45,2,binary,15,1,trial,15674026.0,15676508.0,2482.0,65,R,15675372,15675492,122,511.2,572.4,4796,left
45,2,binary,15,1,trial,15674026.0,15676508.0,2482.0,65,R,15675510,15675706,198,435.5,562.0,4693,left
45,2,binary,15,1,trial,15674026.0,15676508.0,2482.0,65,R,15675716,15675918,204,441.7,547.4,4498,left
45,2,binary,15,1,trial,15674026.0,15676508.0,2482.0,65,R,15675966,15676100,136,661.6,809.1,4520,NA
45,2,binary,15,1,trial,15674026.0,15676508.0,2482.0,65,R,15676166,15676370,206,1440.4,574.9,4561,right
45,2,binary,15,1,trial,15674026.0,15676508.0,2482.0,65,R,15676392,15676816,426,1526.0,558.3,4835,right
45,2,binary,16,2,fixationCross,15677592.0,15679042.0,1450.0,66,R,15676940,15677272,334,600.2,575.8,5024,left
45,2,binary,16,2,trial,15677592.0,15679042.0,1450.0,66,R,15677316,15677738,424,972.3,559.5,5176,NA
45,2,binary,16,2,trial,15677592.0,15679042.0,1450.0,66,R,15677782,15677958,178,578.0,587.0,5227,left
45,2,binary,16,2,trial,15677592.0,15679042.0,1450.0,66,R,15678004,15678076,74,869.8,552.9,5022,NA
45,2,binary,16,2,trial,15677592.0,15679042.0,1450.0,66,R,15678128,15678750,624,1363.5,575.1,4815,right
45,2,binary,16,2,trial,15677592.0,15679042.0,1450.0,66,R,15678800,15678888,90,1459.2,991.2,5110,NA
45,2,binary,16,2,postResponse,15677592.0,15679042.0,1450.0,66,R,15678960,15679376,418,589.0,572.1,5188,left
45,2,binary,17,1,fixationCross,15680176.0,15682143.0,1967.0,67,R,15679476,15679624,150,601.0,569.5,5111,left
45,2,binary,17,1,fixationCross,15680176.0,15682143.0,1967.0,67,R,15679652,15679876,226,735.1,499.0,5235,left
45,2,binary,17,1,fixationCross,15680176.0,15682143.0,1967.0,67,R,15679914,15680040,128,974.0,547.5,5387,NA
45,2,binary,17,1,trial,15680176.0,15682143.0,1967.0,67,R,15680224,15680326,104,949.3,491.2,5508,NA
45,2,binary,17,1,trial,15680176.0,15682143.0,1967.0,67,R,15680372,15680578,208,498.6,556.2,5358,left
45,2,binary,17,1,trial,15680176.0,15682143.0,1967.0,67,R,15680598,15680712,116,486.3,487.7,5103,left
45,2,binary,17,1,trial,15680176.0,15682143.0,1967.0,67,R,15680780,15680954,176,1388.8,628.7,4577,right
45,2,binary,17,1,trial,15680176.0,15682143.0,1967.0,67,R,15680974,15681140,168,1453.9,613.4,4371,right
45,2,binary,17,1,trial,15680176.0,15682143.0,1967.0,67,R,15681158,15681404,248,1487.2,651.6,4472,right
45,2,binary,17,1,trial,15680176.0,15682143.0,1967.0,67,R,15681438,15681574,138,1248.8,540.6,4771,right
45,2,binary,17,1,trial,15680176.0,15682143.0,1967.0,67,R,15681586,15681726,142,1225.2,505.5,4911,right
45,2,binary,17,1,trial,15680176.0,15682143.0,1967.0,67,R,15681792,15682062,272,507.0,496.6,5004,left
45,2,binary,17,1,postResponse,15680176.0,15682143.0,1967.0,67,R,15682084,15682476,394,492.4,454.2,4900,left
45,2,binary,18,1,fixationCross,15683025.0,15685258.0,2233.0,68,R,15682550,15682572,24,503.3,458.8,4827,left
45,2,binary,18,1,trial,15683025.0,15685258.0,2233.0,68,R,15682628,15683190,564,975.2,554.1,4960,NA
45,2,binary,18,1,trial,15683025.0,15685258.0,2233.0,68,R,15683238,15683452,216,537.5,586.5,5232,left
45,2,binary,18,1,trial,15683025.0,15685258.0,2233.0,68,R,15683526,15683674,150,1374.9,532.3,4776,right
45,2,binary,18,1,trial,15683025.0,15685258.0,2233.0,68,R,15683690,15683824,136,1414.7,486.8,4625,right
45,2,binary,18,1,trial,15683025.0,15685258.0,2233.0,68,R,15683842,15684098,258,1425.2,430.6,4564,right
45,2,binary,18,1,trial,15683025.0,15685258.0,2233.0,68,R,15684122,15684362,242,1552.0,450.7,4562,right
45,2,binary,18,1,trial,15683025.0,15685258.0,2233.0,68,R,15684430,15684766,338,783.3,951.0,4762,likertHorizontal
45,2,binary,18,1,trial,15683025.0,15685258.0,2233.0,68,R,15684820,15684966,148,1391.9,1001.3,4832,NA
45,2,binary,18,1,trial,15683025.0,15685258.0,2233.0,68,R,15685032,15685136,106,518.7,965.8,5173,NA
45,2,binary,18,1,trial,15683025.0,15685258.0,2233.0,68,R,15685184,15685444,262,446.7,606.5,5249,left
45,2,binary,19,2,fixationCross,15686376.0,15689659.0,3283.0,69,R,15685706,15685820,116,892.1,581.8,5055,NA
45,2,binary,19,2,fixationCross,15686376.0,15689659.0,3283.0,69,R,15685860,15686068,210,1072.1,785.2,5283,likertHorizontal
45,2,binary,19,2,fixationCross,15686376.0,15689659.0,3283.0,69,R,15686104,15686242,140,1003.3,562.7,5529,NA
45,2,binary,19,2,trial,15686376.0,15689659.0,3283.0,69,R,15686252,15686570,320,988.2,540.8,5768,NA
45,2,binary,19,2,trial,15686376.0,15689659.0,3283.0,69,R,15686610,15686720,112,680.7,513.2,5866,left
45,2,binary,19,2,trial,15686376.0,15689659.0,3283.0,69,R,15686780,15686972,194,1360.1,574.2,5522,right
45,2,binary,19,2,trial,15686376.0,15689659.0,3283.0,69,R,15686990,15687148,160,1291.3,570.1,5596,right
45,2,binary,19,2,trial,15686376.0,15689659.0,3283.0,69,R,15687202,15687308,108,1476.5,1020.0,5869,NA
45,2,binary,19,2,trial,15686376.0,15689659.0,3283.0,69,R,15687326,15687494,170,1440.7,971.0,5927,NA
45,2,binary,19,2,trial,15686376.0,15689659.0,3283.0,69,R,15687574,15687732,160,658.6,547.5,5911,left
45,2,binary,19,2,trial,15686376.0,15689659.0,3283.0,69,R,15687754,15688128,376,674.5,484.1,5827,left
45,2,binary,19,2,trial,15686376.0,15689659.0,3283.0,69,R,15688166,15688338,174,525.5,667.4,5677,left
45,2,binary,19,2,trial,15686376.0,15689659.0,3283.0,69,R,15688408,15688626,220,1372.9,575.9,5492,right
45,2,binary,19,2,trial,15686376.0,15689659.0,3283.0,69,R,15688644,15688764,122,1299.1,599.4,5537,right
45,2,binary,19,2,trial,15686376.0,15689659.0,3283.0,69,R,15688824,15688948,126,616.8,517.0,5633,left
45,2,binary,19,2,trial,15686376.0,15689659.0,3283.0,69,R,15688964,15689236,274,659.5,486.6,5517,left
45,2,binary,19,2,trial,15686376.0,15689659.0,3283.0,69,R,15689304,15689446,144,1369.0,942.9,5417,NA
45,2,binary,19,2,trial,15686376.0,15689659.0,3283.0,69,R,15689466,15689606,142,1448.7,976.7,5483,NA
45,2,binary,19,2,postResponse,15686376.0,15689659.0,3283.0,69,R,15689656,15689994,340,1442.7,536.9,5557,right
45,2,binary,20,1,fixationCross,15690742.0,15693809.0,3067.0,70,R,15690132,15690436,306,621.0,585.6,5870,left
45,2,binary,20,1,fixationCross,15690742.0,15693809.0,3067.0,70,R,15690478,15690594,118,999.5,581.1,5722,NA
45,2,binary,20,1,trial,15690742.0,15693809.0,3067.0,70,R,15690606,15690886,282,967.9,549.2,5598,NA
45,2,binary,20,1,trial,15690742.0,15693809.0,3067.0,70,R,15690934,15691180,248,499.1,550.0,5491,left
45,2,binary,20,1,trial,15690742.0,15693809.0,3067.0,70,R,15691252,15691394,144,1467.9,550.7,5170,right
45,2,binary,20,1,trial,15690742.0,15693809.0,3067.0,70,R,15691408,15691546,140,1439.6,515.8,5122,right
45,2,binary,20,1,trial,15690742.0,15693809.0,3067.0,70,R,15691598,15691980,384,1414.8,977.7,5322,NA
45,2,binary,20,1,trial,15690742.0,15693809.0,3067.0,70,R,15692044,15692126,84,677.5,927.8,5751,NA
45,2,binary,20,1,trial,15690742.0,15693809.0,3067.0,70,R,15692164,15692304,142,460.2,1001.2,5814,NA
45,2,binary,20,1,trial,15690742.0,15693809.0,3067.0,70,R,15692354,15692584,232,510.6,529.0,5541,left
45,2,binary,20,1,trial,15690742.0,15693809.0,3067.0,70,R,15692596,15692700,106,470.6,551.3,5359,left
45,2,binary,20,1,trial,15690742.0,15693809.0,3067.0,70,R,15692774,15692914,142,1454.8,581.8,5243,right
45,2,binary,20,1,trial,15690742.0,15693809.0,3067.0,70,R,15692934,15693110,178,1452.6,524.5,5236,right
45,2,binary,20,1,trial,15690742.0,15693809.0,3067.0,70,R,15693120,15693320,202,1466.3,512.3,5231,right
45,2,binary,20,1,postResponse,15690742.0,15693809.0,3067.0,70,R,15693394,15694144,752,512.3,559.1,5505,left
45,2,binary,21,2,fixationCross,15695543.0,15698409.0,2866.0,71,R,15694272,15694436,166,770.2,728.1,5789,NA
45,2,binary,21,2,fixationCross,15695543.0,15698409.0,2866.0,71,R,15694500,15694598,100,788.7,1439.0,6004,likertHorizontal
45,2,binary,21,2,fixationCross,15695543.0,15698409.0,2866.0,71,R,15694624,15695016,394,731.9,1584.8,6094,NA
45,2,binary,21,2,fixationCross,15695543.0,15698409.0,2866.0,71,R,15695102,15695232,132,880.7,699.4,5928,NA
45,2,binary,21,2,trial,15695543.0,15698409.0,2866.0,71,R,15695262,15695556,296,974.0,545.6,5679,NA
45,2,binary,21,2,trial,15695543.0,15698409.0,2866.0,71,R,15695608,15695710,104,682.9,322.3,5555,NA
45,2,binary,21,2,trial,15695543.0,15698409.0,2866.0,71,R,15695752,15695906,156,422.6,470.0,5643,left
45,2,binary,21,2,trial,15695543.0,15698409.0,2866.0,71,R,15695918,15696416,500,404.6,451.2,5223,left
45,2,binary,21,2,trial,15695543.0,15698409.0,2866.0,71,R,15696446,15696612,168,568.3,574.2,5024,left
45,2,binary,21,2,trial,15695543.0,15698409.0,2866.0,71,R,15696682,15697124,444,1401.1,540.0,4987,right
45,2,binary,21,2,trial,15695543.0,15698409.0,2866.0,71,R,15697150,15697786,638,1513.6,592.8,5228,right
45,2,binary,21,2,trial,15695543.0,15698409.0,2866.0,71,R,15697816,15698028,214,1447.6,473.1,5356,right
45,2,binary,21,2,trial,15695543.0,15698409.0,2866.0,71,R,15698038,15698162,126,1414.1,491.2,5396,right
45,2,binary,21,2,trial,15695543.0,15698409.0,2866.0,71,R,15698238,15698352,116,395.7,493.2,5431,left
45,2,binary,21,2,postResponse,15695543.0,15698409.0,2866.0,71,R,15698366,15698744,380,388.7,449.9,5008,left
