participantNo,block,task,blockTrial,response,trialStage,trialStartTime,trialFinishTime,rt,trial,eye,fixStart,fixEnd,fixLength,fixPosX,fixPosY,dilation,aoi
4,1,binary,1,2,fixationCross,1750795.0,1755579.0,4784.0,1,R,1749959,1750337,380,865.1,845.1,4035,likertHorizontal
4,1,binary,1,2,fixationCross,1750795.0,1755579.0,4784.0,1,R,1750389,1750677,290,946.8,540.9,4026,NA
4,1,binary,1,2,trial,1750795.0,1755579.0,4784.0,1,R,1750695,1751001,308,964.5,536.7,4046,NA
4,1,binary,1,2,trial,1750795.0,1755579.0,4784.0,1,R,1751069,1751357,290,1493.7,526.7,4063,right
4,1,binary,1,2,trial,1750795.0,1755579.0,4784.0,1,R,1751415,1751597,184,628.3,546.7,3513,left
4,1,binary,1,2,trial,1750795.0,1755579.0,4784.0,1,R,1751665,1751837,174,1511.8,501.5,3503,right
4,1,binary,1,2,trial,1750795.0,1755579.0,4784.0,1,R,1751855,1752215,362,1464.8,523.4,3461,right
4,1,binary,1,2,trial,1750795.0,1755579.0,4784.0,1,R,1752277,1752753,478,1459.5,1017.6,3716,NA
4,1,binary,1,2,trial,1750795.0,1755579.0,4784.0,1,R,1752827,1753065,240,587.8,1040.7,3726,NA
4,1,binary,1,2,trial,1750795.0,1755579.0,4784.0,1,R,1753085,1753301,218,563.2,1018.5,3690,NA
4,1,binary,1,2,trial,1750795.0,1755579.0,4784.0,1,R,1753345,1753755,412,563.0,656.8,3596,left
4,1,binary,1,2,trial,1750795.0,1755579.0,4784.0,1,R,1753815,1753993,180,570.4,1032.9,3528,NA
4,1,binary,1,2,trial,1750795.0,1755579.0,4784.0,1,R,1754081,1754263,184,1493.4,914.9,3808,NA
4,1,binary,1,2,trial,1750795.0,1755579.0,4784.0,1,R,1754323,1754541,220,1491.3,502.7,3925,right
4,1,binary,1,2,trial,1750795.0,1755579.0,4784.0,1,R,1754609,1754851,244,1460.0,949.6,3995,NA
4,1,binary,1,2,trial,1750795.0,1755579.0,4784.0,1,R,1754881,1755037,158,1449.2,892.1,4020,NA
4,1,binary,1,2,postResponse,1750795.0,1755579.0,4784.0,1,R,1755073,1755945,874,1486.7,532.7,3879,right
4,1,binary,2,1,fixationCross,1756712.0,1761995.0,5283.0,2,R,1756047,1756361,316,1487.6,532.2,4017,right
4,1,binary,2,1,fixationCross,1756712.0,1761995.0,5283.0,2,R,1756419,1756587,170,1006.0,541.9,4034,NA
4,1,binary,2,1,trial,1756712.0,1761995.0,5283.0,2,R,1756607,1756875,270,961.1,526.6,4157,NA
4,1,binary,2,1,trial,1756712.0,1761995.0,5283.0,2,R,1756925,1757015,92,408.2,494.4,4073,left
4,1,binary,2,1,trial,1756712.0,1761995.0,5283.0,2,R,1757027,1757123,98,441.0,513.1,3982,left
4,1,binary,2,1,trial,1756712.0,1761995.0,5283.0,2,R,1757147,1757589,444,433.3,465.3,3456,left
4,1,binary,2,1,trial,1756712.0,1761995.0,5283.0,2,R,1757653,1757789,138,1079.8,460.0,3130,NA
4,1,binary,2,1,trial,1756712.0,1761995.0,5283.0,2,R,1757827,1758409,584,1335.6,440.6,3183,right
4,1,binary,2,1,trial,1756712.0,1761995.0,5283.0,2,R,1758425,1758741,318,1388.9,412.8,3280,right
4,1,binary,2,1,trial,1756712.0,1761995.0,5283.0,2,R,1758765,1759135,372,1324.4,441.5,3418,right
4,1,binary,2,1,trial,1756712.0,1761995.0,5283.0,2,R,1759203,1759547,346,409.5,483.4,3309,left
4,1,binary,2,1,trial,1756712.0,1761995.0,5283.0,2,R,1759575,1759757,184,637.7,580.4,3221,left
4,1,binary,2,1,trial,1756712.0,1761995.0,5283.0,2,R,1759769,1760561,794,663.8,593.4,3126,left
4,1,binary,2,1,trial,1756712.0,1761995.0,5283.0,2,R,1760589,1761419,832,458.7,526.6,3299,left
4,1,binary,2,1,trial,1756712.0,1761995.0,5283.0,2,R,1761475,1761559,86,538.8,878.7,3568,NA
4,1,binary,2,1,trial,1756712.0,1761995.0,5283.0,2,R,1761595,1761779,186,558.2,976.1,3632,NA
4,1,binary,2,1,trial,1756712.0,1761995.0,5283.0,2,R,1761829,1762269,442,446.5,460.5,3579,left
4,1,binary,3,2,fixationCross,1763112.0,1767162.0,4050.0,3,R,1762445,1762759,316,543.3,476.0,3387,left
4,1,binary,3,2,trial,1763112.0,1767162.0,4050.0,3,R,1762801,1763341,542,931.5,550.3,3671,NA
4,1,binary,3,2,trial,1763112.0,1767162.0,4050.0,3,R,1763395,1763597,204,477.2,482.1,3586,left
4,1,binary,3,2,trial,1763112.0,1767162.0,4050.0,3,R,1763617,1763941,326,515.7,442.4,3279,left
4,1,binary,3,2,trial,1763112.0,1767162.0,4050.0,3,R,1764013,1764407,396,1396.8,555.0,3100,right
4,1,binary,3,2,trial,1763112.0,1767162.0,4050.0,3,R,1764433,1764719,288,1306.4,417.6,3037,right
4,1,binary,3,2,trial,1763112.0,1767162.0,4050.0,3,R,1764749,1764939,192,1490.1,597.7,2918,right
4,1,binary,3,2,trial,1763112.0,1767162.0,4050.0,3,R,1764963,1765229,268,1327.8,558.0,3028,right
4,1,binary,3,2,trial,1763112.0,1767162.0,4050.0,3,R,1765255,1765369,116,1309.5,396.4,3048,right
4,1,binary,3,2,trial,1763112.0,1767162.0,4050.0,3,R,1765429,1766079,652,414.3,478.1,2796,left
4,1,binary,3,2,trial,1763112.0,1767162.0,4050.0,3,R,1766139,1766319,182,1266.5,453.1,2966,right
4,1,binary,3,2,trial,1763112.0,1767162.0,4050.0,3,R,1766379,1766859,482,1353.4,922.9,3091,NA
4,1,binary,3,2,trial,1763112.0,1767162.0,4050.0,3,R,1766907,1767411,506,1319.0,496.6,3345,right
4,1,binary,4,1,trial,1768096.0,1772279.0,4183.0,4,R,1767601,1768099,500,927.3,483.9,3427,NA
4,1,binary,4,1,trial,1768096.0,1772279.0,4183.0,4,R,1768121,1768245,126,971.2,525.5,3576,NA
4,1,binary,4,1,trial,1768096.0,1772279.0,4183.0,4,R,1768299,1768497,200,515.9,455.9,3542,left
4,1,binary,4,1,trial,1768096.0,1772279.0,4183.0,4,R,1768525,1769667,1144,389.0,495.0,3188,left
4,1,binary,4,1,trial,1768096.0,1772279.0,4183.0,4,R,1769759,1770407,650,1420.3,558.3,3522,right
4,1,binary,4,1,trial,1768096.0,1772279.0,4183.0,4,R,1770429,1770889,462,1518.4,593.9,3495,right
4,1,binary,4,1,trial,1768096.0,1772279.0,4183.0,4,R,1770945,1771061,118,896.3,562.7,3463,NA
4,1,binary,4,1,trial,1768096.0,1772279.0,4183.0,4,R,1771107,1771449,344,538.8,609.7,3391,left
4,1,binary,4,1,trial,1768096.0,1772279.0,4183.0,4,R,1771479,1771859,382,378.5,500.2,3272,left
4,1,binary,4,1,trial,1768096.0,1772279.0,4183.0,4,R,1771927,1772161,236,612.3,1130.0,3297,NA
4,1,binary,4,1,trial,1768096.0,1772279.0,4183.0,4,R,1772183,1772531,350,549.0,1017.9,3423,NA
4,1,binary,4,1,postResponse,1768096.0,1772279.0,4183.0,4,R,1772587,1772639,54,721.9,603.2,3566,left
4,1,binary,5,1,fixationCross,1773229.0,1776996.0,3767.0,5,R,1772797,1773119,324,973.4,449.4,3711,NA
4,1,binary,5,1,trial,1773229.0,1776996.0,3767.0,5,R,1773145,1773367,224,962.6,522.7,3834,NA
4,1,binary,5,1,trial,1773229.0,1776996.0,3767.0,5,R,1773415,1773611,198,412.5,480.6,3778,left
4,1,binary,5,1,trial,1773229.0,1776996.0,3767.0,5,R,1773637,1773845,210,429.6,584.0,3602,left
4,1,binary,5,1,trial,1773229.0,1776996.0,3767.0,5,R,1773867,1774015,150,305.9,532.1,3372,left
4,1,binary,5,1,trial,1773229.0,1776996.0,3767.0,5,R,1774091,1774403,314,1442.5,423.5,3255,right
4,1,binary,5,1,trial,1773229.0,1776996.0,3767.0,5,R,1774423,1774975,554,1411.1,499.4,3309,right
4,1,binary,5,1,trial,1773229.0,1776996.0,3767.0,5,R,1774997,1775141,146,1370.0,531.0,3551,right
4,1,binary,5,1,trial,1773229.0,1776996.0,3767.0,5,R,1775205,1775405,202,421.5,529.5,3431,left
4,1,binary,5,1,trial,1773229.0,1776996.0,3767.0,5,R,1775425,1775679,256,339.7,523.8,3254,left
4,1,binary,5,1,trial,1773229.0,1776996.0,3767.0,5,R,1775693,1775919,228,367.3,508.4,2991,left
4,1,binary,5,1,trial,1773229.0,1776996.0,3767.0,5,R,1775977,1776095,120,518.8,1007.4,2972,NA
4,1,binary,5,1,trial,1773229.0,1776996.0,3767.0,5,R,1776137,1776537,402,318.2,527.8,3029,left
4,1,binary,5,1,trial,1773229.0,1776996.0,3767.0,5,R,1776565,1776843,280,520.3,645.1,3101,left
4,1,binary,5,1,trial,1773229.0,1776996.0,3767.0,5,R,1776865,1776979,116,454.8,645.5,3124,left
4,1,binary,5,1,trial,1773229.0,1776996.0,3767.0,5,R,1777005,1777231,228,586.7,637.5,3178,left
4,1,binary,6,1,fixationCross,1778046.0,1782629.0,4583.0,6,R,1777419,1777739,322,685.0,527.1,3308,left
4,1,binary,6,1,fixationCross,1778046.0,1782629.0,4583.0,6,R,1777775,1777977,204,975.9,551.9,3503,NA
4,1,binary,6,1,trial,1778046.0,1782629.0,4583.0,6,R,1777987,1778189,204,954.1,543.9,3622,NA
4,1,binary,6,1,trial,1778046.0,1782629.0,4583.0,6,R,1778239,1778435,198,405.0,485.7,3592,left
4,1,binary,6,1,trial,1778046.0,1782629.0,4583.0,6,R,1778461,1778545,86,529.2,505.4,3481,left
4,1,binary,6,1,trial,1778046.0,1782629.0,4583.0,6,R,1778553,1778617,66,515.5,502.4,3394,left
4,1,binary,6,1,trial,1778046.0,1782629.0,4583.0,6,R,1778625,1778989,366,530.5,509.4,3214,left
4,1,binary,6,1,trial,1778046.0,1782629.0,4583.0,6,R,1779047,1779187,142,1348.9,443.7,3158,right
4,1,binary,6,1,trial,1778046.0,1782629.0,4583.0,6,R,1779209,1779447,240,1406.1,404.6,3053,right
4,1,binary,6,1,trial,1778046.0,1782629.0,4583.0,6,R,1779469,1779725,258,1494.8,480.8,2903,right
4,1,binary,6,1,trial,1778046.0,1782629.0,4583.0,6,R,1779751,1780091,342,1304.9,452.3,2854,right
4,1,binary,6,1,trial,1778046.0,1782629.0,4583.0,6,R,1780119,1780387,270,1487.6,517.2,2850,right
4,1,binary,6,1,trial,1778046.0,1782629.0,4583.0,6,R,1780415,1780619,206,1455.8,605.7,2998,right
4,1,binary,6,1,trial,1778046.0,1782629.0,4583.0,6,R,1780687,1781543,858,456.4,519.7,3081,left
4,1,binary,6,1,trial,1778046.0,1782629.0,4583.0,6,R,1781561,1782209,650,400.9,488.4,3199,left
4,1,binary,6,1,postResponse,1778046.0,1782629.0,4583.0,6,R,1782235,1782959,726,557.9,513.1,3179,left
4,1,binary,7,2,fixationCross,1783662.0,1790962.0,7300.0,7,R,1783059,1783341,284,556.1,510.3,3250,left
4,1,binary,7,2,fixationCross,1783662.0,1790962.0,7300.0,7,R,1783397,1783541,146,1035.3,517.3,3447,NA
4,1,binary,7,2,trial,1783662.0,1790962.0,7300.0,7,R,1783565,1783773,210,970.8,548.9,3552,NA
4,1,binary,7,2,trial,1783662.0,1790962.0,7300.0,7,R,1784063,1784181,120,498.1,559.3,3580,left
4,1,binary,7,2,trial,1783662.0,1790962.0,7300.0,7,R,1784189,1784219,32,507.5,567.0,3554,left
4,1,binary,7,2,trial,1783662.0,1790962.0,7300.0,7,R,1784235,1784447,214,554.7,570.9,3544,left
4,1,binary,7,2,trial,1783662.0,1790962.0,7300.0,7,R,1784475,1784787,314,346.5,518.1,3249,left
4,1,binary,7,2,trial,1783662.0,1790962.0,7300.0,7,R,1784801,1784969,170,318.6,527.3,3009,left
4,1,binary,7,2,trial,1783662.0,1790962.0,7300.0,7,R,1784993,1785127,136,344.8,517.2,2888,left
4,1,binary,7,2,trial,1783662.0,1790962.0,7300.0,7,R,1785157,1785339,184,551.8,407.5,2922,left
4,1,binary,7,2,trial,1783662.0,1790962.0,7300.0,7,R,1785351,1786003,654,576.7,388.4,3005,left
4,1,binary,7,2,trial,1783662.0,1790962.0,7300.0,7,R,1786031,1786423,394,632.7,596.4,3290,left
4,1,binary,7,2,trial,1783662.0,1790962.0,7300.0,7,R,1786441,1786503,64,563.0,585.1,3286,left
4,1,binary,7,2,trial,1783662.0,1790962.0,7300.0,7,R,1786587,1786799,214,1444.4,533.9,3370,right
4,1,binary,7,2,trial,1783662.0,1790962.0,7300.0,7,R,1786829,1787349,522,1314.2,567.1,3093,right
4,1,binary,7,2,trial,1783662.0,1790962.0,7300.0,7,R,1787371,1787707,338,1385.5,497.0,2881,right
4,1,binary,7,2,trial,1783662.0,1790962.0,7300.0,7,R,1787735,1788099,366,1314.7,570.4,2969,right
4,1,binary,7,2,trial,1783662.0,1790962.0,7300.0,7,R,1788109,1788249,142,1323.0,548.3,3070,right
4,1,binary,7,2,trial,1783662.0,1790962.0,7300.0,7,R,1788287,1788561,276,1430.7,465.3,3032,right
4,1,binary,7,2,trial,1783662.0,1790962.0,7300.0,7,R,1788579,1788851,274,1485.0,489.1,3062,right
4,1,binary,7,2,trial,1783662.0,1790962.0,7300.0,7,R,1788889,1789019,132,1569.8,608.7,3189,right
4,1,binary,7,2,trial,1783662.0,1790962.0,7300.0,7,R,1789047,1789357,312,1651.2,715.1,3270,right
4,1,binary,7,2,trial,1783662.0,1790962.0,7300.0,7,R,1789435,1789943,510,434.6,468.0,3116,left
4,1,binary,7,2,trial,1783662.0,1790962.0,7300.0,7,R,1789971,1790229,260,315.6,527.2,3038,left
4,1,binary,7,2,trial,1783662.0,1790962.0,7300.0,7,R,1790305,1791151,848,1393.9,489.7,3244,right
4,1,binary,8,2,fixationCross,1792112.0,1797679.0,5567.0,8,R,1791403,1791603,202,1012.0,507.7,3441,NA
4,1,binary,8,2,fixationCross,1792112.0,1797679.0,5567.0,8,R,1791637,1791827,192,714.7,504.9,3490,left
4,1,binary,8,2,trial,1792112.0,1797679.0,5567.0,8,R,1791865,1792177,314,919.1,553.5,3641,NA
4,1,binary,8,2,trial,1792112.0,1797679.0,5567.0,8,R,1792201,1792305,106,971.7,542.6,3686,NA
4,1,binary,8,2,trial,1792112.0,1797679.0,5567.0,8,R,1792359,1792561,204,490.2,477.4,3558,left
4,1,binary,8,2,trial,1792112.0,1797679.0,5567.0,8,R,1792589,1792785,198,293.7,534.3,3327,left
4,1,binary,8,2,trial,1792112.0,1797679.0,5567.0,8,R,1792851,1793051,202,1251.3,504.0,3352,right
4,1,binary,8,2,trial,1792112.0,1797679.0,5567.0,8,R,1793083,1793453,372,1461.4,548.6,3286,right
4,1,binary,8,2,trial,1792112.0,1797679.0,5567.0,8,R,1793477,1794137,662,1503.1,561.7,3279,right
4,1,binary,8,2,trial,1792112.0,1797679.0,5567.0,8,R,1794151,1794673,524,1498.7,532.8,3337,right
4,1,binary,8,2,trial,1792112.0,1797679.0,5567.0,8,R,1794707,1795435,730,1644.2,556.1,3320,right
4,1,binary,8,2,trial,1792112.0,1797679.0,5567.0,8,R,1795589,1795741,154,1730.4,515.6,3429,NA
4,1,binary,8,2,trial,1792112.0,1797679.0,5567.0,8,R,1795795,1796249,456,1237.1,502.4,3482,right
4,1,binary,8,2,trial,1792112.0,1797679.0,5567.0,8,R,1796263,1796357,96,1208.5,473.5,3444,right
4,1,binary,8,2,trial,1792112.0,1797679.0,5567.0,8,R,1796411,1797097,688,451.4,524.3,3260,left
4,1,binary,8,2,trial,1792112.0,1797679.0,5567.0,8,R,1797117,1797301,186,509.6,466.3,3211,left
4,1,binary,8,2,trial,1792112.0,1797679.0,5567.0,8,R,1797355,1797939,586,1211.3,492.0,3505,right
4,1,binary,9,2,fixationCross,1798779.0,1806046.0,7267.0,9,R,1798119,1798129,12,1166.9,507.8,3610,NA
4,1,binary,9,2,fixationCross,1798779.0,1806046.0,7267.0,9,R,1798157,1798463,308,1172.9,482.1,3637,NA
4,1,binary,9,2,trial,1798779.0,1806046.0,7267.0,9,R,1798495,1798907,414,951.5,560.7,3764,NA
4,1,binary,9,2,trial,1798779.0,1806046.0,7267.0,9,R,1798951,1799093,144,518.0,477.8,3762,left
4,1,binary,9,2,trial,1798779.0,1806046.0,7267.0,9,R,1799115,1799741,628,388.2,494.2,3420,left
4,1,binary,9,2,trial,1798779.0,1806046.0,7267.0,9,R,1799753,1800229,478,367.5,505.9,3132,left
4,1,binary,9,2,trial,1798779.0,1806046.0,7267.0,9,R,1800271,1800609,340,718.7,493.7,3153,left
4,1,binary,9,2,trial,1798779.0,1806046.0,7267.0,9,R,1800633,1801395,764,602.2,497.5,3306,left
4,1,binary,9,2,trial,1798779.0,1806046.0,7267.0,9,R,1801435,1801863,430,246.6,546.0,3260,left
4,1,binary,9,2,trial,1798779.0,1806046.0,7267.0,9,R,1801885,1802005,122,249.2,554.6,3253,left
4,1,binary,9,2,trial,1798779.0,1806046.0,7267.0,9,R,1802029,1802207,180,356.2,514.7,3280,left
4,1,binary,9,2,trial,1798779.0,1806046.0,7267.0,9,R,1802285,1802547,264,1407.8,567.4,3468,right
4,1,binary,9,2,trial,1798779.0,1806046.0,7267.0,9,R,1802565,1802797,234,1395.5,531.5,3425,right
4,1,binary,9,2,trial,1798779.0,1806046.0,7267.0,9,R,1802831,1802989,160,1527.0,571.1,3371,right
4,1,binary,9,2,trial,1798779.0,1806046.0,7267.0,9,R,1803013,1803559,548,1374.5,515.7,3465,right
4,1,binary,9,2,trial,1798779.0,1806046.0,7267.0,9,R,1803581,1803965,386,1443.3,540.8,3658,right
4,1,binary,9,2,trial,1798779.0,1806046.0,7267.0,9,R,1803987,1804193,208,1523.1,586.8,3568,right
4,1,binary,9,2,trial,1798779.0,1806046.0,7267.0,9,R,1804223,1804311,90,1580.8,559.1,3471,right
4,1,binary,9,2,trial,1798779.0,1806046.0,7267.0,9,R,1804337,1804903,568,1521.9,460.3,3504,right
4,1,binary,9,2,trial,1798779.0,1806046.0,7267.0,9,R,1804955,1805251,298,1326.6,627.0,3554,right
4,1,binary,9,2,trial,1798779.0,1806046.0,7267.0,9,R,1805273,1805543,272,1331.0,658.3,3653,right
4,1,binary,9,2,trial,1798779.0,1806046.0,7267.0,9,R,1805563,1805693,132,1277.0,646.7,3657,right
4,1,binary,9,2,trial,1798779.0,1806046.0,7267.0,9,R,1805717,1805929,214,1255.2,538.9,3606,right
4,1,binary,9,2,trial,1798779.0,1806046.0,7267.0,9,R,1805969,1806279,312,1503.7,505.9,3579,right
4,1,binary,10,2,fixationCross,1807129.0,1812879.0,5750.0,10,R,1806477,1806813,338,718.5,493.7,3517,left
4,1,binary,10,2,trial,1807129.0,1812879.0,5750.0,10,R,1806851,1807179,330,923.0,554.4,3723,NA
4,1,binary,10,2,trial,1807129.0,1812879.0,5750.0,10,R,1807221,1807387,168,683.5,524.7,3743,left
4,1,binary,10,2,trial,1807129.0,1812879.0,5750.0,10,R,1807415,1807665,252,518.3,447.1,3577,left
4,1,binary,10,2,trial,1807129.0,1812879.0,5750.0,10,R,1807689,1807801,114,386.0,496.5,3266,left
4,1,binary,10,2,trial,1807129.0,1812879.0,5750.0,10,R,1807823,1808351,530,455.8,439.6,3050,left
4,1,binary,10,2,trial,1807129.0,1812879.0,5750.0,10,R,1808395,1808753,360,329.5,524.3,3021,left
4,1,binary,10,2,trial,1807129.0,1812879.0,5750.0,10,R,1808771,1808981,212,401.1,542.8,3219,left
4,1,binary,10,2,trial,1807129.0,1812879.0,5750.0,10,R,1809023,1809527,506,563.8,410.6,3315,left
4,1,binary,10,2,trial,1807129.0,1812879.0,5750.0,10,R,1809599,1809885,288,1395.8,541.5,3419,right
4,1,binary,10,2,trial,1807129.0,1812879.0,5750.0,10,R,1809897,1810831,936,1365.3,570.6,3106,right
4,1,binary,10,2,trial,1807129.0,1812879.0,5750.0,10,R,1810855,1811107,254,1472.1,601.3,3025,right
4,1,binary,10,2,trial,1807129.0,1812879.0,5750.0,10,R,1811131,1811625,496,1362.5,599.7,3202,right
4,1,binary,10,2,trial,1807129.0,1812879.0,5750.0,10,R,1811649,1811957,310,1415.8,521.7,3076,right
4,1,binary,10,2,trial,1807129.0,1812879.0,5750.0,10,R,1812001,1812255,256,1354.6,655.8,2943,right
4,1,binary,10,2,trial,1807129.0,1812879.0,5750.0,10,R,1812269,1812437,170,1387.9,679.3,2929,right
4,1,binary,10,2,trial,1807129.0,1812879.0,5750.0,10,R,1812465,1812589,126,1208.8,649.1,3045,right
4,1,binary,10,2,trial,1807129.0,1812879.0,5750.0,10,R,1812637,1813049,414,1378.0,494.0,3067,right
4,1,binary,11,2,fixationCross,1814029.0,1817413.0,3384.0,11,R,1813325,1813727,404,803.1,484.7,3185,NA
4,1,binary,11,2,trial,1814029.0,1817413.0,3384.0,11,R,1813763,1814041,280,930.5,531.7,3418,NA
4,1,binary,11,2,trial,1814029.0,1817413.0,3384.0,11,R,1814077,1814185,110,705.0,525.5,3479,left
4,1,binary,11,2,trial,1814029.0,1817413.0,3384.0,11,R,1814211,1814321,112,566.5,473.6,3503,left
4,1,binary,11,2,trial,1814029.0,1817413.0,3384.0,11,R,1814349,1814767,420,361.8,509.0,3451,left
4,1,binary,11,2,trial,1814029.0,1817413.0,3384.0,11,R,1814789,1815015,228,444.2,498.2,3270,left
4,1,binary,11,2,trial,1814029.0,1817413.0,3384.0,11,R,1815101,1815303,204,1380.8,483.9,3303,right
4,1,binary,11,2,trial,1814029.0,1817413.0,3384.0,11,R,1815325,1815533,210,1441.8,532.4,3284,right
4,1,binary,11,2,trial,1814029.0,1817413.0,3384.0,11,R,1815561,1816115,556,1282.3,574.9,3400,right
4,1,binary,11,2,trial,1814029.0,1817413.0,3384.0,11,R,1816145,1816445,302,1403.2,509.9,3462,right
4,1,binary,11,2,trial,1814029.0,1817413.0,3384.0,11,R,1816491,1816807,318,1321.2,590.2,3605,right
4,1,binary,11,2,trial,1814029.0,1817413.0,3384.0,11,R,1816837,1816949,114,1503.0,637.3,3617,right
4,1,binary,11,2,trial,1814029.0,1817413.0,3384.0,11,R,1816975,1817301,328,1474.0,553.1,3604,right
4,1,binary,11,2,trial,1814029.0,1817413.0,3384.0,11,R,1817313,1817581,270,1442.5,542.4,3559,right
4,1,binary,12,1,fixationCross,1818345.0,1823963.0,5618.0,12,R,1817853,1818009,158,1167.0,516.2,3506,NA
4,1,binary,12,1,fixationCross,1818345.0,1823963.0,5618.0,12,R,1818051,1818297,248,888.5,488.4,3509,NA
4,1,binary,12,1,trial,1818345.0,1823963.0,5618.0,12,R,1818319,1818475,158,965.3,522.0,3637,NA
4,1,binary,12,1,trial,1818345.0,1823963.0,5618.0,12,R,1818529,1818729,202,524.9,455.4,3657,left
4,1,binary,12,1,trial,1818345.0,1823963.0,5618.0,12,R,1818753,1819241,490,420.6,486.4,3233,left
4,1,binary,12,1,trial,1818345.0,1823963.0,5618.0,12,R,1819265,1819401,138,623.0,635.5,2930,left
4,1,binary,12,1,trial,1818345.0,1823963.0,5618.0,12,R,1819413,1820121,710,650.8,671.4,2793,left
4,1,binary,12,1,trial,1818345.0,1823963.0,5618.0,12,R,1820177,1820427,252,1387.6,548.9,2777,right
4,1,binary,12,1,trial,1818345.0,1823963.0,5618.0,12,R,1820441,1820953,514,1414.1,565.9,2734,right
4,1,binary,12,1,trial,1818345.0,1823963.0,5618.0,12,R,1820963,1821207,246,1394.2,564.9,2728,right
4,1,binary,12,1,trial,1818345.0,1823963.0,5618.0,12,R,1821245,1821463,220,1518.7,515.8,2760,right
4,1,binary,12,1,trial,1818345.0,1823963.0,5618.0,12,R,1821485,1821825,342,1434.4,473.4,2812,right
4,1,binary,12,1,trial,1818345.0,1823963.0,5618.0,12,R,1821847,1822111,266,1531.7,524.6,2841,right
4,1,binary,12,1,trial,1818345.0,1823963.0,5618.0,12,R,1822159,1822341,184,1647.1,510.8,2913,right
4,1,binary,12,1,trial,1818345.0,1823963.0,5618.0,12,R,1822391,1822499,110,1253.9,481.8,3002,right
4,1,binary,12,1,trial,1818345.0,1823963.0,5618.0,12,R,1822563,1822689,128,439.0,562.2,2898,left
4,1,binary,12,1,trial,1818345.0,1823963.0,5618.0,12,R,1822723,1823241,520,213.0,550.0,2805,NA
4,1,binary,12,1,trial,1818345.0,1823963.0,5618.0,12,R,1823275,1823469,196,411.7,588.6,2785,left
4,1,binary,12,1,trial,1818345.0,1823963.0,5618.0,12,R,1823493,1823865,374,383.7,498.5,2835,left
4,1,binary,12,1,trial,1818345.0,1823963.0,5618.0,12,R,1823895,1824173,280,228.1,548.0,2761,left
4,1,binary,13,2,fixationCross,1825146.0,1829230.0,4084.0,13,R,1824409,1824519,112,736.7,511.1,2971,left
4,1,binary,13,2,fixationCross,1825146.0,1829230.0,4084.0,13,R,1824709,1824835,128,807.3,508.1,3211,NA
4,1,binary,13,2,trial,1825146.0,1829230.0,4084.0,13,R,1824861,1825271,412,950.7,537.7,3304,NA
4,1,binary,13,2,trial,1825146.0,1829230.0,4084.0,13,R,1825319,1826133,816,392.0,495.2,2994,left
4,1,binary,13,2,trial,1825146.0,1829230.0,4084.0,13,R,1826161,1826537,378,576.7,411.1,2731,left
4,1,binary,13,2,trial,1825146.0,1829230.0,4084.0,13,R,1826557,1826719,164,507.4,439.0,2805,left
4,1,binary,13,2,trial,1825146.0,1829230.0,4084.0,13,R,1826759,1826921,164,415.5,532.9,2851,left
4,1,binary,13,2,trial,1825146.0,1829230.0,4084.0,13,R,1826937,1827049,114,464.2,495.8,2915,left
4,1,binary,13,2,trial,1825146.0,1829230.0,4084.0,13,R,1827125,1827243,120,1484.2,458.9,3012,right
4,1,binary,13,2,trial,1825146.0,1829230.0,4084.0,13,R,1827269,1827351,84,1551.3,445.6,3002,right
4,1,binary,13,2,trial,1825146.0,1829230.0,4084.0,13,R,1827387,1827573,188,1281.9,551.6,2998,right
4,1,binary,13,2,trial,1825146.0,1829230.0,4084.0,13,R,1827589,1828981,1394,1321.6,549.3,3176,right
4,1,binary,13,2,trial,1825146.0,1829230.0,4084.0,13,R,1828989,1829417,430,1322.6,532.7,3410,right
4,1,binary,14,2,fixationCross,1830279.0,1833813.0,3534.0,14,R,1829639,1829967,330,1264.1,511.4,3402,right
4,1,binary,14,2,fixationCross,1830279.0,1833813.0,3534.0,14,R,1830005,1830231,228,981.2,540.5,3425,NA
4,1,binary,14,2,trial,1830279.0,1833813.0,3534.0,14,R,1830241,1830427,188,957.3,536.9,3497,NA
4,1,binary,14,2,trial,1830279.0,1833813.0,3534.0,14,R,1830483,1830565,84,465.6,486.6,3485,left
4,1,binary,14,2,trial,1830279.0,1833813.0,3534.0,14,R,1830585,1830647,64,430.2,471.0,3489,left
4,1,binary,14,2,trial,1830279.0,1833813.0,3534.0,14,R,1830667,1830691,26,427.1,473.3,3478,left
4,1,binary,14,2,trial,1830279.0,1833813.0,3534.0,14,R,1830701,1830743,44,452.8,489.1,3464,left
4,1,binary,14,2,trial,1830279.0,1833813.0,3534.0,14,R,1830765,1830903,140,476.9,553.9,3447,left
4,1,binary,14,2,trial,1830279.0,1833813.0,3534.0,14,R,1830981,1831181,202,1414.2,507.7,3572,right
4,1,binary,14,2,trial,1830279.0,1833813.0,3534.0,14,R,1831207,1831451,246,1532.7,604.2,3514,right
4,1,binary,14,2,trial,1830279.0,1833813.0,3534.0,14,R,1831477,1831717,242,1354.0,589.8,3473,right
4,1,binary,14,2,trial,1830279.0,1833813.0,3534.0,14,R,1831745,1832107,364,1520.8,571.6,3416,right
4,1,binary,14,2,trial,1830279.0,1833813.0,3534.0,14,R,1832135,1832343,210,1572.5,635.3,3351,right
4,1,binary,14,2,trial,1830279.0,1833813.0,3534.0,14,R,1832355,1832453,100,1586.2,665.6,3328,right
4,1,binary,14,2,trial,1830279.0,1833813.0,3534.0,14,R,1832525,1832805,282,426.3,548.4,3204,left
4,1,binary,14,2,trial,1830279.0,1833813.0,3534.0,14,R,1832831,1833263,434,404.0,484.7,3103,left
4,1,binary,14,2,trial,1830279.0,1833813.0,3534.0,14,R,1833333,1833539,208,1292.1,490.4,3159,right
4,1,binary,14,2,trial,1830279.0,1833813.0,3534.0,14,R,1833563,1833701,140,1405.0,460.6,3189,right
4,1,binary,14,2,trial,1830279.0,1833813.0,3534.0,14,R,1833781,1834013,234,1400.6,969.2,3318,NA
4,1,binary,14,2,postResponse,1830279.0,1833813.0,3534.0,14,R,1834083,1834147,66,1071.3,467.8,3367,NA
4,1,binary,15,1,fixationCross,1835029.0,1840297.0,5268.0,15,R,1834247,1834445,200,1076.7,455.6,3314,NA
4,1,binary,15,1,fixationCross,1835029.0,1840297.0,5268.0,15,R,1834579,1834729,152,807.2,489.0,3417,NA
4,1,binary,15,1,trial,1835029.0,1840297.0,5268.0,15,R,1834767,1835141,376,953.7,521.1,3576,NA
4,1,binary,15,1,trial,1835029.0,1840297.0,5268.0,15,R,1835189,1835369,182,490.7,476.2,3585,left
4,1,binary,15,1,trial,1835029.0,1840297.0,5268.0,15,R,1835389,1835555,168,466.5,434.5,3455,left
4,1,binary,15,1,trial,1835029.0,1840297.0,5268.0,15,R,1835575,1836039,466,487.2,413.6,3163,left
4,1,binary,15,1,trial,1835029.0,1840297.0,5268.0,15,R,1836105,1836279,176,1318.6,551.7,3107,right
4,1,binary,15,1,trial,1835029.0,1840297.0,5268.0,15,R,1836305,1836437,134,1476.8,587.7,3072,right
4,1,binary,15,1,trial,1835029.0,1840297.0,5268.0,15,R,1836459,1837059,602,1384.4,515.0,2891,right
4,1,binary,15,1,trial,1835029.0,1840297.0,5268.0,15,R,1837089,1837289,202,1503.4,620.4,2730,right
4,1,binary,15,1,trial,1835029.0,1840297.0,5268.0,15,R,1837319,1837749,432,1244.8,608.0,2845,right
4,1,binary,15,1,trial,1835029.0,1840297.0,5268.0,15,R,1837811,1838103,294,1595.9,639.6,3042,right
4,1,binary,15,1,trial,1835029.0,1840297.0,5268.0,15,R,1838145,1838313,170,1423.6,482.2,3043,right
4,1,binary,15,1,trial,1835029.0,1840297.0,5268.0,15,R,1838333,1838551,220,1390.4,508.5,3073,right
4,1,binary,15,1,trial,1835029.0,1840297.0,5268.0,15,R,1838633,1838711,80,395.3,525.2,3042,left
4,1,binary,15,1,trial,1835029.0,1840297.0,5268.0,15,R,1838739,1838911,174,356.6,515.4,3051,left
4,1,binary,15,1,trial,1835029.0,1840297.0,5268.0,15,R,1838933,1839115,184,447.3,452.7,3082,left
4,1,binary,15,1,trial,1835029.0,1840297.0,5268.0,15,R,1839141,1839343,204,330.3,522.2,3048,left
4,1,binary,15,1,trial,1835029.0,1840297.0,5268.0,15,R,1839355,1840095,742,307.1,531.3,3185,left
4,1,binary,15,1,trial,1835029.0,1840297.0,5268.0,15,R,1840133,1840473,342,519.6,427.1,3261,left
4,1,binary,16,2,fixationCross,1841346.0,1847180.0,5834.0,16,R,1840705,1841033,330,698.9,529.3,3342,left
4,1,binary,16,2,trial,1841346.0,1847180.0,5834.0,16,R,1841063,1841477,416,936.8,538.6,3489,NA
4,1,binary,16,2,trial,1841346.0,1847180.0,5834.0,16,R,1841529,1841667,140,502.7,459.9,3472,left
4,1,binary,16,2,trial,1841346.0,1847180.0,5834.0,16,R,1841751,1841983,234,1461.4,518.8,3309,right
4,1,binary,16,2,trial,1841346.0,1847180.0,5834.0,16,R,1842003,1842221,220,1437.5,492.0,3086,right
4,1,binary,16,2,trial,1841346.0,1847180.0,5834.0,16,R,1842237,1842495,260,1409.7,481.6,3034,right
4,1,binary,16,2,trial,1841346.0,1847180.0,5834.0,16,R,1842515,1842809,296,1501.6,493.3,3130,right
4,1,binary,16,2,trial,1841346.0,1847180.0,5834.0,16,R,1842835,1842885,52,1441.7,550.0,3261,right
4,1,binary,16,2,trial,1841346.0,1847180.0,5834.0,16,R,1842915,1843085,172,1448.4,551.5,3340,right
4,1,binary,16,2,trial,1841346.0,1847180.0,5834.0,16,R,1843133,1843331,200,1631.2,512.7,3424,right
4,1,binary,16,2,trial,1841346.0,1847180.0,5834.0,16,R,1843355,1843505,152,1568.7,407.0,3502,right
4,1,binary,16,2,trial,1841346.0,1847180.0,5834.0,16,R,1843589,1844013,426,499.7,473.1,3453,left
4,1,binary,16,2,trial,1841346.0,1847180.0,5834.0,16,R,1844041,1844349,310,350.7,517.9,3169,left
4,1,binary,16,2,trial,1841346.0,1847180.0,5834.0,16,R,1844369,1844647,280,422.1,531.2,3056,left
4,1,binary,16,2,trial,1841346.0,1847180.0,5834.0,16,R,1844715,1845001,288,1410.2,507.1,3019,right
4,1,binary,16,2,trial,1841346.0,1847180.0,5834.0,16,R,1845025,1845217,194,1403.2,581.5,3003,right
4,1,binary,16,2,trial,1841346.0,1847180.0,5834.0,16,R,1845289,1845373,86,556.3,553.0,3088,left
4,1,binary,16,2,trial,1841346.0,1847180.0,5834.0,16,R,1845381,1845581,202,539.4,547.1,3165,left
4,1,binary,16,2,trial,1841346.0,1847180.0,5834.0,16,R,1845609,1846117,510,572.2,389.7,3029,left
4,1,binary,16,2,trial,1841346.0,1847180.0,5834.0,16,R,1846151,1846317,168,414.6,478.8,2959,left
4,1,binary,16,2,trial,1841346.0,1847180.0,5834.0,16,R,1846339,1846645,308,558.1,416.7,3133,left
4,1,binary,16,2,trial,1841346.0,1847180.0,5834.0,16,R,1846743,1846805,64,1408.1,628.3,3310,right
4,1,binary,16,2,trial,1841346.0,1847180.0,5834.0,16,R,1846865,1847105,242,1405.8,632.8,3325,right
4,1,binary,16,2,trial,1841346.0,1847180.0,5834.0,16,R,1847135,1847377,244,1461.4,481.5,3406,right
4,1,binary,17,1,fixationCross,1848246.0,1854213.0,5967.0,17,R,1847599,1847919,322,1270.3,482.8,3582,right
4,1,binary,17,1,trial,1848246.0,1854213.0,5967.0,17,R,1847957,1848371,416,977.5,530.3,3706,NA
4,1,binary,17,1,trial,1848246.0,1854213.0,5967.0,17,R,1848425,1848615,192,519.3,459.8,3629,left
4,1,binary,17,1,trial,1848246.0,1854213.0,5967.0,17,R,1848631,1848901,272,475.7,498.8,3279,left
4,1,binary,17,1,trial,1848246.0,1854213.0,5967.0,17,R,1848917,1849353,438,437.6,457.4,2933,left
4,1,binary,17,1,trial,1848246.0,1854213.0,5967.0,17,R,1849533,1849789,258,480.0,479.3,3034,left
4,1,binary,17,1,trial,1848246.0,1854213.0,5967.0,17,R,1849813,1850017,206,581.1,421.0,3175,left
4,1,binary,17,1,trial,1848246.0,1854213.0,5967.0,17,R,1850039,1850395,358,638.9,369.9,3219,left
4,1,binary,17,1,trial,1848246.0,1854213.0,5967.0,17,R,1850427,1850665,240,484.7,485.3,3220,left
4,1,binary,17,1,trial,1848246.0,1854213.0,5967.0,17,R,1850677,1850959,284,512.4,510.3,3328,left
4,1,binary,17,1,trial,1848246.0,1854213.0,5967.0,17,R,1850967,1851253,288,524.9,518.0,3328,left
4,1,binary,17,1,trial,1848246.0,1854213.0,5967.0,17,R,1851279,1851437,160,377.8,501.9,3283,left
4,1,binary,17,1,trial,1848246.0,1854213.0,5967.0,17,R,1851457,1851677,222,483.6,503.3,3343,left
4,1,binary,17,1,trial,1848246.0,1854213.0,5967.0,17,R,1851751,1851913,164,1351.6,417.5,3518,right
4,1,binary,17,1,trial,1848246.0,1854213.0,5967.0,17,R,1851925,1853077,1154,1350.8,458.8,3492,right
4,1,binary,17,1,trial,1848246.0,1854213.0,5967.0,17,R,1853143,1853703,562,459.5,494.6,3448,left
4,1,binary,17,1,trial,1848246.0,1854213.0,5967.0,17,R,1853717,1853787,72,493.9,524.6,3347,left
4,1,binary,17,1,trial,1848246.0,1854213.0,5967.0,17,R,1853795,1854059,266,488.9,522.3,3300,left
4,1,binary,17,1,trial,1848246.0,1854213.0,5967.0,17,R,1854067,1854105,40,506.7,529.1,3284,left
4,1,binary,17,1,trial,1848246.0,1854213.0,5967.0,17,R,1854113,1854397,286,496.0,521.7,3285,left
4,1,binary,18,2,fixationCross,1855263.0,1860046.0,4783.0,18,R,1854621,1854825,206,872.1,502.1,3271,NA
4,1,binary,18,2,fixationCross,1855263.0,1860046.0,4783.0,18,R,1854855,1855017,164,1121.6,470.6,3465,NA
4,1,binary,18,2,trial,1855263.0,1860046.0,4783.0,18,R,1855045,1855421,378,997.2,501.5,3597,NA
4,1,binary,18,2,trial,1855263.0,1860046.0,4783.0,18,R,1855477,1855739,264,486.3,496.8,3556,left
4,1,binary,18,2,trial,1855263.0,1860046.0,4783.0,18,R,1855861,1856101,242,1377.9,470.2,3236,right
4,1,binary,18,2,trial,1855263.0,1860046.0,4783.0,18,R,1856197,1856371,176,1344.4,615.4,3067,right
4,1,binary,18,2,trial,1855263.0,1860046.0,4783.0,18,R,1856413,1856641,230,1425.8,424.2,3023,right
4,1,binary,18,2,trial,1855263.0,1860046.0,4783.0,18,R,1856663,1856939,278,1534.1,362.3,3013,right
4,1,binary,18,2,trial,1855263.0,1860046.0,4783.0,18,R,1856955,1857207,254,1587.9,360.4,3008,right
4,1,binary,18,2,trial,1855263.0,1860046.0,4783.0,18,R,1857261,1857441,182,1336.7,666.4,3080,right
4,1,binary,18,2,trial,1855263.0,1860046.0,4783.0,18,R,1857451,1857667,218,1355.0,650.9,3169,right
4,1,binary,18,2,trial,1855263.0,1860046.0,4783.0,18,R,1857837,1858981,1146,463.4,505.8,3101,left
4,1,binary,18,2,trial,1855263.0,1860046.0,4783.0,18,R,1859045,1859869,826,1290.1,493.2,3311,right
4,1,binary,18,2,trial,1855263.0,1860046.0,4783.0,18,R,1859949,1860269,322,447.5,510.4,3350,left
4,1,binary,19,1,fixationCross,1861213.0,1867380.0,6167.0,19,R,1860479,1860891,414,795.6,498.5,3397,NA
4,1,binary,19,1,trial,1861213.0,1867380.0,6167.0,19,R,1860925,1861347,424,940.0,530.8,3524,NA
4,1,binary,19,1,trial,1861213.0,1867380.0,6167.0,19,R,1861387,1862407,1022,661.9,523.2,3322,left
4,1,binary,19,1,trial,1861213.0,1867380.0,6167.0,19,R,1862471,1862699,230,1348.7,521.9,3276,right
4,1,binary,19,1,trial,1861213.0,1867380.0,6167.0,19,R,1862717,1863491,776,1368.0,515.0,3263,right
4,1,binary,19,1,trial,1861213.0,1867380.0,6167.0,19,R,1863521,1863983,464,1590.5,489.5,3350,right
4,1,binary,19,1,trial,1861213.0,1867380.0,6167.0,19,R,1864085,1864207,124,1351.7,607.5,3488,right
4,1,binary,19,1,trial,1861213.0,1867380.0,6167.0,19,R,1864227,1864749,524,1357.4,590.0,3428,right
4,1,binary,19,1,trial,1861213.0,1867380.0,6167.0,19,R,1864791,1864885,96,1211.1,630.9,3301,right
4,1,binary,19,1,trial,1861213.0,1867380.0,6167.0,19,R,1864937,1865135,200,656.0,541.4,3239,left
4,1,binary,19,1,trial,1861213.0,1867380.0,6167.0,19,R,1865163,1865697,536,558.7,613.6,3183,left
4,1,binary,19,1,trial,1861213.0,1867380.0,6167.0,19,R,1865721,1865795,76,501.2,660.5,3203,left
4,1,binary,19,1,trial,1861213.0,1867380.0,6167.0,19,R,1865823,1866055,234,418.6,475.7,3246,left
4,1,binary,19,1,trial,1861213.0,1867380.0,6167.0,19,R,1866087,1866209,124,750.8,518.0,3398,NA
4,1,binary,19,1,trial,1861213.0,1867380.0,6167.0,19,R,1866273,1866607,336,1381.8,518.5,3488,right
4,1,binary,19,1,trial,1861213.0,1867380.0,6167.0,19,R,1866625,1866785,162,1340.3,505.0,3579,right
4,1,binary,19,1,trial,1861213.0,1867380.0,6167.0,19,R,1866835,1867329,496,720.7,524.9,3610,left
4,1,binary,19,1,trial,1861213.0,1867380.0,6167.0,19,R,1867361,1867593,234,545.6,495.6,3554,left
4,1,binary,20,1,fixationCross,1868429.0,1875546.0,7117.0,20,R,1867789,1867977,190,897.9,503.0,3706,NA
4,1,binary,20,1,fixationCross,1868429.0,1875546.0,7117.0,20,R,1868005,1868193,190,1045.5,470.4,3779,NA
4,1,binary,20,1,trial,1868429.0,1875546.0,7117.0,20,R,1868221,1868429,210,933.9,513.3,3802,NA
4,1,binary,20,1,trial,1868429.0,1875546.0,7117.0,20,R,1868441,1868581,142,950.2,527.9,3849,NA
4,1,binary,20,1,trial,1868429.0,1875546.0,7117.0,20,R,1868633,1868661,30,545.2,515.4,3801,left
4,1,binary,20,1,trial,1868429.0,1875546.0,7117.0,20,R,1868687,1868795,110,545.4,518.6,3755,left
4,1,binary,20,1,trial,1868429.0,1875546.0,7117.0,20,R,1868839,1869133,296,407.1,572.2,3352,left
4,1,binary,20,1,trial,1868429.0,1875546.0,7117.0,20,R,1869189,1869401,214,304.9,540.1,2989,left
4,1,binary,20,1,trial,1868429.0,1875546.0,7117.0,20,R,1869429,1869641,214,552.0,596.3,2896,left
4,1,binary,20,1,trial,1868429.0,1875546.0,7117.0,20,R,1869659,1869731,74,635.5,581.0,2867,left
4,1,binary,20,1,trial,1868429.0,1875546.0,7117.0,20,R,1869787,1869951,166,1330.8,457.2,2913,right
4,1,binary,20,1,trial,1868429.0,1875546.0,7117.0,20,R,1869975,1870199,226,1425.0,432.4,2866,right
4,1,binary,20,1,trial,1868429.0,1875546.0,7117.0,20,R,1870223,1870457,236,1587.3,482.5,2826,right
4,1,binary,20,1,trial,1868429.0,1875546.0,7117.0,20,R,1870477,1870711,236,1561.3,547.7,2835,right
4,1,binary,20,1,trial,1868429.0,1875546.0,7117.0,20,R,1870737,1871017,282,1431.3,433.7,2862,right
4,1,binary,20,1,trial,1868429.0,1875546.0,7117.0,20,R,1871037,1871165,130,1417.2,411.2,2883,right
4,1,binary,20,1,trial,1868429.0,1875546.0,7117.0,20,R,1871209,1871425,218,1327.1,595.3,2946,right
4,1,binary,20,1,trial,1868429.0,1875546.0,7117.0,20,R,1871449,1871721,274,1259.7,578.1,3052,right
4,1,binary,20,1,trial,1868429.0,1875546.0,7117.0,20,R,1871757,1872169,414,1612.8,527.3,3024,right
4,1,binary,20,1,trial,1868429.0,1875546.0,7117.0,20,R,1872195,1872469,276,1410.0,434.1,2922,right
4,1,binary,20,1,trial,1868429.0,1875546.0,7117.0,20,R,1872491,1872781,292,1465.2,440.2,2942,right
4,1,binary,20,1,trial,1868429.0,1875546.0,7117.0,20,R,1872857,1873143,288,435.3,504.6,2986,left
4,1,binary,20,1,trial,1868429.0,1875546.0,7117.0,20,R,1873169,1873715,548,376.3,502.8,2768,left
4,1,binary,20,1,trial,1868429.0,1875546.0,7117.0,20,R,1873803,1874457,656,438.5,460.9,2956,left
4,1,binary,20,1,trial,1868429.0,1875546.0,7117.0,20,R,1874485,1874945,462,369.6,504.4,3158,left
4,1,binary,20,1,trial,1868429.0,1875546.0,7117.0,20,R,1874963,1875145,184,318.5,548.0,3143,left
4,1,binary,20,1,trial,1868429.0,1875546.0,7117.0,20,R,1875167,1875329,164,246.6,545.8,3130,left
4,1,binary,20,1,trial,1868429.0,1875546.0,7117.0,20,R,1875355,1875737,384,428.2,466.1,3205,left
4,1,binary,21,2,fixationCross,1876497.0,1883030.0,6533.0,21,R,1875953,1876205,254,1126.3,461.9,3480,NA
4,1,binary,21,2,fixationCross,1876497.0,1883030.0,6533.0,21,R,1876227,1876473,248,977.4,471.1,3541,NA
4,1,binary,21,2,trial,1876497.0,1883030.0,6533.0,21,R,1876491,1876649,160,982.2,511.0,3637,NA
4,1,binary,21,2,trial,1876497.0,1883030.0,6533.0,21,R,1876699,1877241,544,501.6,465.4,3489,left
4,1,binary,21,2,trial,1876497.0,1883030.0,6533.0,21,R,1877311,1877459,150,1367.3,487.2,3284,right
4,1,binary,21,2,trial,1876497.0,1883030.0,6533.0,21,R,1877477,1877593,118,1387.0,522.8,3191,right
4,1,binary,21,2,trial,1876497.0,1883030.0,6533.0,21,R,1877623,1877779,158,1395.3,384.9,3087,right
4,1,binary,21,2,trial,1876497.0,1883030.0,6533.0,21,R,1877793,1878241,450,1435.3,400.1,3037,right
4,1,binary,21,2,trial,1876497.0,1883030.0,6533.0,21,R,1878277,1878491,216,1445.7,525.6,3093,right
4,1,binary,21,2,trial,1876497.0,1883030.0,6533.0,21,R,1878517,1878883,368,1371.8,538.8,3196,right
4,1,binary,21,2,trial,1876497.0,1883030.0,6533.0,21,R,1878911,1879193,284,1353.8,397.8,3253,right
4,1,binary,21,2,trial,1876497.0,1883030.0,6533.0,21,R,1879247,1879465,220,1615.6,383.0,3338,right
4,1,binary,21,2,trial,1876497.0,1883030.0,6533.0,21,R,1879513,1879797,286,1760.8,486.1,3383,NA
4,1,binary,21,2,trial,1876497.0,1883030.0,6533.0,21,R,1879853,1880263,412,1234.5,489.9,3450,right
4,1,binary,21,2,trial,1876497.0,1883030.0,6533.0,21,R,1880285,1880803,520,1205.5,500.4,3426,right
4,1,binary,21,2,trial,1876497.0,1883030.0,6533.0,21,R,1880825,1881437,614,1196.6,471.0,3247,right
4,1,binary,21,2,trial,1876497.0,1883030.0,6533.0,21,R,1881495,1881753,260,560.6,497.4,3268,left
4,1,binary,21,2,trial,1876497.0,1883030.0,6533.0,21,R,1881771,1881817,48,502.0,461.6,3312,left
4,1,binary,21,2,trial,1876497.0,1883030.0,6533.0,21,R,1881881,1882149,270,1227.2,457.0,3445,right
4,1,binary,21,2,trial,1876497.0,1883030.0,6533.0,21,R,1882171,1883197,1028,1202.3,485.0,3407,right
4,1,binary,22,2,fixationCross,1884180.0,1888263.0,4083.0,22,R,1883503,1883539,38,1093.5,486.8,3252,NA
4,1,binary,22,2,fixationCross,1884180.0,1888263.0,4083.0,22,R,1883605,1883711,108,1105.2,476.2,3334,NA
4,1,binary,22,2,fixationCross,1884180.0,1888263.0,4083.0,22,R,1883761,1883921,162,687.2,526.4,3417,left
4,1,binary,22,2,trial,1884180.0,1888263.0,4083.0,22,R,1883949,1884227,280,871.4,521.1,3543,NA
4,1,binary,22,2,trial,1884180.0,1888263.0,4083.0,22,R,1884271,1884505,236,576.3,475.3,3572,left
4,1,binary,22,2,trial,1884180.0,1888263.0,4083.0,22,R,1884691,1885157,468,1401.3,497.7,3314,right
4,1,binary,22,2,trial,1884180.0,1888263.0,4083.0,22,R,1885177,1885417,242,1336.5,470.6,3183,right
4,1,binary,22,2,trial,1884180.0,1888263.0,4083.0,22,R,1885429,1885733,306,1290.3,461.8,3133,right
4,1,binary,22,2,trial,1884180.0,1888263.0,4083.0,22,R,1886331,1886435,106,1415.7,497.9,3157,right
4,1,binary,22,2,trial,1884180.0,1888263.0,4083.0,22,R,1886505,1886719,216,454.8,541.8,3100,left
4,1,binary,22,2,trial,1884180.0,1888263.0,4083.0,22,R,1886745,1886963,220,535.2,647.0,3060,left
4,1,binary,22,2,trial,1884180.0,1888263.0,4083.0,22,R,1886983,1887187,206,601.6,669.5,2933,left
4,1,binary,22,2,trial,1884180.0,1888263.0,4083.0,22,R,1887231,1887439,210,498.5,398.8,2757,left
4,1,binary,22,2,trial,1884180.0,1888263.0,4083.0,22,R,1887531,1887555,26,1295.4,877.5,2823,NA
4,1,binary,22,2,trial,1884180.0,1888263.0,4083.0,22,R,1887701,1887843,144,1439.1,1008.1,2873,NA
4,1,binary,22,2,trial,1884180.0,1888263.0,4083.0,22,R,1888045,1888067,24,1377.5,444.1,3142,right
4,1,binary,22,2,trial,1884180.0,1888263.0,4083.0,22,R,1888289,1888537,250,1333.2,470.4,3379,right
4,1,binary,23,1,fixationCross,1889363.0,1894130.0,4767.0,23,R,1888701,1888799,100,825.2,496.1,3489,NA
4,1,binary,23,1,fixationCross,1889363.0,1894130.0,4767.0,23,R,1888835,1888957,124,605.5,424.1,3473,left
4,1,binary,23,1,fixationCross,1889363.0,1894130.0,4767.0,23,R,1889089,1889227,140,914.6,520.7,3568,NA
4,1,binary,23,1,trial,1889363.0,1894130.0,4767.0,23,R,1889249,1889493,246,956.9,522.6,3552,NA
4,1,binary,23,1,trial,1889363.0,1894130.0,4767.0,23,R,1889539,1889777,240,471.7,484.6,3501,left
4,1,binary,23,1,trial,1889363.0,1894130.0,4767.0,23,R,1889795,1890007,214,441.3,458.5,3291,left
4,1,binary,23,1,trial,1889363.0,1894130.0,4767.0,23,R,1890027,1890407,382,509.3,442.6,3075,left
4,1,binary,23,1,trial,1889363.0,1894130.0,4767.0,23,R,1890477,1890747,272,1335.6,467.8,3036,right
4,1,binary,23,1,trial,1889363.0,1894130.0,4767.0,23,R,1890771,1890821,52,1445.6,472.4,3075,right
4,1,binary,23,1,trial,1889363.0,1894130.0,4767.0,23,R,1890849,1891067,220,1453.6,425.4,3098,right
4,1,binary,23,1,trial,1889363.0,1894130.0,4767.0,23,R,1891105,1891179,76,1438.2,542.8,3093,right
4,1,binary,23,1,trial,1889363.0,1894130.0,4767.0,23,R,1891291,1891549,260,411.7,524.5,3081,left
4,1,binary,23,1,trial,1889363.0,1894130.0,4767.0,23,R,1891569,1891989,422,475.0,493.1,3092,left
4,1,binary,23,1,trial,1889363.0,1894130.0,4767.0,23,R,1892027,1892419,394,453.2,604.6,3080,left
4,1,binary,23,1,trial,1889363.0,1894130.0,4767.0,23,R,1892445,1892671,228,291.0,579.2,3186,left
4,1,binary,23,1,trial,1889363.0,1894130.0,4767.0,23,R,1892697,1893081,386,302.9,537.8,3139,left
4,1,binary,23,1,trial,1889363.0,1894130.0,4767.0,23,R,1893103,1893809,708,388.7,498.5,3062,left
4,1,binary,23,1,trial,1889363.0,1894130.0,4767.0,23,R,1893851,1894377,528,677.9,418.9,3230,left
4,1,binary,24,1,fixationCross,1895230.0,1900913.0,5683.0,24,R,1894577,1894921,346,1171.5,433.4,3404,NA
4,1,binary,24,1,fixationCross,1895230.0,1900913.0,5683.0,24,R,1894947,1895195,250,1025.0,506.3,3470,NA
4,1,binary,24,1,trial,1895230.0,1900913.0,5683.0,24,R,1895217,1895373,158,955.4,518.5,3530,NA
4,1,binary,24,1,trial,1895230.0,1900913.0,5683.0,24,R,1895429,1895689,262,507.9,478.7,3464,left
4,1,binary,24,1,trial,1895230.0,1900913.0,5683.0,24,R,1895773,1896009,238,1412.8,531.3,3257,right
4,1,binary,24,1,trial,1895230.0,1900913.0,5683.0,24,R,1896017,1896303,288,1397.4,509.1,3105,right
4,1,binary,24,1,trial,1895230.0,1900913.0,5683.0,24,R,1896317,1896487,172,1445.7,514.6,3098,right
4,1,binary,24,1,trial,1895230.0,1900913.0,5683.0,24,R,1896509,1897033,526,1412.8,571.2,3214,right
4,1,binary,24,1,trial,1895230.0,1900913.0,5683.0,24,R,1897101,1897333,234,510.3,512.6,3340,left
4,1,binary,24,1,trial,1895230.0,1900913.0,5683.0,24,R,1897347,1897665,320,478.3,480.0,3240,left
4,1,binary,24,1,trial,1895230.0,1900913.0,5683.0,24,R,1897685,1897911,228,381.6,499.1,3008,left
4,1,binary,24,1,trial,1895230.0,1900913.0,5683.0,24,R,1897941,1898201,262,613.0,519.6,2960,left
4,1,binary,24,1,trial,1895230.0,1900913.0,5683.0,24,R,1898263,1898573,312,1401.2,485.8,3009,right
4,1,binary,24,1,trial,1895230.0,1900913.0,5683.0,24,R,1898601,1898965,366,1615.0,392.0,3098,right
4,1,binary,24,1,trial,1895230.0,1900913.0,5683.0,24,R,1898989,1899097,110,1668.3,443.8,3231,right
4,1,binary,24,1,trial,1895230.0,1900913.0,5683.0,24,R,1899141,1899269,130,1421.6,483.6,3328,right
4,1,binary,24,1,trial,1895230.0,1900913.0,5683.0,24,R,1899333,1899643,312,470.1,495.2,3304,left
4,1,binary,24,1,trial,1895230.0,1900913.0,5683.0,24,R,1899667,1899717,52,637.3,543.2,3268,left
4,1,binary,24,1,trial,1895230.0,1900913.0,5683.0,24,R,1899749,1899931,184,307.7,532.6,3062,left
4,1,binary,24,1,trial,1895230.0,1900913.0,5683.0,24,R,1899947,1900097,152,268.3,547.6,2968,left
4,1,binary,24,1,trial,1895230.0,1900913.0,5683.0,24,R,1900121,1900381,262,355.7,511.3,2934,left
4,1,binary,24,1,trial,1895230.0,1900913.0,5683.0,24,R,1900415,1900837,424,613.3,505.8,2896,left
4,1,binary,24,1,trial,1895230.0,1900913.0,5683.0,24,R,1900857,1901107,252,603.6,563.9,2926,left
4,1,binary,25,2,fixationCross,1901830.0,1908980.0,7150.0,25,R,1901347,1901491,146,725.6,519.5,3089,left
4,1,binary,25,2,fixationCross,1901830.0,1908980.0,7150.0,25,R,1901517,1901761,246,975.9,507.1,3206,NA
4,1,binary,25,2,trial,1901830.0,1908980.0,7150.0,25,R,1901785,1901973,190,939.0,528.8,3353,NA
4,1,binary,25,2,trial,1901830.0,1908980.0,7150.0,25,R,1902013,1902185,174,662.4,513.1,3405,left
4,1,binary,25,2,trial,1901830.0,1908980.0,7150.0,25,R,1902219,1903159,942,374.3,503.1,2855,left
4,1,binary,25,2,trial,1901830.0,1908980.0,7150.0,25,R,1903187,1903587,402,274.9,547.1,2784,left
4,1,binary,25,2,trial,1901830.0,1908980.0,7150.0,25,R,1903613,1903883,272,601.6,563.2,2930,left
4,1,binary,25,2,trial,1901830.0,1908980.0,7150.0,25,R,1903901,1904043,144,633.6,516.1,2909,left
4,1,binary,25,2,trial,1901830.0,1908980.0,7150.0,25,R,1904073,1904683,612,607.9,368.9,2958,left
4,1,binary,25,2,trial,1901830.0,1908980.0,7150.0,25,R,1904831,1905583,754,435.5,460.6,3126,left
4,1,binary,25,2,trial,1901830.0,1908980.0,7150.0,25,R,1905629,1905879,252,245.1,559.0,3109,left
4,1,binary,25,2,trial,1901830.0,1908980.0,7150.0,25,R,1905955,1906141,188,1321.3,460.3,3243,right
4,1,binary,25,2,trial,1901830.0,1908980.0,7150.0,25,R,1906165,1906319,156,1401.4,554.9,3138,right
4,1,binary,25,2,trial,1901830.0,1908980.0,7150.0,25,R,1906345,1906579,236,1555.7,601.9,3171,right
4,1,binary,25,2,trial,1901830.0,1908980.0,7150.0,25,R,1906599,1906841,244,1611.6,607.3,3245,right
4,1,binary,25,2,trial,1901830.0,1908980.0,7150.0,25,R,1906855,1907069,216,1614.8,583.4,3208,right
4,1,binary,25,2,trial,1901830.0,1908980.0,7150.0,25,R,1907097,1907617,522,1404.7,552.0,3228,right
4,1,binary,25,2,trial,1901830.0,1908980.0,7150.0,25,R,1907639,1907845,208,1527.2,612.7,3422,right
4,1,binary,25,2,trial,1901830.0,1908980.0,7150.0,25,R,1907991,1908019,30,1589.1,628.4,3491,right
4,1,binary,25,2,trial,1901830.0,1908980.0,7150.0,25,R,1908043,1908305,264,1494.5,554.1,3496,right
4,1,binary,25,2,trial,1901830.0,1908980.0,7150.0,25,R,1908329,1908491,164,1565.7,623.7,3435,right
4,1,binary,25,2,trial,1901830.0,1908980.0,7150.0,25,R,1908511,1908841,332,1635.0,636.1,3411,right
4,1,binary,25,2,trial,1901830.0,1908980.0,7150.0,25,R,1908857,1909011,156,1630.7,626.8,3378,right
4,1,binary,25,2,trial,1901830.0,1908980.0,7150.0,25,R,1909033,1909167,136,1632.2,607.5,3314,right
4,1,binary,26,2,fixationCross,1967514.0,1972448.0,4934.0,26,R,1966922,1966944,24,830.1,-254.4,3751,NA
4,1,binary,26,2,fixationCross,1967514.0,1972448.0,4934.0,26,R,1966962,1966984,24,840.6,-236.9,3767,NA
4,1,binary,26,2,fixationCross,1967514.0,1972448.0,4934.0,26,R,1967004,1967036,34,823.3,-278.3,3789,NA
4,1,binary,26,2,fixationCross,1967514.0,1972448.0,4934.0,26,R,1967254,1967348,96,1039.0,555.7,3991,NA
4,1,binary,26,2,trial,1967514.0,1972448.0,4934.0,26,R,1967372,1967658,288,939.4,535.0,4001,NA
4,1,binary,26,2,trial,1967514.0,1972448.0,4934.0,26,R,1967758,1967822,66,511.6,416.3,3991,left
4,1,binary,26,2,trial,1967514.0,1972448.0,4934.0,26,R,1967838,1967874,38,526.6,437.2,3956,left
4,1,binary,26,2,trial,1967514.0,1972448.0,4934.0,26,R,1967894,1968192,300,491.3,407.7,3668,left
4,1,binary,26,2,trial,1967514.0,1972448.0,4934.0,26,R,1968282,1968450,170,1371.8,528.3,3404,right
4,1,binary,26,2,trial,1967514.0,1972448.0,4934.0,26,R,1968468,1968658,192,1396.4,580.7,3305,right
4,1,binary,26,2,trial,1967514.0,1972448.0,4934.0,26,R,1968678,1968968,292,1441.5,629.1,3257,right
4,1,binary,26,2,trial,1967514.0,1972448.0,4934.0,26,R,1968998,1969134,138,1477.0,464.5,3290,right
4,1,binary,26,2,trial,1967514.0,1972448.0,4934.0,26,R,1969184,1969372,190,1184.7,527.7,3325,right
4,1,binary,26,2,trial,1967514.0,1972448.0,4934.0,26,R,1969392,1969578,188,1179.0,500.1,3406,NA
4,1,binary,26,2,trial,1967514.0,1972448.0,4934.0,26,R,1969636,1971840,2206,443.0,460.1,3631,left
4,1,binary,26,2,trial,1967514.0,1972448.0,4934.0,26,R,1971890,1972056,168,1080.4,489.7,3880,NA
4,1,binary,26,2,trial,1967514.0,1972448.0,4934.0,26,R,1972106,1972304,200,1456.5,454.5,4008,right
4,1,binary,26,2,trial,1967514.0,1972448.0,4934.0,26,R,1972332,1972484,154,1530.6,479.0,4033,right
4,1,binary,26,2,postResponse,1967514.0,1972448.0,4934.0,26,R,1972518,1972796,280,1565.4,418.5,3954,right
4,1,binary,27,1,fixationCross,1973498.0,1977564.0,4066.0,27,R,1972946,1973194,250,849.6,400.9,3846,NA
4,1,binary,27,1,fixationCross,1973498.0,1977564.0,4066.0,27,R,1973236,1973336,102,926.7,481.7,3929,NA
4,1,binary,27,1,trial,1973498.0,1977564.0,4066.0,27,R,1973356,1973636,282,940.0,520.9,4034,NA
4,1,binary,27,1,trial,1973498.0,1977564.0,4066.0,27,R,1973682,1974020,340,436.8,463.1,3880,left
4,1,binary,27,1,trial,1973498.0,1977564.0,4066.0,27,R,1974046,1974222,178,478.7,470.7,3488,left
4,1,binary,27,1,trial,1973498.0,1977564.0,4066.0,27,R,1974250,1974584,336,356.0,512.8,3244,left
4,1,binary,27,1,trial,1973498.0,1977564.0,4066.0,27,R,1974602,1975232,632,408.2,520.8,3025,left
4,1,binary,27,1,trial,1973498.0,1977564.0,4066.0,27,R,1975294,1975572,280,1371.4,487.1,3059,right
4,1,binary,27,1,trial,1973498.0,1977564.0,4066.0,27,R,1975584,1975816,234,1319.0,485.0,3025,right
4,1,binary,27,1,trial,1973498.0,1977564.0,4066.0,27,R,1975836,1976394,560,1395.8,519.4,2945,right
4,1,binary,27,1,trial,1973498.0,1977564.0,4066.0,27,R,1976412,1976738,328,1299.1,485.8,2994,right
4,1,binary,27,1,trial,1973498.0,1977564.0,4066.0,27,R,1976802,1977166,366,437.9,502.5,2943,left
4,1,binary,27,1,trial,1973498.0,1977564.0,4066.0,27,R,1977196,1977574,380,281.8,544.4,2888,left
4,1,binary,27,1,trial,1973498.0,1977564.0,4066.0,27,R,1977590,1977770,182,359.1,512.2,2981,left
4,1,binary,28,2,fixationCross,1978464.0,1982231.0,3767.0,28,R,1977970,1978402,434,1002.4,481.0,3270,NA
4,1,binary,28,2,trial,1978464.0,1982231.0,3767.0,28,R,1978426,1978624,200,942.6,525.8,3486,NA
4,1,binary,28,2,trial,1978464.0,1982231.0,3767.0,28,R,1978670,1978982,314,486.6,474.7,3524,left
4,1,binary,28,2,trial,1978464.0,1982231.0,3767.0,28,R,1979006,1979178,174,379.2,501.2,3291,left
4,1,binary,28,2,trial,1978464.0,1982231.0,3767.0,28,R,1979252,1979466,216,1388.6,501.9,3263,right
4,1,binary,28,2,trial,1978464.0,1982231.0,3767.0,28,R,1979486,1979700,216,1402.2,445.2,3168,right
4,1,binary,28,2,trial,1978464.0,1982231.0,3767.0,28,R,1979766,1980106,342,444.8,527.2,2992,left
4,1,binary,28,2,trial,1978464.0,1982231.0,3767.0,28,R,1980254,1980756,504,399.1,488.3,2996,left
4,1,binary,28,2,trial,1978464.0,1982231.0,3767.0,28,R,1980782,1981456,676,463.1,512.2,3187,left
4,1,binary,28,2,trial,1978464.0,1982231.0,3767.0,28,R,1981478,1981834,358,369.2,504.8,3216,left
4,1,binary,28,2,trial,1978464.0,1982231.0,3767.0,28,R,1981896,1982412,518,1293.0,481.3,3341,right
4,1,binary,28,2,postResponse,1978464.0,1982231.0,3767.0,28,R,1982438,1982572,136,1061.5,488.6,3299,NA
4,1,binary,29,1,fixationCross,1983297.0,1989248.0,5951.0,29,R,1982648,1982998,352,1074.5,479.5,3410,NA
4,1,binary,29,1,trial,1983297.0,1989248.0,5951.0,29,R,1983026,1983456,432,955.4,534.1,3606,NA
4,1,binary,29,1,trial,1983297.0,1989248.0,5951.0,29,R,1983504,1983678,176,395.1,494.1,3634,left
4,1,binary,29,1,trial,1983297.0,1989248.0,5951.0,29,R,1983762,1984174,414,1374.7,461.7,3338,right
4,1,binary,29,1,trial,1983297.0,1989248.0,5951.0,29,R,1984190,1984522,334,1381.1,482.0,3146,right
4,1,binary,29,1,trial,1983297.0,1989248.0,5951.0,29,R,1984542,1985238,698,1424.2,488.7,3090,right
4,1,binary,29,1,trial,1983297.0,1989248.0,5951.0,29,R,1985260,1985412,154,1452.8,400.6,3268,right
4,1,binary,29,1,trial,1983297.0,1989248.0,5951.0,29,R,1985482,1985694,214,366.4,508.7,3280,left
4,1,binary,29,1,trial,1983297.0,1989248.0,5951.0,29,R,1985720,1986008,290,526.0,429.5,3266,left
4,1,binary,29,1,trial,1983297.0,1989248.0,5951.0,29,R,1986030,1986162,134,441.7,454.0,3100,left
4,1,binary,29,1,trial,1983297.0,1989248.0,5951.0,29,R,1986182,1986436,256,523.4,426.8,3007,left
4,1,binary,29,1,trial,1983297.0,1989248.0,5951.0,29,R,1986464,1986906,444,594.2,567.1,3089,left
4,1,binary,29,1,trial,1983297.0,1989248.0,5951.0,29,R,1986918,1987124,208,574.9,568.6,3155,left
4,1,binary,29,1,trial,1983297.0,1989248.0,5951.0,29,R,1987142,1987432,292,623.1,596.2,3104,left
4,1,binary,29,1,trial,1983297.0,1989248.0,5951.0,29,R,1987444,1987694,252,602.5,565.7,3069,left
4,1,binary,29,1,trial,1983297.0,1989248.0,5951.0,29,R,1987714,1988220,508,624.8,623.1,3040,left
4,1,binary,29,1,trial,1983297.0,1989248.0,5951.0,29,R,1988250,1988472,224,338.8,520.2,2989,left
4,1,binary,29,1,trial,1983297.0,1989248.0,5951.0,29,R,1988498,1988742,246,394.3,492.2,2928,left
4,1,binary,29,1,trial,1983297.0,1989248.0,5951.0,29,R,1988770,1989050,282,300.2,538.2,2897,left
4,1,binary,29,1,trial,1983297.0,1989248.0,5951.0,29,R,1989080,1989240,162,449.8,450.6,3010,left
4,1,binary,29,1,trial,1983297.0,1989248.0,5951.0,29,R,1989364,1989526,164,666.8,499.7,3115,left
4,1,binary,30,2,fixationCross,1990281.0,1994631.0,4350.0,30,R,1989676,1989994,320,1067.6,423.4,3284,NA
4,1,binary,30,2,trial,1990281.0,1994631.0,4350.0,30,R,1990020,1990422,404,949.4,504.8,3443,NA
4,1,binary,30,2,trial,1990281.0,1994631.0,4350.0,30,R,1990476,1990748,274,509.4,453.8,3449,left
4,1,binary,30,2,trial,1990281.0,1994631.0,4350.0,30,R,1990768,1991028,262,576.7,396.8,3223,left
4,1,binary,30,2,trial,1990281.0,1994631.0,4350.0,30,R,1991062,1991344,284,497.3,452.4,3102,left
4,1,binary,30,2,trial,1990281.0,1994631.0,4350.0,30,R,1991358,1991842,486,557.7,415.2,3180,left
4,1,binary,30,2,trial,1990281.0,1994631.0,4350.0,30,R,1991910,1992066,158,1329.0,482.2,3238,right
4,1,binary,30,2,trial,1990281.0,1994631.0,4350.0,30,R,1992102,1992278,178,1472.6,489.2,3214,right
4,1,binary,30,2,trial,1990281.0,1994631.0,4350.0,30,R,1992300,1992890,592,1446.7,461.4,3189,right
4,1,binary,30,2,trial,1990281.0,1994631.0,4350.0,30,R,1992916,1993126,212,1344.9,502.7,3284,right
4,1,binary,30,2,trial,1990281.0,1994631.0,4350.0,30,R,1993158,1993408,252,1488.3,484.6,3373,right
4,1,binary,30,2,trial,1990281.0,1994631.0,4350.0,30,R,1993480,1993790,312,477.5,479.1,3158,left
4,1,binary,30,2,trial,1990281.0,1994631.0,4350.0,30,R,1993816,1994116,302,367.5,510.0,3018,left
4,1,binary,30,2,trial,1990281.0,1994631.0,4350.0,30,R,1994170,1994324,156,933.5,545.0,3071,NA
4,1,binary,30,2,trial,1990281.0,1994631.0,4350.0,30,R,1994382,1994554,174,1402.7,887.9,3231,NA
4,1,binary,30,2,postResponse,1990281.0,1994631.0,4350.0,30,R,1994602,1994962,362,1193.4,447.3,3372,right
4,1,binary,31,1,fixationCross,1995714.0,2002848.0,7134.0,31,R,1995062,1995078,18,1185.0,454.4,3478,right
4,1,binary,31,1,fixationCross,1995714.0,2002848.0,7134.0,31,R,1995112,1995350,240,1054.0,521.0,3497,NA
4,1,binary,31,1,fixationCross,1995714.0,2002848.0,7134.0,31,R,1995392,1995568,178,810.1,530.3,3548,NA
4,1,binary,31,1,trial,1995714.0,2002848.0,7134.0,31,R,1995592,1995958,368,908.5,533.1,3633,NA
4,1,binary,31,1,trial,1995714.0,2002848.0,7134.0,31,R,1996006,1996176,172,1341.7,459.2,3757,right
4,1,binary,31,1,trial,1995714.0,2002848.0,7134.0,31,R,1996214,1996448,236,1440.6,438.3,3516,right
4,1,binary,31,1,trial,1995714.0,2002848.0,7134.0,31,R,1996464,1997068,606,1434.8,445.6,3369,right
4,1,binary,31,1,trial,1995714.0,2002848.0,7134.0,31,R,1997154,1997382,230,486.1,476.0,3436,left
4,1,binary,31,1,trial,1995714.0,2002848.0,7134.0,31,R,1997404,1998232,830,418.2,477.0,3392,left
4,1,binary,31,1,trial,1995714.0,2002848.0,7134.0,31,R,1998254,1998530,278,448.3,506.1,3358,left
4,1,binary,31,1,trial,1995714.0,2002848.0,7134.0,31,R,1998604,1998822,220,1409.2,469.7,3567,right
4,1,binary,31,1,trial,1995714.0,2002848.0,7134.0,31,R,1998848,1999182,336,1431.9,413.3,3565,right
4,1,binary,31,1,trial,1995714.0,2002848.0,7134.0,31,R,1999206,1999576,372,1491.5,460.5,3606,right
4,1,binary,31,1,trial,1995714.0,2002848.0,7134.0,31,R,1999598,1999756,160,1437.3,457.8,3666,right
4,1,binary,31,1,trial,1995714.0,2002848.0,7134.0,31,R,1999822,2000032,212,534.3,480.0,3565,left
4,1,binary,31,1,trial,1995714.0,2002848.0,7134.0,31,R,2000058,2000442,386,408.8,485.4,3410,left
4,1,binary,31,1,trial,1995714.0,2002848.0,7134.0,31,R,2000472,2000710,240,390.1,540.5,3316,left
4,1,binary,31,1,trial,1995714.0,2002848.0,7134.0,31,R,2000732,2000988,258,404.5,487.5,3405,left
4,1,binary,31,1,trial,1995714.0,2002848.0,7134.0,31,R,2001016,2001538,524,396.5,560.4,3369,left
4,1,binary,31,1,trial,1995714.0,2002848.0,7134.0,31,R,2001576,2001664,90,553.3,420.4,3317,left
4,1,binary,31,1,trial,1995714.0,2002848.0,7134.0,31,R,2001736,2002278,544,1439.1,434.6,3432,right
4,1,binary,31,1,trial,1995714.0,2002848.0,7134.0,31,R,2002340,2002606,268,582.5,591.6,3491,left
4,1,binary,31,1,trial,1995714.0,2002848.0,7134.0,31,R,2002636,2002980,346,431.5,470.9,3475,left
4,1,binary,31,1,trial,1995714.0,2002848.0,7134.0,31,R,2003004,2003026,24,439.4,463.4,3491,left
4,1,binary,32,1,fixationCross,2003948.0,2010698.0,6750.0,32,R,2003260,2003644,386,866.3,462.4,3693,NA
4,1,binary,32,1,trial,2003948.0,2010698.0,6750.0,32,R,2003680,2004082,404,960.5,528.1,3852,NA
4,1,binary,32,1,trial,2003948.0,2010698.0,6750.0,32,R,2004142,2004388,248,507.2,460.3,3773,left
4,1,binary,32,1,trial,2003948.0,2010698.0,6750.0,32,R,2004414,2004686,274,303.9,533.6,3357,left
4,1,binary,32,1,trial,2003948.0,2010698.0,6750.0,32,R,2004714,2005010,298,591.1,592.5,3071,left
4,1,binary,32,1,trial,2003948.0,2010698.0,6750.0,32,R,2005046,2005160,116,536.3,517.7,2928,left
4,1,binary,32,1,trial,2003948.0,2010698.0,6750.0,32,R,2005170,2005214,46,551.2,525.3,2899,left
4,1,binary,32,1,trial,2003948.0,2010698.0,6750.0,32,R,2005282,2005540,260,1411.5,474.2,2943,right
4,1,binary,32,1,trial,2003948.0,2010698.0,6750.0,32,R,2005564,2005726,164,1392.2,551.1,2916,right
4,1,binary,32,1,trial,2003948.0,2010698.0,6750.0,32,R,2005750,2005958,210,1403.7,461.5,2850,right
4,1,binary,32,1,trial,2003948.0,2010698.0,6750.0,32,R,2005980,2006398,420,1407.8,412.3,2743,right
4,1,binary,32,1,trial,2003948.0,2010698.0,6750.0,32,R,2006416,2006542,128,1477.1,381.1,2741,right
4,1,binary,32,1,trial,2003948.0,2010698.0,6750.0,32,R,2006690,2006838,150,1455.4,425.3,2897,right
4,1,binary,32,1,trial,2003948.0,2010698.0,6750.0,32,R,2006884,2007142,260,1266.3,560.1,3093,right
4,1,binary,32,1,trial,2003948.0,2010698.0,6750.0,32,R,2007178,2007432,256,1416.8,673.5,3259,right
4,1,binary,32,1,trial,2003948.0,2010698.0,6750.0,32,R,2007474,2007626,154,1344.3,519.0,3156,right
4,1,binary,32,1,trial,2003948.0,2010698.0,6750.0,32,R,2007652,2007880,230,1353.7,406.7,3042,right
4,1,binary,32,1,trial,2003948.0,2010698.0,6750.0,32,R,2007898,2008252,356,1304.6,371.5,3093,right
4,1,binary,32,1,trial,2003948.0,2010698.0,6750.0,32,R,2008316,2008514,200,549.5,536.3,3232,left
4,1,binary,32,1,trial,2003948.0,2010698.0,6750.0,32,R,2008544,2008794,252,415.7,478.8,3210,left
4,1,binary,32,1,trial,2003948.0,2010698.0,6750.0,32,R,2008824,2009014,192,223.5,549.2,2888,left
4,1,binary,32,1,trial,2003948.0,2010698.0,6750.0,32,R,2009066,2009196,132,524.4,541.7,2856,left
4,1,binary,32,1,trial,2003948.0,2010698.0,6750.0,32,R,2009230,2009528,300,225.5,548.9,2746,left
4,1,binary,32,1,trial,2003948.0,2010698.0,6750.0,32,R,2009564,2009682,120,424.4,519.6,2810,left
4,1,binary,32,1,trial,2003948.0,2010698.0,6750.0,32,R,2009708,2009972,266,575.7,583.7,2796,left
4,1,binary,32,1,trial,2003948.0,2010698.0,6750.0,32,R,2009992,2010130,140,570.9,525.6,2827,left
4,1,binary,32,1,trial,2003948.0,2010698.0,6750.0,32,R,2010166,2010558,394,267.8,542.3,2857,left
4,1,binary,32,1,trial,2003948.0,2010698.0,6750.0,32,R,2010574,2010872,300,229.2,548.4,2810,left
4,1,binary,33,1,fixationCross,2011781.0,2016764.0,4983.0,33,R,2011132,2011474,344,800.4,504.2,3011,NA
4,1,binary,33,1,trial,2011781.0,2016764.0,4983.0,33,R,2011500,2011926,428,948.9,521.7,3303,NA
4,1,binary,33,1,trial,2011781.0,2016764.0,4983.0,33,R,2011956,2011982,28,925.2,514.1,3400,NA
4,1,binary,33,1,trial,2011781.0,2016764.0,4983.0,33,R,2012046,2012222,178,1307.3,463.4,3452,right
4,1,binary,33,1,trial,2011781.0,2016764.0,4983.0,33,R,2012258,2012490,234,1429.4,492.0,3334,right
4,1,binary,33,1,trial,2011781.0,2016764.0,4983.0,33,R,2012520,2012840,322,1495.7,498.4,3222,right
4,1,binary,33,1,trial,2011781.0,2016764.0,4983.0,33,R,2012872,2013130,260,1463.4,447.4,3153,right
4,1,binary,33,1,trial,2011781.0,2016764.0,4983.0,33,R,2013206,2013384,180,556.6,572.0,3138,left
4,1,binary,33,1,trial,2011781.0,2016764.0,4983.0,33,R,2013408,2013788,382,618.5,504.2,3107,left
4,1,binary,33,1,trial,2011781.0,2016764.0,4983.0,33,R,2013808,2014010,204,576.1,464.0,2951,left
4,1,binary,33,1,trial,2011781.0,2016764.0,4983.0,33,R,2014046,2014284,240,352.7,515.8,2815,left
4,1,binary,33,1,trial,2011781.0,2016764.0,4983.0,33,R,2014298,2014398,102,326.1,531.6,2832,left
4,1,binary,33,1,trial,2011781.0,2016764.0,4983.0,33,R,2014436,2014468,34,330.1,535.5,2844,left
4,1,binary,33,1,trial,2011781.0,2016764.0,4983.0,33,R,2014508,2014628,122,329.5,541.4,2827,left
4,1,binary,33,1,trial,2011781.0,2016764.0,4983.0,33,R,2014714,2014952,240,237.5,548.8,2870,left
4,1,binary,33,1,trial,2011781.0,2016764.0,4983.0,33,R,2014968,2015120,154,288.8,536.1,2946,left
4,1,binary,33,1,trial,2011781.0,2016764.0,4983.0,33,R,2015158,2015644,488,668.2,588.4,2974,left
4,1,binary,33,1,trial,2011781.0,2016764.0,4983.0,33,R,2015656,2015928,274,659.8,617.6,3071,left
4,1,binary,33,1,trial,2011781.0,2016764.0,4983.0,33,R,2015952,2016302,352,545.8,594.7,3109,left
4,1,binary,33,1,trial,2011781.0,2016764.0,4983.0,33,R,2016324,2016924,602,523.4,643.7,3028,left
4,1,binary,34,1,fixationCross,2017648.0,2022348.0,4700.0,34,R,2017176,2017560,386,888.7,514.5,3003,NA
4,1,binary,34,1,trial,2017648.0,2022348.0,4700.0,34,R,2017584,2017792,210,945.3,515.7,3210,NA
4,1,binary,34,1,trial,2017648.0,2022348.0,4700.0,34,R,2017824,2017988,166,1213.5,441.9,3380,right
4,1,binary,34,1,trial,2017648.0,2022348.0,4700.0,34,R,2018028,2018402,376,1366.2,501.8,3301,right
4,1,binary,34,1,trial,2017648.0,2022348.0,4700.0,34,R,2018438,2018714,278,1448.5,547.7,3271,right
4,1,binary,34,1,trial,2017648.0,2022348.0,4700.0,34,R,2018732,2018868,138,1408.5,533.4,3293,right
4,1,binary,34,1,trial,2017648.0,2022348.0,4700.0,34,R,2018904,2019124,222,1516.1,412.3,3234,right
4,1,binary,34,1,trial,2017648.0,2022348.0,4700.0,34,R,2019146,2019394,250,1582.4,415.9,3238,right
4,1,binary,34,1,trial,2017648.0,2022348.0,4700.0,34,R,2019420,2019668,250,1433.6,471.6,3348,right
4,1,binary,34,1,trial,2017648.0,2022348.0,4700.0,34,R,2019696,2020170,476,1456.9,551.8,3484,right
4,1,binary,34,1,trial,2017648.0,2022348.0,4700.0,34,R,2020212,2020342,132,1314.3,486.0,3444,right
4,1,binary,34,1,trial,2017648.0,2022348.0,4700.0,34,R,2020402,2020684,284,496.7,463.9,3245,left
4,1,binary,34,1,trial,2017648.0,2022348.0,4700.0,34,R,2020710,2021306,598,385.3,498.3,3210,left
4,1,binary,34,1,trial,2017648.0,2022348.0,4700.0,34,R,2021382,2021638,258,1375.8,580.4,3286,right
4,1,binary,34,1,trial,2017648.0,2022348.0,4700.0,34,R,2021708,2022006,300,373.5,507.8,3161,left
4,1,binary,34,1,trial,2017648.0,2022348.0,4700.0,34,R,2022024,2022184,162,430.8,467.1,3112,left
4,1,binary,34,1,trial,2017648.0,2022348.0,4700.0,34,R,2022198,2022492,296,459.2,439.9,3102,left
4,1,binary,35,2,fixationCross,2023415.0,2027632.0,4217.0,35,R,2022758,2023124,368,840.2,548.9,3311,NA
4,1,binary,35,2,trial,2023415.0,2027632.0,4217.0,35,R,2023148,2023546,400,962.2,541.5,3543,NA
4,1,binary,35,2,trial,2023415.0,2027632.0,4217.0,35,R,2023604,2023862,260,469.0,490.1,3445,left
4,1,binary,35,2,trial,2023415.0,2027632.0,4217.0,35,R,2023890,2024144,256,697.2,526.3,3196,left
4,1,binary,35,2,trial,2023415.0,2027632.0,4217.0,35,R,2024198,2024330,134,1435.2,479.5,3102,right
4,1,binary,35,2,trial,2023415.0,2027632.0,4217.0,35,R,2024358,2024660,304,1614.4,491.3,3200,right
4,1,binary,35,2,trial,2023415.0,2027632.0,4217.0,35,R,2024686,2025526,842,1698.4,513.7,3479,NA
4,1,binary,35,2,trial,2023415.0,2027632.0,4217.0,35,R,2025610,2026242,634,548.4,539.9,3483,left
4,1,binary,35,2,trial,2023415.0,2027632.0,4217.0,35,R,2026260,2026422,164,457.6,487.8,3087,left
4,1,binary,35,2,trial,2023415.0,2027632.0,4217.0,35,R,2026496,2027154,660,1450.3,500.3,3109,right
4,1,binary,35,2,trial,2023415.0,2027632.0,4217.0,35,R,2027216,2027470,256,711.0,508.5,3349,left
4,1,binary,35,2,trial,2023415.0,2027632.0,4217.0,35,R,2027518,2027852,336,456.8,493.0,3306,left
4,1,binary,36,1,fixationCross,2028698.0,2032848.0,4150.0,36,R,2028430,2028560,132,901.5,517.4,3617,NA
4,1,binary,36,1,trial,2028698.0,2032848.0,4150.0,36,R,2028584,2028840,258,950.9,540.7,3704,NA
4,1,binary,36,1,trial,2028698.0,2032848.0,4150.0,36,R,2028898,2029038,142,494.4,481.5,3661,left
4,1,binary,36,1,trial,2028698.0,2032848.0,4150.0,36,R,2029068,2029492,426,309.2,531.1,3312,left
4,1,binary,36,1,trial,2028698.0,2032848.0,4150.0,36,R,2029568,2029852,286,1372.2,514.8,3194,right
4,1,binary,36,1,trial,2028698.0,2032848.0,4150.0,36,R,2029870,2030142,274,1416.3,454.3,3188,right
4,1,binary,36,1,trial,2028698.0,2032848.0,4150.0,36,R,2030520,2030692,174,1452.0,520.9,3494,right
4,1,binary,36,1,trial,2028698.0,2032848.0,4150.0,36,R,2030724,2030922,200,1373.8,537.1,3607,right
4,1,binary,36,1,trial,2028698.0,2032848.0,4150.0,36,R,2030946,2031092,148,1390.6,597.2,3545,right
4,1,binary,36,1,trial,2028698.0,2032848.0,4150.0,36,R,2031126,2031268,144,1515.9,477.0,3465,right
4,1,binary,36,1,trial,2028698.0,2032848.0,4150.0,36,R,2031340,2031562,224,303.6,537.9,3312,left
4,1,binary,36,1,trial,2028698.0,2032848.0,4150.0,36,R,2031572,2032816,1246,282.9,539.6,3222,left
4,1,binary,36,1,postResponse,2028698.0,2032848.0,4150.0,36,R,2032854,2033184,332,544.3,479.6,3395,left
4,1,binary,37,2,fixationCross,2033731.0,2036715.0,2984.0,37,R,2033258,2033284,28,544.2,471.5,3382,left
4,1,binary,37,2,fixationCross,2033731.0,2036715.0,2984.0,37,R,2033430,2033620,192,1002.4,498.3,3488,NA
4,1,binary,37,2,trial,2033731.0,2036715.0,2984.0,37,R,2033640,2033888,250,944.0,518.3,3532,NA
4,1,binary,37,2,trial,2033731.0,2036715.0,2984.0,37,R,2033954,2034118,166,1404.4,461.5,3695,right
4,1,binary,37,2,trial,2033731.0,2036715.0,2984.0,37,R,2034140,2034472,334,1444.7,461.7,3430,right
4,1,binary,37,2,trial,2033731.0,2036715.0,2984.0,37,R,2034486,2034730,246,1463.5,461.9,3227,right
4,1,binary,37,2,trial,2033731.0,2036715.0,2984.0,37,R,2034758,2034902,146,1419.0,524.7,3164,right
4,1,binary,37,2,trial,2033731.0,2036715.0,2984.0,37,R,2034964,2035196,234,542.2,496.0,3159,left
4,1,binary,37,2,trial,2033731.0,2036715.0,2984.0,37,R,2035220,2035458,240,467.9,488.0,3189,left
4,1,binary,37,2,trial,2033731.0,2036715.0,2984.0,37,R,2035474,2035926,454,434.9,461.8,3040,left
4,1,binary,37,2,trial,2033731.0,2036715.0,2984.0,37,R,2035946,2036124,180,467.1,485.6,3053,left
4,1,binary,37,2,trial,2033731.0,2036715.0,2984.0,37,R,2036196,2036492,298,1361.2,502.7,3161,right
4,1,binary,37,2,trial,2033731.0,2036715.0,2984.0,37,R,2036516,2036756,242,1419.4,473.8,3129,right
4,1,binary,37,2,postResponse,2033731.0,2036715.0,2984.0,37,R,2036774,2037032,260,1389.4,460.0,3217,right
4,1,binary,38,1,fixationCross,2037615.0,2041315.0,3700.0,38,R,2037148,2037328,182,1089.5,492.2,3349,NA
4,1,binary,38,1,fixationCross,2037615.0,2041315.0,3700.0,38,R,2037366,2037612,248,878.9,491.9,3432,NA
4,1,binary,38,1,trial,2037615.0,2041315.0,3700.0,38,R,2037632,2037760,130,931.7,519.6,3517,NA
4,1,binary,38,1,trial,2037615.0,2041315.0,3700.0,38,R,2037814,2037990,178,581.2,575.7,3514,left
4,1,binary,38,1,trial,2037615.0,2041315.0,3700.0,38,R,2038024,2038162,140,252.4,545.5,3346,left
4,1,binary,38,1,trial,2037615.0,2041315.0,3700.0,38,R,2038182,2038622,442,325.4,524.7,2949,left
4,1,binary,38,1,trial,2037615.0,2041315.0,3700.0,38,R,2038650,2039162,514,617.3,589.9,2845,left
4,1,binary,38,1,trial,2037615.0,2041315.0,3700.0,38,R,2039184,2039356,174,556.2,589.7,3000,left
4,1,binary,38,1,trial,2037615.0,2041315.0,3700.0,38,R,2039384,2039484,102,257.4,543.7,2982,left
4,1,binary,38,1,trial,2037615.0,2041315.0,3700.0,38,R,2039506,2039654,150,355.6,511.5,2984,left
4,1,binary,38,1,trial,2037615.0,2041315.0,3700.0,38,R,2039722,2039918,198,1469.3,491.8,3025,right
4,1,binary,38,1,trial,2037615.0,2041315.0,3700.0,38,R,2039934,2040142,210,1424.3,509.0,2934,right
4,1,binary,38,1,trial,2037615.0,2041315.0,3700.0,38,R,2040160,2040794,636,1463.5,540.9,3070,right
4,1,binary,38,1,trial,2037615.0,2041315.0,3700.0,38,R,2040866,2041192,328,329.3,524.4,2992,left
4,1,binary,38,1,trial,2037615.0,2041315.0,3700.0,38,R,2041212,2041532,322,265.5,541.7,2899,left
4,1,binary,39,1,fixationCross,2042365.0,2045932.0,3567.0,39,R,2041724,2042060,338,730.5,477.3,3193,left
4,1,binary,39,1,trial,2042365.0,2045932.0,3567.0,39,R,2042090,2042522,434,944.1,530.3,3391,NA
4,1,binary,39,1,trial,2042365.0,2045932.0,3567.0,39,R,2042578,2042790,214,530.7,504.5,3366,left
4,1,binary,39,1,trial,2042365.0,2045932.0,3567.0,39,R,2042810,2043296,488,608.0,557.8,3143,left
4,1,binary,39,1,trial,2042365.0,2045932.0,3567.0,39,R,2043364,2043496,134,1501.3,418.6,3210,right
4,1,binary,39,1,trial,2042365.0,2045932.0,3567.0,39,R,2043526,2044268,744,1559.5,427.0,3215,right
4,1,binary,39,1,trial,2042365.0,2045932.0,3567.0,39,R,2044334,2044566,234,622.7,569.3,3133,left
4,1,binary,39,1,trial,2042365.0,2045932.0,3567.0,39,R,2044588,2044822,236,543.0,550.4,3142,left
4,1,binary,39,1,trial,2042365.0,2045932.0,3567.0,39,R,2044846,2045508,664,428.8,514.1,3170,left
4,1,binary,39,1,trial,2042365.0,2045932.0,3567.0,39,R,2045534,2045766,234,613.6,573.7,3289,left
4,1,binary,39,1,trial,2042365.0,2045932.0,3567.0,39,R,2045778,2046090,314,577.9,575.9,3261,left
4,1,binary,40,1,fixationCross,2047015.0,2052398.0,5383.0,40,R,2046342,2046700,360,801.1,502.2,3357,NA
4,1,binary,40,1,trial,2047015.0,2052398.0,5383.0,40,R,2046736,2047192,458,927.2,531.5,3506,NA
4,1,binary,40,1,trial,2047015.0,2052398.0,5383.0,40,R,2047242,2047430,190,1418.2,500.9,3649,right
4,1,binary,40,1,trial,2047015.0,2052398.0,5383.0,40,R,2047466,2047666,202,1507.8,526.3,3369,right
4,1,binary,40,1,trial,2047015.0,2052398.0,5383.0,40,R,2047720,2048030,312,1298.8,617.5,3251,right
4,1,binary,40,1,trial,2047015.0,2052398.0,5383.0,40,R,2048074,2048356,284,1507.1,481.5,3206,right
4,1,binary,40,1,trial,2047015.0,2052398.0,5383.0,40,R,2048380,2048606,228,1555.4,530.3,3110,right
4,1,binary,40,1,trial,2047015.0,2052398.0,5383.0,40,R,2048644,2048734,92,1477.7,592.2,3162,right
4,1,binary,40,1,trial,2047015.0,2052398.0,5383.0,40,R,2048806,2049134,330,334.6,522.8,3128,left
4,1,binary,40,1,trial,2047015.0,2052398.0,5383.0,40,R,2049260,2049622,364,346.3,516.4,2788,left
4,1,binary,40,1,trial,2047015.0,2052398.0,5383.0,40,R,2049636,2050024,390,317.4,527.1,2776,left
4,1,binary,40,1,trial,2047015.0,2052398.0,5383.0,40,R,2050166,2050296,132,344.6,520.1,2885,left
4,1,binary,40,1,trial,2047015.0,2052398.0,5383.0,40,R,2050412,2050586,176,358.3,516.2,2982,left
4,1,binary,40,1,trial,2047015.0,2052398.0,5383.0,40,R,2050662,2050924,264,1382.7,553.7,3176,right
4,1,binary,40,1,trial,2047015.0,2052398.0,5383.0,40,R,2050962,2051562,602,1282.9,615.1,3101,right
4,1,binary,40,1,trial,2047015.0,2052398.0,5383.0,40,R,2051588,2051956,370,1445.3,505.5,3105,right
4,1,binary,40,1,trial,2047015.0,2052398.0,5383.0,40,R,2051994,2052324,332,1619.0,616.0,3212,right
4,1,binary,40,1,trial,2047015.0,2052398.0,5383.0,40,R,2052402,2052526,126,423.8,507.2,3245,left
4,1,binary,40,1,postResponse,2047015.0,2052398.0,5383.0,40,R,2052566,2052734,170,382.3,499.3,3280,left
4,1,binary,41,1,fixationCross,2053499.0,2057499.0,4000.0,41,R,2052810,2053176,368,1075.1,462.3,3414,NA
4,1,binary,41,1,trial,2053499.0,2057499.0,4000.0,41,R,2053214,2053636,424,932.1,535.4,3574,NA
4,1,binary,41,1,trial,2053499.0,2057499.0,4000.0,41,R,2053680,2053948,270,661.4,521.3,3636,left
4,1,binary,41,1,trial,2053499.0,2057499.0,4000.0,41,R,2053984,2054264,282,597.7,481.5,3349,left
4,1,binary,41,1,trial,2053499.0,2057499.0,4000.0,41,R,2054298,2054704,408,346.0,515.8,3163,left
4,1,binary,41,1,trial,2053499.0,2057499.0,4000.0,41,R,2054778,2054952,176,1410.1,536.7,3235,right
4,1,binary,41,1,trial,2053499.0,2057499.0,4000.0,41,R,2054972,2055174,204,1492.8,551.9,3151,right
4,1,binary,41,1,trial,2053499.0,2057499.0,4000.0,41,R,2055212,2055452,242,1361.8,450.4,3010,right
4,1,binary,41,1,trial,2053499.0,2057499.0,4000.0,41,R,2055472,2055566,96,1465.5,458.0,2931,right
4,1,binary,41,1,trial,2053499.0,2057499.0,4000.0,41,R,2055590,2055912,324,1308.1,412.8,2886,right
4,1,binary,41,1,trial,2053499.0,2057499.0,4000.0,41,R,2055938,2056186,250,1215.7,385.1,2987,right
4,1,binary,41,1,trial,2053499.0,2057499.0,4000.0,41,R,2056224,2056390,168,1424.9,388.9,3042,right
4,1,binary,41,1,trial,2053499.0,2057499.0,4000.0,41,R,2056408,2056508,102,1474.8,384.2,3081,right
4,1,binary,41,1,trial,2053499.0,2057499.0,4000.0,41,R,2056566,2056798,234,656.3,536.2,3052,left
4,1,binary,41,1,trial,2053499.0,2057499.0,4000.0,41,R,2056828,2056966,140,539.4,463.9,3068,left
4,1,binary,41,1,trial,2053499.0,2057499.0,4000.0,41,R,2057014,2057484,472,281.4,558.5,3059,left
4,1,binary,41,1,trial,2053499.0,2057499.0,4000.0,41,R,2057504,2057678,176,379.3,502.2,3077,left
4,1,binary,42,1,fixationCross,2058565.0,2065666.0,7101.0,42,R,2057908,2058260,354,757.3,470.1,3187,NA
4,1,binary,42,1,trial,2058565.0,2065666.0,7101.0,42,R,2058286,2058710,426,942.4,516.3,3402,NA
4,1,binary,42,1,trial,2058565.0,2065666.0,7101.0,42,R,2058766,2059042,278,474.6,495.1,3374,left
4,1,binary,42,1,trial,2058565.0,2065666.0,7101.0,42,R,2059062,2059268,208,400.0,489.8,3173,left
4,1,binary,42,1,trial,2058565.0,2065666.0,7101.0,42,R,2059286,2059682,398,461.3,493.1,3006,left
4,1,binary,42,1,trial,2058565.0,2065666.0,7101.0,42,R,2059750,2060010,262,1369.7,460.5,2989,right
4,1,binary,42,1,trial,2058565.0,2065666.0,7101.0,42,R,2060032,2060318,288,1343.3,517.8,3128,right
4,1,binary,42,1,trial,2058565.0,2065666.0,7101.0,42,R,2060344,2060560,218,1347.5,571.5,3322,right
4,1,binary,42,1,trial,2058565.0,2065666.0,7101.0,42,R,2060584,2060928,346,1317.7,512.1,3466,right
4,1,binary,42,1,trial,2058565.0,2065666.0,7101.0,42,R,2060964,2061190,228,1395.1,559.7,3565,right
4,1,binary,42,1,trial,2058565.0,2065666.0,7101.0,42,R,2061210,2061546,338,1348.6,526.9,3640,right
4,1,binary,42,1,trial,2058565.0,2065666.0,7101.0,42,R,2061574,2061792,220,1370.2,602.8,3691,right
4,1,binary,42,1,trial,2058565.0,2065666.0,7101.0,42,R,2061814,2062094,282,1449.3,622.9,3722,right
4,1,binary,42,1,trial,2058565.0,2065666.0,7101.0,42,R,2062106,2062416,312,1416.4,624.5,3670,right
4,1,binary,42,1,trial,2058565.0,2065666.0,7101.0,42,R,2062448,2062626,180,1214.2,558.3,3513,right
4,1,binary,42,1,trial,2058565.0,2065666.0,7101.0,42,R,2062658,2062814,158,1340.1,529.6,3512,right
4,1,binary,42,1,trial,2058565.0,2065666.0,7101.0,42,R,2062856,2062934,80,1202.5,559.2,3495,right
4,1,binary,42,1,trial,2058565.0,2065666.0,7101.0,42,R,2062974,2063054,82,1387.2,426.9,3598,right
4,1,binary,42,1,trial,2058565.0,2065666.0,7101.0,42,R,2063124,2063348,226,475.5,521.8,3541,left
4,1,binary,42,1,trial,2058565.0,2065666.0,7101.0,42,R,2063368,2064174,808,395.1,497.3,3139,left
4,1,binary,42,1,trial,2058565.0,2065666.0,7101.0,42,R,2064192,2064386,196,431.9,524.1,2906,left
4,1,binary,42,1,trial,2058565.0,2065666.0,7101.0,42,R,2064400,2064620,222,456.1,550.2,2948,left
4,1,binary,42,1,trial,2058565.0,2065666.0,7101.0,42,R,2064652,2064962,312,700.3,579.0,2969,left
4,1,binary,42,1,trial,2058565.0,2065666.0,7101.0,42,R,2064974,2065070,98,665.4,568.3,2913,left
4,1,binary,42,1,trial,2058565.0,2065666.0,7101.0,42,R,2065106,2065268,164,449.9,446.3,2822,left
4,1,binary,42,1,trial,2058565.0,2065666.0,7101.0,42,R,2065296,2065838,544,389.1,496.9,2732,left
4,1,binary,43,2,fixationCross,2066782.0,2071515.0,4733.0,43,R,2066130,2066478,350,773.7,506.9,3104,NA
4,1,binary,43,2,trial,2066782.0,2071515.0,4733.0,43,R,2066506,2066918,414,948.5,520.8,3376,NA
4,1,binary,43,2,trial,2066782.0,2071515.0,4733.0,43,R,2066972,2067168,198,588.9,485.4,3422,left
4,1,binary,43,2,trial,2066782.0,2071515.0,4733.0,43,R,2067194,2067424,232,438.4,457.2,3169,left
4,1,binary,43,2,trial,2066782.0,2071515.0,4733.0,43,R,2067486,2067522,38,430.3,464.2,3021,left
4,1,binary,43,2,trial,2066782.0,2071515.0,4733.0,43,R,2067688,2067766,80,525.1,562.9,2978,left
4,1,binary,43,2,trial,2066782.0,2071515.0,4733.0,43,R,2067774,2067826,54,543.2,575.8,2977,left
4,1,binary,43,2,trial,2066782.0,2071515.0,4733.0,43,R,2067836,2067946,112,526.1,567.2,2982,left
4,1,binary,43,2,trial,2066782.0,2071515.0,4733.0,43,R,2067968,2068418,452,616.1,584.3,2971,left
4,1,binary,43,2,trial,2066782.0,2071515.0,4733.0,43,R,2068486,2068748,264,1373.9,499.6,2946,right
4,1,binary,43,2,trial,2066782.0,2071515.0,4733.0,43,R,2068766,2069194,430,1441.1,485.4,2795,right
4,1,binary,43,2,trial,2066782.0,2071515.0,4733.0,43,R,2069216,2069554,340,1517.5,392.3,2737,right
4,1,binary,43,2,trial,2066782.0,2071515.0,4733.0,43,R,2069582,2069820,240,1708.5,394.4,2878,NA
4,1,binary,43,2,trial,2066782.0,2071515.0,4733.0,43,R,2069852,2070012,162,1436.8,413.5,3039,right
4,1,binary,43,2,trial,2066782.0,2071515.0,4733.0,43,R,2070080,2070272,194,499.0,536.5,3050,left
4,1,binary,43,2,trial,2066782.0,2071515.0,4733.0,43,R,2070304,2070760,458,291.0,537.0,2916,left
4,1,binary,43,2,trial,2066782.0,2071515.0,4733.0,43,R,2070778,2070940,164,239.9,556.7,2836,left
4,1,binary,43,2,trial,2066782.0,2071515.0,4733.0,43,R,2070958,2071510,554,204.2,550.7,2862,NA
4,1,binary,43,2,trial,2066782.0,2071515.0,4733.0,43,R,2071568,2071722,156,1128.6,392.8,2989,NA
4,1,binary,44,1,fixationCross,2072666.0,2077882.0,5216.0,44,R,2072326,2072358,34,1176.0,408.2,3262,NA
4,1,binary,44,1,trial,2072666.0,2077882.0,5216.0,44,R,2072400,2072802,404,1017.2,482.7,3327,NA
4,1,binary,44,1,trial,2072666.0,2077882.0,5216.0,44,R,2072852,2073038,188,348.0,519.6,3280,left
4,1,binary,44,1,trial,2072666.0,2077882.0,5216.0,44,R,2073058,2073174,118,436.5,552.4,3095,left
4,1,binary,44,1,trial,2072666.0,2077882.0,5216.0,44,R,2073204,2073396,194,653.2,577.0,2851,left
4,1,binary,44,1,trial,2072666.0,2077882.0,5216.0,44,R,2073448,2073692,246,1322.7,496.4,2725,right
4,1,binary,44,1,trial,2072666.0,2077882.0,5216.0,44,R,2073716,2073996,282,1427.9,498.7,2691,right
4,1,binary,44,1,trial,2072666.0,2077882.0,5216.0,44,R,2074012,2074266,256,1386.7,464.0,2652,right
4,1,binary,44,1,trial,2072666.0,2077882.0,5216.0,44,R,2074330,2074594,266,528.0,574.6,2622,left
4,1,binary,44,1,trial,2072666.0,2077882.0,5216.0,44,R,2074626,2074940,316,335.0,522.7,2651,left
4,1,binary,44,1,trial,2072666.0,2077882.0,5216.0,44,R,2074970,2075450,482,640.3,575.0,2722,left
4,1,binary,44,1,trial,2072666.0,2077882.0,5216.0,44,R,2075478,2075682,206,505.5,557.3,2731,left
4,1,binary,44,1,trial,2072666.0,2077882.0,5216.0,44,R,2075712,2075998,288,291.8,544.4,2732,left
4,1,binary,44,1,trial,2072666.0,2077882.0,5216.0,44,R,2076024,2076178,156,342.1,575.6,2777,left
4,1,binary,44,1,trial,2072666.0,2077882.0,5216.0,44,R,2076206,2076910,706,369.6,504.4,2705,left
4,1,binary,44,1,trial,2072666.0,2077882.0,5216.0,44,R,2076974,2077236,264,1309.5,466.1,2644,right
4,1,binary,44,1,trial,2072666.0,2077882.0,5216.0,44,R,2077260,2077600,342,1390.2,470.0,2724,right
4,1,binary,44,1,postResponse,2072666.0,2077882.0,5216.0,44,R,2077668,2078216,550,397.4,488.9,2649,left
4,1,binary,45,1,fixationCross,2078949.0,2081616.0,2667.0,45,R,2078290,2078316,28,406.9,482.9,2644,left
4,1,binary,45,1,fixationCross,2078949.0,2081616.0,2667.0,45,R,2078534,2078622,90,1181.3,484.6,3005,NA
4,1,binary,45,1,fixationCross,2078949.0,2081616.0,2667.0,45,R,2078650,2078844,196,977.2,517.6,3059,NA
4,1,binary,45,1,trial,2078949.0,2081616.0,2667.0,45,R,2078854,2079094,242,948.1,523.1,3201,NA
4,1,binary,45,1,trial,2078949.0,2081616.0,2667.0,45,R,2079154,2079432,280,506.2,469.9,3255,left
4,1,binary,45,1,trial,2078949.0,2081616.0,2667.0,45,R,2079454,2079572,120,403.9,494.2,3053,left
4,1,binary,45,1,trial,2078949.0,2081616.0,2667.0,45,R,2079582,2079604,24,432.1,504.9,2973,left
4,1,binary,45,1,trial,2078949.0,2081616.0,2667.0,45,R,2079692,2079886,196,1352.2,487.6,2895,right
4,1,binary,45,1,trial,2078949.0,2081616.0,2667.0,45,R,2079910,2080206,298,1339.5,570.7,2740,right
4,1,binary,45,1,trial,2078949.0,2081616.0,2667.0,45,R,2080230,2080446,218,1453.3,477.5,2754,right
4,1,binary,45,1,trial,2078949.0,2081616.0,2667.0,45,R,2080470,2080630,162,1387.3,349.6,2740,right
4,1,binary,45,1,trial,2078949.0,2081616.0,2667.0,45,R,2080694,2081080,388,459.3,506.7,2663,left
4,1,binary,45,1,postResponse,2078949.0,2081616.0,2667.0,45,R,2081104,2081950,848,372.0,504.0,2752,left
4,1,binary,46,1,fixationCross,2082666.0,2089016.0,6350.0,46,R,2082024,2082344,322,386.0,497.0,2940,left
4,1,binary,46,1,fixationCross,2082666.0,2089016.0,6350.0,46,R,2082388,2082514,128,907.5,542.9,3175,NA
4,1,binary,46,1,trial,2082666.0,2089016.0,6350.0,46,R,2082526,2082796,272,943.0,543.1,3294,NA
4,1,binary,46,1,trial,2082666.0,2089016.0,6350.0,46,R,2082840,2083138,300,500.4,500.9,3362,left
4,1,binary,46,1,trial,2082666.0,2089016.0,6350.0,46,R,2083160,2083308,150,638.3,543.7,3147,left
4,1,binary,46,1,trial,2082666.0,2089016.0,6350.0,46,R,2083340,2083972,634,385.2,498.4,2733,left
4,1,binary,46,1,trial,2082666.0,2089016.0,6350.0,46,R,2083992,2084134,144,470.8,483.1,2633,left
4,1,binary,46,1,trial,2082666.0,2089016.0,6350.0,46,R,2084192,2084514,324,1344.2,478.9,2730,right
4,1,binary,46,1,trial,2082666.0,2089016.0,6350.0,46,R,2084544,2084978,436,1297.7,624.0,2776,right
4,1,binary,46,1,trial,2082666.0,2089016.0,6350.0,46,R,2085008,2085614,608,1429.7,482.2,2864,right
4,1,binary,46,1,trial,2082666.0,2089016.0,6350.0,46,R,2085640,2086038,400,1568.5,458.1,2890,right
4,1,binary,46,1,trial,2082666.0,2089016.0,6350.0,46,R,2086072,2086372,302,1308.3,507.4,2998,right
4,1,binary,46,1,trial,2082666.0,2089016.0,6350.0,46,R,2086392,2086708,318,1354.4,481.6,3128,right
4,1,binary,46,1,trial,2082666.0,2089016.0,6350.0,46,R,2086776,2087068,294,414.7,482.5,3055,left
4,1,binary,46,1,trial,2082666.0,2089016.0,6350.0,46,R,2087092,2087344,254,333.1,522.2,2803,left
4,1,binary,46,1,trial,2082666.0,2089016.0,6350.0,46,R,2087370,2087634,266,252.1,545.2,2622,left
4,1,binary,46,1,trial,2082666.0,2089016.0,6350.0,46,R,2087648,2087786,140,303.7,540.4,2613,left
4,1,binary,46,1,trial,2082666.0,2089016.0,6350.0,46,R,2087822,2087958,138,631.8,575.4,2685,left
4,1,binary,46,1,trial,2082666.0,2089016.0,6350.0,46,R,2087980,2088900,922,652.1,533.4,2662,left
4,1,binary,46,1,trial,2082666.0,2089016.0,6350.0,46,R,2088930,2089184,256,462.1,482.6,2679,left
4,1,binary,47,2,fixationCross,2090099.0,2094316.0,4217.0,47,R,2089558,2089780,224,804.5,496.1,2911,NA
4,1,binary,47,2,trial,2090099.0,2094316.0,4217.0,47,R,2089816,2090228,414,937.8,518.5,3133,NA
4,1,binary,47,2,trial,2090099.0,2094316.0,4217.0,47,R,2090284,2090434,152,584.7,500.0,3208,left
4,1,binary,47,2,trial,2090099.0,2094316.0,4217.0,47,R,2090476,2090688,214,511.3,572.9,3002,left
4,1,binary,47,2,trial,2090099.0,2094316.0,4217.0,47,R,2090760,2090996,238,1358.6,437.1,2827,right
4,1,binary,47,2,trial,2090099.0,2094316.0,4217.0,47,R,2091008,2091558,552,1355.4,465.2,2776,right
4,1,binary,47,2,trial,2090099.0,2094316.0,4217.0,47,R,2091584,2092030,448,1441.0,559.3,2795,right
4,1,binary,47,2,trial,2090099.0,2094316.0,4217.0,47,R,2092094,2092400,308,551.2,569.3,2813,left
4,1,binary,47,2,trial,2090099.0,2094316.0,4217.0,47,R,2092418,2092606,190,518.0,592.0,2731,left
4,1,binary,47,2,trial,2090099.0,2094316.0,4217.0,47,R,2092634,2093192,560,419.3,473.5,2570,left
4,1,binary,47,2,trial,2090099.0,2094316.0,4217.0,47,R,2093238,2093684,448,509.3,579.6,2842,left
4,1,binary,47,2,trial,2090099.0,2094316.0,4217.0,47,R,2093748,2093960,214,1236.6,587.0,2923,right
4,1,binary,47,2,trial,2090099.0,2094316.0,4217.0,47,R,2094000,2094484,486,1347.9,468.3,2867,right
4,1,binary,48,2,fixationCross,2095215.0,2098783.0,3568.0,48,R,2094732,2095212,482,914.9,481.6,3036,NA
4,1,binary,48,2,trial,2095215.0,2098783.0,3568.0,48,R,2095234,2095352,120,945.8,494.9,3196,NA
4,1,binary,48,2,trial,2095215.0,2098783.0,3568.0,48,R,2095408,2095562,156,491.1,470.0,3199,left
4,1,binary,48,2,trial,2095215.0,2098783.0,3568.0,48,R,2095586,2095668,84,524.0,417.2,3097,left
4,1,binary,48,2,trial,2095215.0,2098783.0,3568.0,48,R,2095700,2096172,474,527.6,399.9,2876,left
4,1,binary,48,2,trial,2095215.0,2098783.0,3568.0,48,R,2096242,2096414,174,1351.1,453.8,2922,right
4,1,binary,48,2,trial,2095215.0,2098783.0,3568.0,48,R,2096450,2096728,280,1514.7,542.6,2885,right
4,1,binary,48,2,trial,2095215.0,2098783.0,3568.0,48,R,2096750,2096832,84,1458.3,558.3,2858,right
4,1,binary,48,2,trial,2095215.0,2098783.0,3568.0,48,R,2096870,2097294,426,1294.1,415.5,2890,right
4,1,binary,48,2,trial,2095215.0,2098783.0,3568.0,48,R,2097356,2097684,330,579.8,548.5,3023,left
4,1,binary,48,2,trial,2095215.0,2098783.0,3568.0,48,R,2097712,2097848,138,464.7,489.0,3079,left
4,1,binary,48,2,trial,2095215.0,2098783.0,3568.0,48,R,2097924,2098318,396,1416.9,555.0,3099,right
4,1,binary,48,2,trial,2095215.0,2098783.0,3568.0,48,R,2098340,2098596,258,1480.8,557.4,2996,right
4,1,binary,48,2,trial,2095215.0,2098783.0,3568.0,48,R,2098622,2099030,410,1552.9,570.7,3053,right
4,1,binary,49,2,fixationCross,2100217.0,2105516.0,5299.0,49,R,2099230,2099938,710,874.6,464.3,3196,NA
4,1,binary,49,2,fixationCross,2100217.0,2105516.0,5299.0,49,R,2099958,2099992,36,881.4,516.3,3356,NA
4,1,binary,49,2,fixationCross,2100217.0,2105516.0,5299.0,49,R,2100018,2100208,192,966.1,530.4,3382,NA
4,1,binary,49,2,trial,2100217.0,2105516.0,5299.0,49,R,2100224,2100394,172,940.7,533.4,3374,NA
4,1,binary,49,2,trial,2100217.0,2105516.0,5299.0,49,R,2100470,2100766,298,473.9,525.5,3359,left
4,1,binary,49,2,trial,2100217.0,2105516.0,5299.0,49,R,2100778,2101160,384,500.2,550.7,3310,left
4,1,binary,49,2,trial,2100217.0,2105516.0,5299.0,49,R,2101188,2101460,274,555.5,397.2,3196,left
4,1,binary,49,2,trial,2100217.0,2105516.0,5299.0,49,R,2101486,2101728,244,479.3,418.5,3147,left
4,1,binary,49,2,trial,2100217.0,2105516.0,5299.0,49,R,2101778,2102074,298,297.6,539.8,3111,left
4,1,binary,49,2,trial,2100217.0,2105516.0,5299.0,49,R,2102114,2102246,134,669.5,608.1,3208,left
4,1,binary,49,2,trial,2100217.0,2105516.0,5299.0,49,R,2102314,2102442,130,1472.7,464.3,3294,right
4,1,binary,49,2,trial,2100217.0,2105516.0,5299.0,49,R,2102474,2102910,438,1501.6,415.5,3321,right
4,1,binary,49,2,trial,2100217.0,2105516.0,5299.0,49,R,2102950,2103382,434,1470.4,504.7,3227,right
4,1,binary,49,2,trial,2100217.0,2105516.0,5299.0,49,R,2103408,2103994,588,1452.6,576.6,3347,right
4,1,binary,49,2,trial,2100217.0,2105516.0,5299.0,49,R,2104022,2104308,288,1534.8,600.7,3369,right
4,1,binary,49,2,trial,2100217.0,2105516.0,5299.0,49,R,2104354,2104618,266,1421.4,442.7,3395,right
4,1,binary,49,2,trial,2100217.0,2105516.0,5299.0,49,R,2104642,2104964,324,1356.8,413.6,3360,right
4,1,binary,49,2,trial,2100217.0,2105516.0,5299.0,49,R,2105030,2105264,236,645.7,516.9,3316,left
4,1,binary,49,2,trial,2100217.0,2105516.0,5299.0,49,R,2105296,2105726,432,469.1,534.2,3218,left
4,1,binary,50,1,fixationCross,2106399.0,2110733.0,4334.0,50,R,2105942,2106016,76,765.1,513.9,3281,NA
4,1,binary,50,1,fixationCross,2106399.0,2110733.0,4334.0,50,R,2106132,2106338,208,1025.7,476.1,3394,NA
4,1,binary,50,1,trial,2106399.0,2110733.0,4334.0,50,R,2106364,2106542,180,963.2,515.9,3462,NA
4,1,binary,50,1,trial,2106399.0,2110733.0,4334.0,50,R,2106582,2106864,284,657.1,527.6,3511,left
4,1,binary,50,1,trial,2106399.0,2110733.0,4334.0,50,R,2106884,2107216,334,646.0,483.1,3343,left
4,1,binary,50,1,trial,2106399.0,2110733.0,4334.0,50,R,2107252,2107844,594,401.4,486.0,3189,left
4,1,binary,50,1,trial,2106399.0,2110733.0,4334.0,50,R,2107894,2108038,146,377.6,628.8,3104,left
4,1,binary,50,1,trial,2106399.0,2110733.0,4334.0,50,R,2108074,2108286,214,616.8,691.1,3082,left
4,1,binary,50,1,trial,2106399.0,2110733.0,4334.0,50,R,2108354,2108714,362,1366.7,501.6,2992,right
4,1,binary,50,1,trial,2106399.0,2110733.0,4334.0,50,R,2108736,2109112,378,1409.5,500.5,2868,right
4,1,binary,50,1,trial,2106399.0,2110733.0,4334.0,50,R,2109178,2109396,220,481.2,490.5,2845,left
4,1,binary,50,1,trial,2106399.0,2110733.0,4334.0,50,R,2109418,2109698,282,594.4,478.1,2956,left
4,1,binary,50,1,trial,2106399.0,2110733.0,4334.0,50,R,2109708,2109902,196,620.0,474.4,3074,left
4,1,binary,50,1,trial,2106399.0,2110733.0,4334.0,50,R,2109926,2110046,122,691.8,527.5,3161,left
4,1,binary,50,1,trial,2106399.0,2110733.0,4334.0,50,R,2110064,2110130,68,604.9,467.2,3192,left
4,1,binary,50,1,trial,2106399.0,2110733.0,4334.0,50,R,2110138,2110350,214,618.5,466.9,3229,left
4,1,binary,50,1,trial,2106399.0,2110733.0,4334.0,50,R,2110392,2110920,530,462.3,497.7,3262,left
4,2,continuous,1,77,fixationCross,2269551.0,2274085.0,4534.0,51,R,2267311,2267469,160,958.3,431.2,3636,NA
4,2,continuous,1,77,fixationCross,2269551.0,2274085.0,4534.0,51,R,2267499,2267731,234,985.4,413.3,3686,NA
4,2,continuous,1,77,fixationCross,2269551.0,2274085.0,4534.0,51,R,2269357,2269483,128,1000.8,528.0,3820,NA
4,2,continuous,1,77,trial,2269551.0,2274085.0,4534.0,51,R,2269673,2269713,42,988.6,534.6,3689,NA
4,2,continuous,1,77,trial,2269551.0,2274085.0,4534.0,51,R,2269941,2270075,136,626.7,913.9,3346,NA
4,2,continuous,1,77,trial,2269551.0,2274085.0,4534.0,51,R,2270125,2270267,144,601.9,1162.5,3159,NA
4,2,continuous,1,77,trial,2269551.0,2274085.0,4534.0,51,R,2270349,2270399,52,386.1,392.5,3057,left
4,2,continuous,1,77,trial,2269551.0,2274085.0,4534.0,51,R,2270597,2270731,136,952.1,1040.5,3033,likertHorizontal
4,2,continuous,1,77,trial,2269551.0,2274085.0,4534.0,51,R,2270789,2270991,204,457.6,398.8,2970,left
4,2,continuous,1,77,trial,2269551.0,2274085.0,4534.0,51,R,2271013,2271161,150,356.8,403.5,2999,left
4,2,continuous,1,77,trial,2269551.0,2274085.0,4534.0,51,R,2271233,2271849,618,1393.3,542.6,3055,right
4,2,continuous,1,77,trial,2269551.0,2274085.0,4534.0,51,R,2271941,2272087,148,413.7,404.5,2708,left
4,2,continuous,1,77,trial,2269551.0,2274085.0,4534.0,51,R,2272105,2272341,238,359.7,406.6,2690,left
4,2,continuous,1,77,trial,2269551.0,2274085.0,4534.0,51,R,2272421,2272741,322,1015.4,1015.7,2951,likertHorizontal
4,2,continuous,1,77,trial,2269551.0,2274085.0,4534.0,51,R,2272779,2272967,190,1322.8,981.3,3119,NA
4,2,continuous,1,77,trial,2269551.0,2274085.0,4534.0,51,R,2272991,2273303,314,1176.8,959.5,3209,likertHorizontal
4,2,continuous,1,77,trial,2269551.0,2274085.0,4534.0,51,R,2273359,2273999,642,1232.4,544.7,3350,right
4,2,continuous,1,77,trial,2269551.0,2274085.0,4534.0,51,R,2274039,2274195,158,1326.0,477.5,3411,right
4,2,continuous,1,77,trial,2269551.0,2274085.0,4534.0,51,R,2274231,2274381,152,1314.2,479.7,3440,right
4,2,continuous,2,20,fixationCross,2275168.0,2279651.0,4483.0,52,R,2274563,2274635,74,839.6,495.7,3359,NA
4,2,continuous,2,20,trial,2275168.0,2279651.0,4483.0,52,R,2274899,2275325,428,976.0,542.6,3584,NA
4,2,continuous,2,20,trial,2275168.0,2279651.0,4483.0,52,R,2275349,2275439,92,956.6,502.6,3674,NA
4,2,continuous,2,20,trial,2275168.0,2279651.0,4483.0,52,R,2275491,2275657,168,666.2,474.2,3445,left
4,2,continuous,2,20,trial,2275168.0,2279651.0,4483.0,52,R,2275673,2275943,272,688.8,478.2,3157,left
4,2,continuous,2,20,trial,2275168.0,2279651.0,4483.0,52,R,2276005,2276195,192,1409.6,452.1,3025,right
4,2,continuous,2,20,trial,2275168.0,2279651.0,4483.0,52,R,2276209,2276403,196,1400.8,429.4,2970,right
4,2,continuous,2,20,trial,2275168.0,2279651.0,4483.0,52,R,2276429,2276649,222,1445.4,525.5,2901,right
4,2,continuous,2,20,trial,2275168.0,2279651.0,4483.0,52,R,2276683,2276755,74,1443.1,525.0,2920,right
4,2,continuous,2,20,trial,2275168.0,2279651.0,4483.0,52,R,2276777,2277027,252,1383.9,485.2,2944,right
4,2,continuous,2,20,trial,2275168.0,2279651.0,4483.0,52,R,2277085,2277645,562,667.7,478.3,2923,left
4,2,continuous,2,20,trial,2275168.0,2279651.0,4483.0,52,R,2277681,2277825,146,248.7,409.7,2943,left
4,2,continuous,2,20,trial,2275168.0,2279651.0,4483.0,52,R,2277923,2278121,200,655.1,1113.1,3152,NA
4,2,continuous,2,20,trial,2275168.0,2279651.0,4483.0,52,R,2278149,2278329,182,782.2,1061.0,3218,likertHorizontal
4,2,continuous,2,20,trial,2275168.0,2279651.0,4483.0,52,R,2278379,2279833,1456,675.3,491.3,3380,left
4,2,continuous,3,100,fixationCross,2280735.0,2286652.0,5917.0,53,R,2280069,2280199,132,846.4,452.0,3525,NA
4,2,continuous,3,100,fixationCross,2280735.0,2286652.0,5917.0,53,R,2280249,2280305,58,839.9,453.9,3533,NA
4,2,continuous,3,100,fixationCross,2280735.0,2286652.0,5917.0,53,R,2280333,2280359,28,845.7,452.8,3551,NA
4,2,continuous,3,100,fixationCross,2280735.0,2286652.0,5917.0,53,R,2280397,2280419,24,849.6,452.4,3575,NA
4,2,continuous,3,100,fixationCross,2280735.0,2286652.0,5917.0,53,R,2280451,2280619,170,963.8,527.9,3601,NA
4,2,continuous,3,100,trial,2280735.0,2286652.0,5917.0,53,R,2280637,2280883,248,991.2,539.1,3646,NA
4,2,continuous,3,100,trial,2280735.0,2286652.0,5917.0,53,R,2280935,2280997,64,523.6,419.8,3623,left
4,2,continuous,3,100,trial,2280735.0,2286652.0,5917.0,53,R,2281007,2281097,92,546.8,431.2,3584,left
4,2,continuous,3,100,trial,2280735.0,2286652.0,5917.0,53,R,2281135,2281275,142,424.3,417.5,3379,left
4,2,continuous,3,100,trial,2280735.0,2286652.0,5917.0,53,R,2281351,2281531,182,1348.8,494.1,3186,right
4,2,continuous,3,100,trial,2280735.0,2286652.0,5917.0,53,R,2281551,2281801,252,1360.4,460.9,2980,right
4,2,continuous,3,100,trial,2280735.0,2286652.0,5917.0,53,R,2281829,2281961,134,1493.1,533.9,2854,right
4,2,continuous,3,100,trial,2280735.0,2286652.0,5917.0,53,R,2281985,2282195,212,1396.1,563.0,2848,right
4,2,continuous,3,100,trial,2280735.0,2286652.0,5917.0,53,R,2282263,2282635,374,424.1,424.5,2901,left
4,2,continuous,3,100,trial,2280735.0,2286652.0,5917.0,53,R,2282663,2282849,188,246.2,409.3,2845,left
4,2,continuous,3,100,trial,2280735.0,2286652.0,5917.0,53,R,2282873,2283245,374,405.0,489.4,2803,left
4,2,continuous,3,100,trial,2280735.0,2286652.0,5917.0,53,R,2283269,2283597,330,492.5,378.6,2808,left
4,2,continuous,3,100,trial,2280735.0,2286652.0,5917.0,53,R,2283657,2283889,234,1356.8,483.7,2838,right
4,2,continuous,3,100,trial,2280735.0,2286652.0,5917.0,53,R,2283897,2284401,506,1341.2,466.2,2802,right
4,2,continuous,3,100,trial,2280735.0,2286652.0,5917.0,53,R,2284475,2284591,118,1460.7,1052.9,2934,NA
4,2,continuous,3,100,trial,2280735.0,2286652.0,5917.0,53,R,2284613,2284971,360,1410.3,1017.0,3122,NA
4,2,continuous,3,100,trial,2280735.0,2286652.0,5917.0,53,R,2285031,2285401,372,1338.7,464.7,3297,right
4,2,continuous,3,100,trial,2280735.0,2286652.0,5917.0,53,R,2285423,2285665,244,1441.8,500.0,3293,right
4,2,continuous,3,100,trial,2280735.0,2286652.0,5917.0,53,R,2285691,2285925,236,1367.7,481.1,3395,right
4,2,continuous,3,100,trial,2280735.0,2286652.0,5917.0,53,R,2285935,2286113,180,1363.1,463.7,3403,right
4,2,continuous,3,100,trial,2280735.0,2286652.0,5917.0,53,R,2286259,2286595,338,1343.0,523.9,3198,right
4,2,continuous,3,100,trial,2280735.0,2286652.0,5917.0,53,R,2286613,2286853,242,1310.0,492.6,3162,right
4,2,continuous,4,14,fixationCross,2287735.0,2290185.0,2450.0,54,R,2287097,2287101,6,1099.0,467.2,3179,NA
4,2,continuous,4,14,fixationCross,2287735.0,2290185.0,2450.0,54,R,2287205,2287263,60,1089.4,463.7,3259,NA
4,2,continuous,4,14,trial,2287735.0,2290185.0,2450.0,54,R,2287521,2287887,368,957.8,535.9,3516,NA
4,2,continuous,4,14,trial,2287735.0,2290185.0,2450.0,54,R,2287941,2288135,196,681.0,487.7,3526,left
4,2,continuous,4,14,trial,2287735.0,2290185.0,2450.0,54,R,2288247,2288271,26,1347.2,419.4,3356,right
4,2,continuous,4,14,trial,2287735.0,2290185.0,2450.0,54,R,2288673,2288829,158,1427.7,601.2,3139,right
4,2,continuous,4,14,trial,2287735.0,2290185.0,2450.0,54,R,2288901,2289203,304,253.8,409.5,3017,left
4,2,continuous,4,14,trial,2287735.0,2290185.0,2450.0,54,R,2289221,2289525,306,197.0,418.4,2911,NA
4,2,continuous,4,14,trial,2287735.0,2290185.0,2450.0,54,R,2289627,2289653,28,675.3,1124.1,2903,NA
4,2,continuous,4,14,trial,2287735.0,2290185.0,2450.0,54,R,2289675,2289721,48,676.3,1129.3,2908,NA
4,2,continuous,4,14,trial,2287735.0,2290185.0,2450.0,54,R,2289765,2289789,26,669.5,1112.4,2924,NA
4,2,continuous,4,14,trial,2287735.0,2290185.0,2450.0,54,R,2289861,2290023,164,626.3,554.0,3009,left
4,2,continuous,4,14,trial,2287735.0,2290185.0,2450.0,54,R,2290083,2290365,284,1298.8,453.9,3136,right
4,2,continuous,5,73,fixationCross,2291368.0,2295168.0,3800.0,55,R,2290877,2291065,190,1174.8,409.8,3506,NA
4,2,continuous,5,73,fixationCross,2291368.0,2295168.0,3800.0,55,R,2291115,2291187,74,980.0,510.8,3542,NA
4,2,continuous,5,73,fixationCross,2291368.0,2295168.0,3800.0,55,R,2291265,2291347,84,995.5,507.6,3604,NA
4,2,continuous,5,73,trial,2291368.0,2295168.0,3800.0,55,R,2291375,2291549,176,944.7,515.6,3640,NA
4,2,continuous,5,73,trial,2291368.0,2295168.0,3800.0,55,R,2291585,2291749,166,704.4,487.0,3690,left
4,2,continuous,5,73,trial,2291368.0,2295168.0,3800.0,55,R,2292279,2292583,306,443.5,426.2,3001,left
4,2,continuous,5,73,trial,2291368.0,2295168.0,3800.0,55,R,2292609,2292911,304,694.5,468.5,2990,left
4,2,continuous,5,73,trial,2291368.0,2295168.0,3800.0,55,R,2292947,2293171,226,271.0,410.8,3115,left
4,2,continuous,5,73,trial,2291368.0,2295168.0,3800.0,55,R,2293187,2293303,118,250.5,411.6,3210,left
4,2,continuous,5,73,trial,2291368.0,2295168.0,3800.0,55,R,2293345,2293523,180,710.5,471.2,3323,left
4,2,continuous,5,73,trial,2291368.0,2295168.0,3800.0,55,R,2293571,2293735,166,413.6,429.6,3189,left
4,2,continuous,5,73,trial,2291368.0,2295168.0,3800.0,55,R,2293775,2293853,80,393.5,468.8,3150,left
4,2,continuous,5,73,trial,2291368.0,2295168.0,3800.0,55,R,2293865,2293971,108,390.4,465.8,3138,left
4,2,continuous,5,73,trial,2291368.0,2295168.0,3800.0,55,R,2293983,2294175,194,392.6,466.1,3089,left
4,2,continuous,5,73,trial,2291368.0,2295168.0,3800.0,55,R,2294221,2294375,156,637.3,422.8,2985,left
4,2,continuous,5,73,trial,2291368.0,2295168.0,3800.0,55,R,2294429,2294749,322,1295.0,512.4,2910,right
4,2,continuous,5,73,trial,2291368.0,2295168.0,3800.0,55,R,2294771,2295019,250,1386.9,528.1,2847,right
4,2,continuous,5,73,trial,2291368.0,2295168.0,3800.0,55,R,2295045,2295065,22,1382.2,523.3,2838,right
4,2,continuous,5,73,trial,2291368.0,2295168.0,3800.0,55,R,2295153,2295241,90,1386.6,517.4,2807,right
4,2,continuous,6,1,fixationCross,2296218.0,2300051.0,3833.0,56,R,2295641,2295909,270,810.2,459.3,2921,NA
4,2,continuous,6,1,trial,2296218.0,2300051.0,3833.0,56,R,2295937,2296363,428,973.9,516.6,3213,NA
4,2,continuous,6,1,trial,2296218.0,2300051.0,3833.0,56,R,2296411,2296531,122,482.5,416.8,3282,left
4,2,continuous,6,1,trial,2296218.0,2300051.0,3833.0,56,R,2296555,2296671,118,588.0,420.5,3227,left
4,2,continuous,6,1,trial,2296218.0,2300051.0,3833.0,56,R,2296699,2297145,448,661.4,470.9,2986,left
4,2,continuous,6,1,trial,2296218.0,2300051.0,3833.0,56,R,2297455,2297481,28,1430.8,457.0,2875,right
4,2,continuous,6,1,trial,2296218.0,2300051.0,3833.0,56,R,2298881,2299571,692,634.5,482.2,2888,left
4,2,continuous,6,1,trial,2296218.0,2300051.0,3833.0,56,R,2299581,2299757,178,664.3,477.4,2966,left
4,2,continuous,6,1,trial,2296218.0,2300051.0,3833.0,56,R,2299831,2300065,236,542.1,1050.0,3101,NA
4,2,continuous,6,1,trial,2296218.0,2300051.0,3833.0,56,R,2300123,2300313,192,606.6,369.4,3132,left
4,2,continuous,7,66,fixationCross,2301485.0,2307002.0,5517.0,57,R,2300563,2300653,92,1043.7,448.5,3103,NA
4,2,continuous,7,66,fixationCross,2301485.0,2307002.0,5517.0,57,R,2301299,2301339,42,975.6,495.2,3424,NA
4,2,continuous,7,66,trial,2301485.0,2307002.0,5517.0,57,R,2301497,2301601,106,978.2,495.8,3450,NA
4,2,continuous,7,66,trial,2301485.0,2307002.0,5517.0,57,R,2301685,2301827,144,479.6,415.2,3418,left
4,2,continuous,7,66,trial,2301485.0,2307002.0,5517.0,57,R,2301853,2301973,122,605.4,477.2,3324,left
4,2,continuous,7,66,trial,2301485.0,2307002.0,5517.0,57,R,2302013,2302153,142,571.6,624.6,3146,left
4,2,continuous,7,66,trial,2301485.0,2307002.0,5517.0,57,R,2302327,2302373,48,1424.4,533.4,3005,right
4,2,continuous,7,66,trial,2301485.0,2307002.0,5517.0,57,R,2302649,2302741,94,1430.2,450.5,2752,right
4,2,continuous,7,66,trial,2301485.0,2307002.0,5517.0,57,R,2302851,2302881,32,1422.5,445.4,2673,right
4,2,continuous,7,66,trial,2301485.0,2307002.0,5517.0,57,R,2302979,2303051,74,1400.8,453.2,2638,right
4,2,continuous,7,66,trial,2301485.0,2307002.0,5517.0,57,R,2303093,2303165,74,1415.5,544.6,2660,right
4,2,continuous,7,66,trial,2301485.0,2307002.0,5517.0,57,R,2303481,2303549,70,1412.5,547.0,2729,right
