participantNo,block,task,blockTrial,response,trialStage,trialStartTime,trialFinishTime,rt,trial,eye,fixStart,fixEnd,fixLength,fixPosX,fixPosY,dilation,aoi
16,1,binary,1,1,fixationCross,1148388.0,1150155.0,1767.0,1,R,1147494,1147720,228,794.8,681.5,6128,NA
16,1,binary,1,1,fixationCross,1148388.0,1150155.0,1767.0,1,R,1147758,1147944,188,931.4,819.8,6196,likertHorizontal
16,1,binary,1,1,fixationCross,1148388.0,1150155.0,1767.0,1,R,1147982,1148218,238,969.6,506.4,6230,NA
16,1,binary,1,1,trial,1148388.0,1150155.0,1767.0,1,R,1148240,1148546,308,985.4,536.6,6308,NA
16,1,binary,1,1,trial,1148388.0,1150155.0,1767.0,1,R,1148592,1148810,220,558.1,518.6,6144,left
16,1,binary,1,1,trial,1148388.0,1150155.0,1767.0,1,R,1148882,1149132,252,1465.0,507.8,5475,right
16,1,binary,1,1,trial,1148388.0,1150155.0,1767.0,1,R,1149158,1149340,184,1420.3,619.6,5355,right
16,1,binary,1,1,trial,1148388.0,1150155.0,1767.0,1,R,1149402,1149694,294,564.1,512.2,5728,left
16,1,binary,1,1,trial,1148388.0,1150155.0,1767.0,1,R,1149718,1149902,186,478.9,585.5,5770,left
16,1,binary,1,1,trial,1148388.0,1150155.0,1767.0,1,R,1149962,1150112,152,470.9,960.7,5912,NA
16,1,binary,1,1,trial,1148388.0,1150155.0,1767.0,1,R,1150148,1150382,236,453.8,1045.8,5984,NA
16,1,binary,1,1,postResponse,1148388.0,1150155.0,1767.0,1,R,1150434,1150522,90,752.4,537.4,5974,NA
16,1,binary,2,1,fixationCross,1151305.0,1153221.0,1916.0,2,R,1150622,1150714,94,753.3,534.0,6130,NA
16,1,binary,2,1,fixationCross,1151305.0,1153221.0,1916.0,2,R,1150748,1150982,236,555.8,493.0,6283,left
16,1,binary,2,1,fixationCross,1151305.0,1153221.0,1916.0,2,R,1151022,1151226,206,953.2,523.3,6350,NA
16,1,binary,2,1,trial,1151305.0,1153221.0,1916.0,2,R,1151236,1151452,218,972.1,533.6,6377,NA
16,1,binary,2,1,trial,1151305.0,1153221.0,1916.0,2,R,1151498,1151648,152,601.1,429.8,6382,left
16,1,binary,2,1,trial,1151305.0,1153221.0,1916.0,2,R,1151674,1151832,160,553.7,535.0,5994,left
16,1,binary,2,1,trial,1151305.0,1153221.0,1916.0,2,R,1151856,1151970,116,470.6,572.4,5781,left
16,1,binary,2,1,trial,1151305.0,1153221.0,1916.0,2,R,1152040,1152444,406,1407.9,542.0,5309,right
16,1,binary,2,1,trial,1151305.0,1153221.0,1916.0,2,R,1152514,1152670,158,685.5,621.7,5466,left
16,1,binary,2,1,trial,1151305.0,1153221.0,1916.0,2,R,1152704,1152890,188,521.4,589.3,5565,left
16,1,binary,2,1,trial,1151305.0,1153221.0,1916.0,2,R,1152906,1153052,148,467.7,601.8,5488,left
16,1,binary,2,1,trial,1151305.0,1153221.0,1916.0,2,R,1153118,1153482,366,1424.3,545.3,5157,right
16,1,binary,2,1,postResponse,1151305.0,1153221.0,1916.0,2,R,1153534,1153572,40,943.5,478.1,5271,NA
16,1,binary,3,1,fixationCross,1154371.0,1157421.0,3050.0,3,R,1153646,1153926,282,940.4,473.3,5602,NA
16,1,binary,3,1,fixationCross,1154371.0,1157421.0,3050.0,3,R,1153942,1154160,220,898.3,452.2,5959,NA
16,1,binary,3,1,trial,1154371.0,1157421.0,3050.0,3,R,1154186,1154542,358,966.2,511.0,6174,NA
16,1,binary,3,1,trial,1154371.0,1157421.0,3050.0,3,R,1154590,1154872,284,464.6,490.8,6001,left
16,1,binary,3,1,trial,1154371.0,1157421.0,3050.0,3,R,1154898,1154936,40,570.5,561.4,5535,left
16,1,binary,3,1,trial,1154371.0,1157421.0,3050.0,3,R,1154998,1155282,286,1425.5,494.2,5063,right
16,1,binary,3,1,trial,1154371.0,1157421.0,3050.0,3,R,1155298,1155488,192,1451.8,458.4,4905,right
16,1,binary,3,1,trial,1154371.0,1157421.0,3050.0,3,R,1155514,1155722,210,1625.8,577.2,4845,right
16,1,binary,3,1,trial,1154371.0,1157421.0,3050.0,3,R,1155754,1155856,104,1418.7,435.0,4838,right
16,1,binary,3,1,trial,1154371.0,1157421.0,3050.0,3,R,1155922,1156170,250,507.3,489.3,4991,left
16,1,binary,3,1,trial,1154371.0,1157421.0,3050.0,3,R,1156234,1156524,292,1488.5,456.9,4841,right
16,1,binary,3,1,trial,1154371.0,1157421.0,3050.0,3,R,1156540,1156684,146,1446.0,501.6,4855,right
16,1,binary,3,1,trial,1154371.0,1157421.0,3050.0,3,R,1156714,1157044,332,1608.2,605.7,4903,right
16,1,binary,3,1,trial,1154371.0,1157421.0,3050.0,3,R,1157118,1157266,150,685.2,748.2,5220,NA
16,1,binary,3,1,trial,1154371.0,1157421.0,3050.0,3,R,1157304,1157594,292,432.0,566.3,5188,left
16,1,binary,3,1,postResponse,1154371.0,1157421.0,3050.0,3,R,1157622,1157764,144,607.3,596.6,5203,left
16,1,binary,4,1,fixationCross,1158587.0,1161272.0,2685.0,4,R,1157838,1157966,130,608.5,593.4,5420,left
16,1,binary,4,1,fixationCross,1158587.0,1161272.0,2685.0,4,R,1157996,1158252,258,477.8,503.0,5667,left
16,1,binary,4,1,fixationCross,1158587.0,1161272.0,2685.0,4,R,1158298,1158528,232,943.4,514.4,5829,NA
16,1,binary,4,1,trial,1158587.0,1161272.0,2685.0,4,R,1158544,1158734,192,960.4,544.8,5976,NA
16,1,binary,4,1,trial,1158587.0,1161272.0,2685.0,4,R,1158778,1158970,194,582.4,485.9,6003,left
16,1,binary,4,1,trial,1158587.0,1161272.0,2685.0,4,R,1158990,1159206,218,637.4,500.7,5632,left
16,1,binary,4,1,trial,1158587.0,1161272.0,2685.0,4,R,1159264,1159666,404,1419.4,499.3,5183,right
16,1,binary,4,1,trial,1158587.0,1161272.0,2685.0,4,R,1159690,1159874,186,1487.8,568.7,5163,right
16,1,binary,4,1,trial,1158587.0,1161272.0,2685.0,4,R,1159910,1160030,122,1301.9,412.4,5278,right
16,1,binary,4,1,trial,1158587.0,1161272.0,2685.0,4,R,1160090,1160306,218,593.9,492.8,5448,left
16,1,binary,4,1,trial,1158587.0,1161272.0,2685.0,4,R,1160320,1160516,198,629.4,495.2,5367,left
16,1,binary,4,1,trial,1158587.0,1161272.0,2685.0,4,R,1160586,1160862,278,1408.0,535.6,5236,right
16,1,binary,4,1,trial,1158587.0,1161272.0,2685.0,4,R,1160886,1161080,196,1482.7,591.8,5236,right
16,1,binary,4,1,postResponse,1158587.0,1161272.0,2685.0,4,R,1161114,1161590,478,1298.7,433.1,5168,right
16,1,binary,5,2,fixationCross,1162438.0,1163938.0,1500.0,5,R,1161742,1161922,182,757.9,490.5,5540,NA
16,1,binary,5,2,fixationCross,1162438.0,1163938.0,1500.0,5,R,1161968,1162182,216,1019.6,649.3,5775,NA
16,1,binary,5,2,trial,1162438.0,1163938.0,1500.0,5,R,1162212,1162566,356,954.4,526.5,5951,NA
16,1,binary,5,2,trial,1162438.0,1163938.0,1500.0,5,R,1162622,1162792,172,551.7,488.1,5953,left
16,1,binary,5,2,trial,1162438.0,1163938.0,1500.0,5,R,1162820,1162942,124,493.8,613.1,5679,left
16,1,binary,5,2,trial,1162438.0,1163938.0,1500.0,5,R,1163004,1163372,370,1464.8,580.8,5153,right
16,1,binary,5,2,trial,1162438.0,1163938.0,1500.0,5,R,1163400,1163684,286,1330.5,702.6,5114,right
16,1,binary,5,2,trial,1162438.0,1163938.0,1500.0,5,R,1163750,1163984,236,552.6,533.1,5456,left
16,1,binary,5,2,postResponse,1162438.0,1163938.0,1500.0,5,R,1164044,1164288,246,1335.7,463.1,5289,right
16,1,binary,6,1,fixationCross,1165021.0,1166954.0,1933.0,6,R,1164426,1164712,288,1086.5,473.8,5662,NA
16,1,binary,6,1,fixationCross,1165021.0,1166954.0,1933.0,6,R,1164742,1164982,242,952.9,541.3,5984,NA
16,1,binary,6,1,trial,1165021.0,1166954.0,1933.0,6,R,1164992,1165158,168,973.9,549.1,6027,NA
16,1,binary,6,1,trial,1165021.0,1166954.0,1933.0,6,R,1165202,1165406,206,618.0,495.4,5998,left
16,1,binary,6,1,trial,1165021.0,1166954.0,1933.0,6,R,1165434,1165634,202,476.8,504.0,5715,left
16,1,binary,6,1,trial,1165021.0,1166954.0,1933.0,6,R,1165652,1165752,102,411.9,500.4,5526,left
16,1,binary,6,1,trial,1165021.0,1166954.0,1933.0,6,R,1165818,1166258,442,1428.8,432.8,5142,right
16,1,binary,6,1,trial,1165021.0,1166954.0,1933.0,6,R,1166296,1166514,220,1475.8,553.1,5176,right
16,1,binary,6,1,trial,1165021.0,1166954.0,1933.0,6,R,1166586,1166860,276,465.7,540.9,5486,left
16,1,binary,6,1,trial,1165021.0,1166954.0,1933.0,6,R,1166884,1167170,288,376.9,496.8,5422,left
16,1,binary,6,1,postResponse,1165021.0,1166954.0,1933.0,6,R,1167212,1167304,94,636.4,517.9,5410,left
16,1,binary,7,1,fixationCross,1168188.0,1170788.0,2600.0,7,R,1167412,1167718,308,692.2,495.1,5647,left
16,1,binary,7,1,fixationCross,1168188.0,1170788.0,2600.0,7,R,1167752,1167868,118,954.1,527.0,5931,NA
16,1,binary,7,1,trial,1168188.0,1170788.0,2600.0,7,R,1168078,1168356,280,955.1,517.4,6045,NA
16,1,binary,7,1,trial,1168188.0,1170788.0,2600.0,7,R,1168400,1168578,180,539.6,496.2,6060,left
16,1,binary,7,1,trial,1168188.0,1170788.0,2600.0,7,R,1168618,1168746,130,491.7,622.7,5671,left
16,1,binary,7,1,trial,1168188.0,1170788.0,2600.0,7,R,1168810,1169006,198,1438.0,547.7,5094,right
16,1,binary,7,1,trial,1168188.0,1170788.0,2600.0,7,R,1169028,1169260,234,1375.2,589.0,4957,right
16,1,binary,7,1,trial,1168188.0,1170788.0,2600.0,7,R,1169294,1169470,178,1549.5,420.0,4894,right
16,1,binary,7,1,trial,1168188.0,1170788.0,2600.0,7,R,1169482,1169782,302,1530.7,439.0,5002,right
16,1,binary,7,1,trial,1168188.0,1170788.0,2600.0,7,R,1169856,1170096,242,512.9,552.3,5393,left
16,1,binary,7,1,trial,1168188.0,1170788.0,2600.0,7,R,1170124,1170288,166,372.3,575.6,5239,left
16,1,binary,7,1,trial,1168188.0,1170788.0,2600.0,7,R,1170320,1170618,300,338.1,428.1,4964,left
16,1,binary,7,1,trial,1168188.0,1170788.0,2600.0,7,R,1170656,1170770,116,548.6,587.0,4947,left
16,1,binary,7,1,postResponse,1168188.0,1170788.0,2600.0,7,R,1170834,1171128,296,1462.0,548.1,4814,right
16,1,binary,8,2,fixationCross,1171721.0,1174871.0,3150.0,8,R,1171208,1171502,296,1028.0,598.7,5204,NA
16,1,binary,8,2,trial,1171721.0,1174871.0,3150.0,8,R,1171598,1171764,168,928.7,501.0,5621,NA
16,1,binary,8,2,trial,1171721.0,1174871.0,3150.0,8,R,1171788,1171890,104,964.6,532.0,5771,NA
16,1,binary,8,2,trial,1171721.0,1174871.0,3150.0,8,R,1171936,1172334,400,478.9,561.0,5647,left
16,1,binary,8,2,trial,1171721.0,1174871.0,3150.0,8,R,1172398,1172622,226,1439.9,544.4,4976,right
16,1,binary,8,2,trial,1171721.0,1174871.0,3150.0,8,R,1172642,1172980,340,1363.5,514.4,4904,right
16,1,binary,8,2,trial,1171721.0,1174871.0,3150.0,8,R,1173054,1173290,238,485.1,573.8,5110,left
16,1,binary,8,2,trial,1171721.0,1174871.0,3150.0,8,R,1173322,1173606,286,318.4,603.6,4993,left
16,1,binary,8,2,trial,1171721.0,1174871.0,3150.0,8,R,1173634,1173822,190,476.9,549.0,4917,left
16,1,binary,8,2,trial,1171721.0,1174871.0,3150.0,8,R,1173886,1174306,422,1400.5,552.4,4908,right
16,1,binary,8,2,trial,1171721.0,1174871.0,3150.0,8,R,1174332,1174640,310,1467.0,589.8,5204,right
16,1,binary,8,2,trial,1171721.0,1174871.0,3150.0,8,R,1174660,1175176,518,1517.6,543.7,5058,right
16,1,binary,9,2,fixationCross,1176121.0,1179455.0,3334.0,9,R,1175310,1175544,236,696.4,452.0,5495,left
16,1,binary,9,2,fixationCross,1176121.0,1179455.0,3334.0,9,R,1175576,1175740,166,506.4,483.7,5697,left
16,1,binary,9,2,fixationCross,1176121.0,1179455.0,3334.0,9,R,1175828,1175966,140,909.7,547.5,5756,NA
16,1,binary,9,2,trial,1176121.0,1179455.0,3334.0,9,R,1175988,1176274,288,962.6,553.0,5907,NA
16,1,binary,9,2,trial,1176121.0,1179455.0,3334.0,9,R,1176320,1176582,264,560.8,551.1,6011,left
16,1,binary,9,2,trial,1176121.0,1179455.0,3334.0,9,R,1176606,1176798,194,462.6,577.2,5652,left
16,1,binary,9,2,trial,1176121.0,1179455.0,3334.0,9,R,1176824,1176926,104,570.2,614.3,5509,left
16,1,binary,9,2,trial,1176121.0,1179455.0,3334.0,9,R,1176988,1177192,206,1450.2,524.3,5151,right
16,1,binary,9,2,trial,1176121.0,1179455.0,3334.0,9,R,1177220,1177700,482,1629.0,580.5,5025,right
16,1,binary,9,2,trial,1176121.0,1179455.0,3334.0,9,R,1177740,1177928,190,1367.3,446.8,5223,right
16,1,binary,9,2,trial,1176121.0,1179455.0,3334.0,9,R,1177950,1178068,120,1432.9,467.4,5186,right
16,1,binary,9,2,trial,1176121.0,1179455.0,3334.0,9,R,1178098,1178326,230,1633.3,567.2,5111,right
16,1,binary,9,2,trial,1176121.0,1179455.0,3334.0,9,R,1178400,1178858,460,556.7,572.5,5254,left
16,1,binary,9,2,trial,1176121.0,1179455.0,3334.0,9,R,1178886,1179054,170,400.5,694.3,5157,left
16,1,binary,9,2,trial,1176121.0,1179455.0,3334.0,9,R,1179130,1179334,206,1582.1,510.4,4938,right
16,1,binary,9,2,postResponse,1176121.0,1179455.0,3334.0,9,R,1179360,1179790,432,1652.8,591.5,4830,right
16,1,binary,10,2,fixationCross,1180605.0,1182388.0,1783.0,10,R,1180150,1180290,142,783.8,509.1,5452,NA
16,1,binary,10,2,trial,1180605.0,1182388.0,1783.0,10,R,1180320,1180756,438,957.4,536.5,5612,NA
16,1,binary,10,2,trial,1180605.0,1182388.0,1783.0,10,R,1180800,1180968,170,592.9,512.3,5633,left
16,1,binary,10,2,trial,1180605.0,1182388.0,1783.0,10,R,1180988,1181138,152,552.9,468.9,5374,left
16,1,binary,10,2,trial,1180605.0,1182388.0,1783.0,10,R,1181212,1181462,252,1523.1,483.5,4941,right
16,1,binary,10,2,trial,1180605.0,1182388.0,1783.0,10,R,1181476,1181796,322,1501.6,456.3,4871,right
16,1,binary,10,2,trial,1180605.0,1182388.0,1783.0,10,R,1181864,1182130,268,568.3,464.7,5212,left
16,1,binary,10,2,postResponse,1180605.0,1182388.0,1783.0,10,R,1182138,1182726,590,550.3,474.9,5157,left
16,1,binary,11,1,fixationCross,1183505.0,1185488.0,1983.0,11,R,1182826,1182882,58,691.7,530.4,5243,left
16,1,binary,11,1,fixationCross,1183505.0,1185488.0,1983.0,11,R,1183014,1183190,178,738.1,501.0,5503,NA
16,1,binary,11,1,fixationCross,1183505.0,1185488.0,1983.0,11,R,1183226,1183472,248,999.1,538.8,5748,NA
16,1,binary,11,1,trial,1183505.0,1185488.0,1983.0,11,R,1183484,1183666,184,973.4,561.9,5921,NA
16,1,binary,11,1,trial,1183505.0,1185488.0,1983.0,11,R,1183718,1183972,256,443.1,549.7,5757,left
16,1,binary,11,1,trial,1183505.0,1185488.0,1983.0,11,R,1184050,1184314,266,1508.9,532.1,5010,right
16,1,binary,11,1,trial,1183505.0,1185488.0,1983.0,11,R,1184342,1184558,218,1646.2,613.7,4840,right
16,1,binary,11,1,trial,1183505.0,1185488.0,1983.0,11,R,1184592,1184708,118,1436.7,459.6,4806,right
16,1,binary,11,1,trial,1183505.0,1185488.0,1983.0,11,R,1184782,1185030,250,429.7,559.1,4943,left
16,1,binary,11,1,trial,1183505.0,1185488.0,1983.0,11,R,1185052,1185764,714,360.8,581.8,5010,left
16,1,binary,11,1,postResponse,1183505.0,1185488.0,1983.0,11,R,1185790,1185828,40,491.3,533.9,5263,left
16,1,binary,12,2,fixationCross,1186705.0,1189221.0,2516.0,12,R,1185928,1186074,148,495.4,530.0,5446,left
16,1,binary,12,2,fixationCross,1186705.0,1189221.0,2516.0,12,R,1186088,1186382,296,484.5,488.8,5646,left
16,1,binary,12,2,fixationCross,1186705.0,1189221.0,2516.0,12,R,1186430,1186676,248,935.7,494.7,5687,NA
16,1,binary,12,2,trial,1186705.0,1189221.0,2516.0,12,R,1186692,1186922,232,966.3,524.1,5779,NA
16,1,binary,12,2,trial,1186705.0,1189221.0,2516.0,12,R,1186970,1187288,320,536.6,558.4,5581,left
16,1,binary,12,2,trial,1186705.0,1189221.0,2516.0,12,R,1187348,1187546,200,1355.8,519.9,5093,right
16,1,binary,12,2,trial,1186705.0,1189221.0,2516.0,12,R,1187582,1187738,158,1489.9,622.9,4960,right
16,1,binary,12,2,trial,1186705.0,1189221.0,2516.0,12,R,1187806,1188034,230,537.3,493.9,5006,left
16,1,binary,12,2,trial,1186705.0,1189221.0,2516.0,12,R,1188074,1188390,318,443.4,592.5,5178,left
16,1,binary,12,2,trial,1186705.0,1189221.0,2516.0,12,R,1188418,1188628,212,453.4,451.4,5215,left
16,1,binary,12,2,trial,1186705.0,1189221.0,2516.0,12,R,1188696,1188914,220,1424.5,575.6,5037,right
16,1,binary,12,2,trial,1186705.0,1189221.0,2516.0,12,R,1188950,1189164,216,1501.4,637.3,4919,right
16,1,binary,12,2,postResponse,1186705.0,1189221.0,2516.0,12,R,1189198,1189558,362,1433.1,479.7,4825,right
16,1,binary,13,1,fixationCross,1190355.0,1192905.0,2550.0,13,R,1189658,1189690,34,1204.5,483.8,4885,right
16,1,binary,13,1,fixationCross,1190355.0,1192905.0,2550.0,13,R,1189786,1189806,22,633.8,896.2,3093,NA
16,1,binary,13,1,fixationCross,1190355.0,1192905.0,2550.0,13,R,1189876,1190036,162,795.1,544.4,5170,NA
16,1,binary,13,1,trial,1190355.0,1192905.0,2550.0,13,R,1190064,1190516,454,943.4,537.8,5383,NA
16,1,binary,13,1,trial,1190355.0,1192905.0,2550.0,13,R,1190562,1190784,224,534.1,515.8,5493,left
16,1,binary,13,1,trial,1190355.0,1192905.0,2550.0,13,R,1190860,1191264,406,1496.0,480.7,4870,right
16,1,binary,13,1,trial,1190355.0,1192905.0,2550.0,13,R,1191284,1191424,142,1456.4,425.3,4923,right
16,1,binary,13,1,trial,1190355.0,1192905.0,2550.0,13,R,1191508,1191970,464,462.6,558.1,5222,left
16,1,binary,13,1,trial,1190355.0,1192905.0,2550.0,13,R,1191992,1192338,348,548.7,535.7,5058,left
16,1,binary,13,1,trial,1190355.0,1192905.0,2550.0,13,R,1192364,1192586,224,567.3,639.7,5045,left
16,1,binary,13,1,trial,1190355.0,1192905.0,2550.0,13,R,1192650,1192896,248,1407.1,482.4,4791,right
16,1,binary,13,1,postResponse,1190355.0,1192905.0,2550.0,13,R,1192920,1193240,322,1475.9,521.1,4897,right
16,1,binary,14,1,fixationCross,1193988.0,1196521.0,2533.0,14,R,1193380,1193380,2,744.5,825.5,3202,likertHorizontal
16,1,binary,14,1,fixationCross,1193988.0,1196521.0,2533.0,14,R,1193436,1193682,248,843.8,457.9,5523,NA
16,1,binary,14,1,trial,1193988.0,1196521.0,2533.0,14,R,1193712,1194002,292,980.8,528.6,5722,NA
16,1,binary,14,1,trial,1193988.0,1196521.0,2533.0,14,R,1194016,1194152,138,967.1,551.4,5719,NA
16,1,binary,14,1,trial,1193988.0,1196521.0,2533.0,14,R,1194200,1194516,318,559.0,495.0,5528,left
16,1,binary,14,1,trial,1193988.0,1196521.0,2533.0,14,R,1194542,1194804,264,401.1,458.3,5100,left
16,1,binary,14,1,trial,1193988.0,1196521.0,2533.0,14,R,1194836,1195070,236,543.4,609.1,5061,left
16,1,binary,14,1,trial,1193988.0,1196521.0,2533.0,14,R,1195136,1195468,334,1368.7,541.6,4823,right
16,1,binary,14,1,trial,1193988.0,1196521.0,2533.0,14,R,1195490,1195706,218,1463.6,573.8,4714,right
16,1,binary,14,1,trial,1193988.0,1196521.0,2533.0,14,R,1195774,1196044,272,500.0,511.4,4838,left
16,1,binary,14,1,trial,1193988.0,1196521.0,2533.0,14,R,1196080,1196480,402,503.6,611.2,4942,left
16,1,binary,14,1,trial,1193988.0,1196521.0,2533.0,14,R,1196518,1196764,248,443.0,730.1,5105,left
16,1,binary,14,1,postResponse,1193988.0,1196521.0,2533.0,14,R,1196808,1196856,50,724.7,675.7,5099,left
16,1,binary,15,1,fixationCross,1197638.0,1201022.0,3384.0,15,R,1196932,1196948,18,728.1,685.8,5096,left
16,1,binary,15,1,fixationCross,1197638.0,1201022.0,3384.0,15,R,1197192,1197324,134,654.7,517.2,5238,left
16,1,binary,15,1,trial,1197638.0,1201022.0,3384.0,15,R,1197364,1197784,422,967.9,532.6,5538,NA
16,1,binary,15,1,trial,1197638.0,1201022.0,3384.0,15,R,1197830,1198004,176,544.2,508.0,5693,left
16,1,binary,15,1,trial,1197638.0,1201022.0,3384.0,15,R,1198026,1198278,254,607.3,468.6,5331,left
16,1,binary,15,1,trial,1197638.0,1201022.0,3384.0,15,R,1198350,1198614,266,1481.3,538.5,4988,right
16,1,binary,15,1,trial,1197638.0,1201022.0,3384.0,15,R,1198634,1198932,300,1400.3,540.8,5060,right
16,1,binary,15,1,trial,1197638.0,1201022.0,3384.0,15,R,1199002,1199204,204,472.1,486.0,5246,left
16,1,binary,15,1,trial,1197638.0,1201022.0,3384.0,15,R,1199250,1199424,176,436.9,678.9,5319,left
16,1,binary,15,1,trial,1197638.0,1201022.0,3384.0,15,R,1199464,1199798,336,632.0,483.5,5094,left
16,1,binary,15,1,trial,1197638.0,1201022.0,3384.0,15,R,1200004,1200248,246,585.8,472.0,5167,left
16,1,binary,15,1,trial,1197638.0,1201022.0,3384.0,15,R,1200322,1200606,286,1447.9,545.7,5131,right
16,1,binary,15,1,trial,1197638.0,1201022.0,3384.0,15,R,1200620,1200916,298,1403.5,549.6,5016,right
16,1,binary,15,1,postResponse,1197638.0,1201022.0,3384.0,15,R,1200986,1201356,372,539.8,497.3,5234,left
16,1,binary,16,2,fixationCross,1202238.0,1204821.0,2583.0,16,R,1201456,1201710,256,767.9,533.1,5417,NA
16,1,binary,16,2,fixationCross,1202238.0,1204821.0,2583.0,16,R,1201738,1201924,188,572.0,516.0,5660,left
16,1,binary,16,2,trial,1202238.0,1204821.0,2583.0,16,R,1201964,1202278,316,951.1,540.7,5783,NA
16,1,binary,16,2,trial,1202238.0,1204821.0,2583.0,16,R,1202296,1202418,124,974.9,543.8,5929,NA
16,1,binary,16,2,trial,1202238.0,1204821.0,2583.0,16,R,1202470,1202812,344,495.2,528.2,5741,left
16,1,binary,16,2,trial,1202238.0,1204821.0,2583.0,16,R,1202892,1203058,168,1541.6,488.8,5001,right
16,1,binary,16,2,trial,1202238.0,1204821.0,2583.0,16,R,1203080,1203476,398,1614.0,443.7,4795,right
16,1,binary,16,2,trial,1202238.0,1204821.0,2583.0,16,R,1203520,1203730,212,1223.4,519.4,4997,right
16,1,binary,16,2,trial,1202238.0,1204821.0,2583.0,16,R,1203762,1204070,310,1342.8,689.1,5068,right
16,1,binary,16,2,trial,1202238.0,1204821.0,2583.0,16,R,1204114,1204340,228,1520.5,444.0,4916,right
16,1,binary,16,2,trial,1202238.0,1204821.0,2583.0,16,R,1204358,1204698,342,1604.6,437.2,4922,right
16,1,binary,16,2,postResponse,1202238.0,1204821.0,2583.0,16,R,1204738,1205156,420,1292.7,520.6,5218,right
16,1,binary,17,2,fixationCross,1206055.0,1209355.0,3300.0,17,R,1205288,1205530,244,1612.7,588.5,5269,right
16,1,binary,17,2,fixationCross,1206055.0,1209355.0,3300.0,17,R,1205600,1205720,122,962.5,859.5,5758,likertHorizontal
16,1,binary,17,2,trial,1206055.0,1209355.0,3300.0,17,R,1205770,1206216,448,936.1,549.4,5684,NA
16,1,binary,17,2,trial,1206055.0,1209355.0,3300.0,17,R,1206260,1206408,150,547.5,532.5,5765,left
16,1,binary,17,2,trial,1206055.0,1209355.0,3300.0,17,R,1206452,1206638,188,324.7,668.1,5381,left
16,1,binary,17,2,trial,1206055.0,1209355.0,3300.0,17,R,1206718,1207096,380,1438.6,619.0,4818,right
16,1,binary,17,2,trial,1206055.0,1209355.0,3300.0,17,R,1207114,1207452,340,1504.8,613.5,4819,right
16,1,binary,17,2,trial,1206055.0,1209355.0,3300.0,17,R,1207480,1207746,268,1363.4,480.8,4860,right
16,1,binary,17,2,trial,1206055.0,1209355.0,3300.0,17,R,1207774,1208050,278,1327.9,575.6,4939,right
16,1,binary,17,2,trial,1206055.0,1209355.0,3300.0,17,R,1208072,1208242,172,1412.6,602.8,4998,right
16,1,binary,17,2,trial,1206055.0,1209355.0,3300.0,17,R,1208264,1208458,196,1497.6,622.8,5061,right
16,1,binary,17,2,trial,1206055.0,1209355.0,3300.0,17,R,1208496,1208570,76,1440.5,420.3,5039,right
16,1,binary,17,2,trial,1206055.0,1209355.0,3300.0,17,R,1208650,1208794,146,516.6,563.7,5247,left
16,1,binary,17,2,trial,1206055.0,1209355.0,3300.0,17,R,1208832,1209246,416,295.8,681.9,5037,left
16,1,binary,17,2,postResponse,1206055.0,1209355.0,3300.0,17,R,1209322,1209690,370,1482.5,631.0,4679,right
16,1,binary,18,1,fixationCross,1210438.0,1212822.0,2384.0,18,R,1209764,1209924,162,1479.0,625.2,4944,right
16,1,binary,18,1,fixationCross,1210438.0,1212822.0,2384.0,18,R,1209962,1210120,160,1238.0,632.0,5247,right
16,1,binary,18,1,trial,1210438.0,1212822.0,2384.0,18,R,1210160,1210576,418,965.5,531.6,5476,NA
16,1,binary,18,1,trial,1210438.0,1212822.0,2384.0,18,R,1210624,1210826,204,580.9,544.5,5591,left
16,1,binary,18,1,trial,1210438.0,1212822.0,2384.0,18,R,1210862,1211026,166,404.8,430.0,5320,left
16,1,binary,18,1,trial,1210438.0,1212822.0,2384.0,18,R,1211048,1211196,150,317.2,427.4,5164,left
16,1,binary,18,1,trial,1210438.0,1212822.0,2384.0,18,R,1211220,1211568,350,439.5,443.3,5029,left
16,1,binary,18,1,trial,1210438.0,1212822.0,2384.0,18,R,1211580,1211748,170,463.7,439.6,4917,left
16,1,binary,18,1,trial,1210438.0,1212822.0,2384.0,18,R,1211824,1212092,270,1462.9,500.5,4821,right
16,1,binary,18,1,trial,1210438.0,1212822.0,2384.0,18,R,1212128,1212294,168,1580.0,546.6,4939,right
16,1,binary,18,1,trial,1210438.0,1212822.0,2384.0,18,R,1212334,1212514,182,1641.6,676.3,5132,right
16,1,binary,18,1,trial,1210438.0,1212822.0,2384.0,18,R,1212596,1212808,214,499.4,577.2,5419,left
16,1,binary,18,1,trial,1210438.0,1212822.0,2384.0,18,R,1212836,1213112,278,656.4,565.3,5222,left
16,1,binary,19,2,fixationCross,1213939.0,1216372.0,2433.0,19,R,1213334,1213620,288,729.4,537.3,5209,left
16,1,binary,19,2,trial,1213939.0,1216372.0,2433.0,19,R,1213650,1214080,432,964.3,542.8,5388,NA
16,1,binary,19,2,trial,1213939.0,1216372.0,2433.0,19,R,1214126,1214296,172,565.9,475.3,5375,left
16,1,binary,19,2,trial,1213939.0,1216372.0,2433.0,19,R,1214322,1214482,162,475.0,467.8,5142,left
16,1,binary,19,2,trial,1213939.0,1216372.0,2433.0,19,R,1214560,1214814,256,1459.1,609.9,4832,right
16,1,binary,19,2,trial,1213939.0,1216372.0,2433.0,19,R,1214842,1215168,328,1583.0,449.0,4737,right
16,1,binary,19,2,trial,1213939.0,1216372.0,2433.0,19,R,1215186,1215348,164,1594.1,403.0,4660,right
16,1,binary,19,2,trial,1213939.0,1216372.0,2433.0,19,R,1215430,1215758,330,524.0,544.0,4987,left
16,1,binary,19,2,trial,1213939.0,1216372.0,2433.0,19,R,1215830,1215982,154,1021.7,949.7,5267,likertHorizontal
16,1,binary,19,2,trial,1213939.0,1216372.0,2433.0,19,R,1216018,1216154,138,950.7,1019.6,5485,likertHorizontal
16,1,binary,19,2,trial,1213939.0,1216372.0,2433.0,19,R,1216202,1216420,220,1434.8,1002.7,5580,NA
16,1,binary,19,2,postResponse,1213939.0,1216372.0,2433.0,19,R,1216476,1216706,232,1455.7,511.1,5687,right
16,1,binary,20,2,fixationCross,1217605.0,1219039.0,1434.0,20,R,1216806,1216968,164,1159.1,906.0,6101,likertHorizontal
16,1,binary,20,2,fixationCross,1217605.0,1219039.0,1434.0,20,R,1217026,1217154,130,934.1,1108.3,6287,likertHorizontal
16,1,binary,20,2,fixationCross,1217605.0,1219039.0,1434.0,20,R,1217212,1217402,192,981.8,436.9,6094,NA
16,1,binary,20,2,trial,1217605.0,1219039.0,1434.0,20,R,1217440,1217772,334,965.9,549.1,6123,NA
16,1,binary,20,2,trial,1217605.0,1219039.0,1434.0,20,R,1217816,1218014,200,604.4,475.9,5976,left
16,1,binary,20,2,trial,1217605.0,1219039.0,1434.0,20,R,1218040,1218208,170,442.0,581.8,5543,left
16,1,binary,20,2,trial,1217605.0,1219039.0,1434.0,20,R,1218286,1218806,522,1435.1,597.8,4976,right
16,1,binary,20,2,trial,1217605.0,1219039.0,1434.0,20,R,1218824,1219108,286,1501.6,611.4,4865,right
16,1,binary,20,2,postResponse,1217605.0,1219039.0,1434.0,20,R,1219124,1219372,250,1568.9,620.5,4910,right
16,1,binary,21,1,fixationCross,1220155.0,1222005.0,1850.0,21,R,1219640,1219850,212,846.9,519.6,5397,NA
16,1,binary,21,1,trial,1220155.0,1222005.0,1850.0,21,R,1219876,1220334,460,951.5,551.9,5607,NA
16,1,binary,21,1,trial,1220155.0,1222005.0,1850.0,21,R,1220388,1220510,124,501.3,501.0,5625,left
16,1,binary,21,1,trial,1220155.0,1222005.0,1850.0,21,R,1220538,1220684,148,352.1,452.7,5295,left
16,1,binary,21,1,trial,1220155.0,1222005.0,1850.0,21,R,1220720,1220828,110,709.0,598.2,5109,left
16,1,binary,21,1,trial,1220155.0,1222005.0,1850.0,21,R,1220898,1221350,454,1550.4,572.5,4709,right
16,1,binary,21,1,trial,1220155.0,1222005.0,1850.0,21,R,1221384,1221514,132,1363.8,488.0,4742,right
16,1,binary,21,1,trial,1220155.0,1222005.0,1850.0,21,R,1221584,1221742,160,456.7,491.8,4927,left
16,1,binary,21,1,trial,1220155.0,1222005.0,1850.0,21,R,1221768,1221898,132,359.7,488.8,4886,left
16,1,binary,21,1,postResponse,1220155.0,1222005.0,1850.0,21,R,1221932,1222340,410,640.2,575.7,4793,left
16,1,binary,22,2,fixationCross,1223088.0,1225505.0,2417.0,22,R,1222416,1222476,62,636.3,573.5,4880,left
16,1,binary,22,2,fixationCross,1223088.0,1225505.0,2417.0,22,R,1222540,1222766,228,947.6,831.3,5124,likertHorizontal
16,1,binary,22,2,fixationCross,1223088.0,1225505.0,2417.0,22,R,1222816,1223034,220,945.3,513.7,5293,NA
16,1,binary,22,2,trial,1223088.0,1225505.0,2417.0,22,R,1223056,1223262,208,955.7,544.8,5452,NA
16,1,binary,22,2,trial,1223088.0,1225505.0,2417.0,22,R,1223308,1223514,208,535.0,506.5,5476,left
16,1,binary,22,2,trial,1223088.0,1225505.0,2417.0,22,R,1223538,1223682,146,458.2,592.5,5102,left
16,1,binary,22,2,trial,1223088.0,1225505.0,2417.0,22,R,1223710,1223906,198,622.2,582.9,4971,left
16,1,binary,22,2,trial,1223088.0,1225505.0,2417.0,22,R,1223962,1224378,418,1383.2,461.0,4692,right
16,1,binary,22,2,trial,1223088.0,1225505.0,2417.0,22,R,1224398,1224908,512,1404.7,411.1,4652,right
16,1,binary,22,2,trial,1223088.0,1225505.0,2417.0,22,R,1224928,1225342,416,1350.0,438.2,4776,right
16,1,binary,22,2,trial,1223088.0,1225505.0,2417.0,22,R,1225404,1225786,384,583.6,543.5,5137,left
16,1,binary,23,2,fixationCross,1226489.0,1228189.0,1700.0,23,R,1225970,1225970,2,757.8,735.4,3887,likertHorizontal
16,1,binary,23,2,fixationCross,1226489.0,1228189.0,1700.0,23,R,1226186,1226382,198,928.8,615.5,5315,NA
16,1,binary,23,2,trial,1226489.0,1228189.0,1700.0,23,R,1226404,1226638,236,960.8,554.9,5508,NA
16,1,binary,23,2,trial,1226489.0,1228189.0,1700.0,23,R,1226686,1227112,428,492.5,552.1,5350,left
16,1,binary,23,2,trial,1226489.0,1228189.0,1700.0,23,R,1227140,1227256,118,659.1,582.8,4897,left
16,1,binary,23,2,trial,1226489.0,1228189.0,1700.0,23,R,1227374,1227674,302,1461.0,601.1,4719,right
16,1,binary,23,2,trial,1226489.0,1228189.0,1700.0,23,R,1227696,1227960,266,1544.4,530.9,4702,right
16,1,binary,23,2,trial,1226489.0,1228189.0,1700.0,23,R,1227984,1228146,164,1468.8,592.1,4650,right
16,1,binary,23,2,postResponse,1226489.0,1228189.0,1700.0,23,R,1228170,1228524,356,1555.2,505.8,4631,right
16,1,binary,24,2,fixationCross,1229255.0,1232155.0,2900.0,24,R,1228600,1228680,82,1550.9,508.4,4701,right
16,1,binary,24,2,fixationCross,1229255.0,1232155.0,2900.0,24,R,1228722,1228928,208,1287.1,553.1,5024,right
16,1,binary,24,2,trial,1229255.0,1232155.0,2900.0,24,R,1228970,1229414,446,945.4,540.7,5403,NA
16,1,binary,24,2,trial,1229255.0,1232155.0,2900.0,24,R,1229470,1229658,190,571.4,483.9,5579,left
16,1,binary,24,2,trial,1229255.0,1232155.0,2900.0,24,R,1229728,1230048,322,1433.4,556.2,5090,right
16,1,binary,24,2,trial,1229255.0,1232155.0,2900.0,24,R,1230068,1230340,274,1512.9,556.5,4895,right
16,1,binary,24,2,trial,1229255.0,1232155.0,2900.0,24,R,1230378,1230524,148,1288.9,494.1,4933,right
16,1,binary,24,2,trial,1229255.0,1232155.0,2900.0,24,R,1230644,1230890,248,481.1,465.8,5221,left
16,1,binary,24,2,trial,1229255.0,1232155.0,2900.0,24,R,1230926,1231224,300,609.1,463.5,5402,left
16,1,binary,24,2,trial,1229255.0,1232155.0,2900.0,24,R,1231260,1231410,152,500.6,555.1,5412,left
16,1,binary,24,2,trial,1229255.0,1232155.0,2900.0,24,R,1231802,1231872,72,1451.1,580.9,5126,right
16,1,binary,24,2,trial,1229255.0,1232155.0,2900.0,24,R,1231892,1232228,338,1535.2,568.1,5142,right
16,1,binary,24,2,postResponse,1229255.0,1232155.0,2900.0,24,R,1232256,1232490,236,1635.3,671.5,5179,right
16,1,binary,25,1,fixationCross,1233072.0,1235055.0,1983.0,25,R,1232590,1232736,148,1382.1,666.7,5434,right
16,1,binary,25,1,fixationCross,1233072.0,1235055.0,1983.0,25,R,1232788,1233012,226,989.3,596.3,5706,NA
16,1,binary,25,1,trial,1233072.0,1235055.0,1983.0,25,R,1233030,1233244,216,960.2,557.9,5684,NA
16,1,binary,25,1,trial,1233072.0,1235055.0,1983.0,25,R,1233286,1233454,170,637.7,557.6,5666,left
16,1,binary,25,1,trial,1233072.0,1235055.0,1983.0,25,R,1233480,1233754,276,511.9,655.0,5400,left
16,1,binary,25,1,trial,1233072.0,1235055.0,1983.0,25,R,1233822,1234174,354,1483.2,516.1,4886,right
16,1,binary,25,1,trial,1233072.0,1235055.0,1983.0,25,R,1234194,1234310,118,1435.7,571.1,4899,right
16,1,binary,25,1,trial,1233072.0,1235055.0,1983.0,25,R,1234368,1234642,276,758.4,538.0,5106,NA
16,1,binary,25,1,trial,1233072.0,1235055.0,1983.0,25,R,1234666,1234954,290,683.3,574.9,5121,left
16,1,binary,25,1,trial,1233072.0,1235055.0,1983.0,25,R,1234968,1235226,260,702.0,541.4,5163,left
16,1,binary,25,1,postResponse,1233072.0,1235055.0,1983.0,25,R,1235254,1235390,138,853.7,548.4,5123,NA
16,1,binary,26,1,fixationCross,1268838.0,1271972.0,3134.0,26,R,1268060,1268298,240,204.4,52.7,5126,NA
16,1,binary,26,1,fixationCross,1268838.0,1271972.0,3134.0,26,R,1268364,1268534,172,754.9,503.0,5290,NA
16,1,binary,26,1,fixationCross,1268838.0,1271972.0,3134.0,26,R,1268566,1268836,272,965.3,548.4,5446,NA
16,1,binary,26,1,trial,1268838.0,1271972.0,3134.0,26,R,1268918,1269060,144,1622.1,1011.8,5686,NA
16,1,binary,26,1,trial,1268838.0,1271972.0,3134.0,26,R,1269118,1269376,260,1306.2,545.3,5768,right
16,1,binary,26,1,trial,1268838.0,1271972.0,3134.0,26,R,1269450,1269642,194,499.0,560.5,5654,left
16,1,binary,26,1,trial,1268838.0,1271972.0,3134.0,26,R,1269704,1269832,130,432.3,943.1,5614,NA
16,1,binary,26,1,trial,1268838.0,1271972.0,3134.0,26,R,1269872,1269954,84,429.4,1068.7,5596,NA
16,1,binary,26,1,trial,1268838.0,1271972.0,3134.0,26,R,1270010,1270376,368,519.5,493.0,5558,left
16,1,binary,26,1,trial,1268838.0,1271972.0,3134.0,26,R,1270398,1270754,358,453.4,513.4,5536,left
16,1,binary,26,1,trial,1268838.0,1271972.0,3134.0,26,R,1270792,1270972,182,575.4,569.8,5702,left
16,1,binary,26,1,trial,1268838.0,1271972.0,3134.0,26,R,1271042,1271570,530,1348.5,519.1,5630,right
16,1,binary,26,1,trial,1268838.0,1271972.0,3134.0,26,R,1271636,1271854,220,567.6,527.3,5970,left
16,1,binary,26,1,trial,1268838.0,1271972.0,3134.0,26,R,1271926,1272242,318,1422.7,550.8,5597,right
16,1,binary,27,1,fixationCross,1273122.0,1274572.0,1450.0,27,R,1272380,1272554,176,916.2,483.1,5796,NA
16,1,binary,27,1,fixationCross,1273122.0,1274572.0,1450.0,27,R,1272582,1272806,226,739.6,493.6,6079,NA
16,1,binary,27,1,fixationCross,1273122.0,1274572.0,1450.0,27,R,1272842,1273100,260,970.9,519.5,6155,NA
16,1,binary,27,1,trial,1273122.0,1274572.0,1450.0,27,R,1273112,1273274,164,992.0,532.8,6288,NA
16,1,binary,27,1,trial,1273122.0,1274572.0,1450.0,27,R,1273334,1273504,172,543.2,525.7,6210,left
16,1,binary,27,1,trial,1273122.0,1274572.0,1450.0,27,R,1273524,1273672,150,489.0,566.5,5815,left
16,1,binary,27,1,trial,1273122.0,1274572.0,1450.0,27,R,1273738,1274158,422,1484.0,535.0,5221,right
16,1,binary,27,1,trial,1273122.0,1274572.0,1450.0,27,R,1274228,1274574,348,551.2,610.7,5309,left
16,1,binary,27,1,trial,1273122.0,1274572.0,1450.0,27,R,1274638,1274796,160,430.2,1065.9,5339,NA
16,1,binary,28,2,fixationCross,1275655.0,1277639.0,1984.0,28,R,1275050,1275362,314,853.1,499.4,5394,NA
16,1,binary,28,2,trial,1275655.0,1277639.0,1984.0,28,R,1275390,1275798,410,974.0,547.0,5789,NA
16,1,binary,28,2,trial,1275655.0,1277639.0,1984.0,28,R,1275846,1276038,194,570.3,532.6,5710,left
16,1,binary,28,2,trial,1275655.0,1277639.0,1984.0,28,R,1276062,1276272,212,438.4,567.9,5435,left
16,1,binary,28,2,trial,1275655.0,1277639.0,1984.0,28,R,1276340,1276798,460,1493.7,524.4,5088,right
16,1,binary,28,2,trial,1275655.0,1277639.0,1984.0,28,R,1276866,1277132,268,548.8,510.5,5388,left
16,1,binary,28,2,trial,1275655.0,1277639.0,1984.0,28,R,1277198,1277570,374,1500.2,529.4,5217,right
16,1,binary,28,2,trial,1275655.0,1277639.0,1984.0,28,R,1277580,1277954,376,1490.5,514.5,5211,right
16,1,binary,29,1,fixationCross,1278806.0,1280372.0,1566.0,29,R,1278080,1278084,6,342.3,941.2,2785,NA
16,1,binary,29,1,fixationCross,1278806.0,1280372.0,1566.0,29,R,1278256,1278484,230,763.5,522.6,5451,NA
16,1,binary,29,1,trial,1278806.0,1280372.0,1566.0,29,R,1278516,1278934,420,952.1,533.4,5625,NA
16,1,binary,29,1,trial,1278806.0,1280372.0,1566.0,29,R,1278980,1279098,120,551.0,543.1,5655,left
16,1,binary,29,1,trial,1278806.0,1280372.0,1566.0,29,R,1279118,1279474,358,611.1,564.5,5287,left
16,1,binary,29,1,trial,1278806.0,1280372.0,1566.0,29,R,1279538,1279860,324,1493.4,563.2,4906,right
16,1,binary,29,1,trial,1278806.0,1280372.0,1566.0,29,R,1279882,1280140,260,1566.4,557.1,4990,right
16,1,binary,29,1,trial,1278806.0,1280372.0,1566.0,29,R,1280204,1280354,152,661.7,603.8,5366,left
16,1,binary,29,1,postResponse,1278806.0,1280372.0,1566.0,29,R,1280376,1280706,332,615.3,565.8,5445,left
16,1,binary,30,2,fixationCross,1281489.0,1283155.0,1666.0,30,R,1280808,1281188,382,929.0,665.7,5588,NA
16,1,binary,30,2,trial,1281489.0,1283155.0,1666.0,30,R,1281216,1281634,420,970.4,533.0,5790,NA
16,1,binary,30,2,trial,1281489.0,1283155.0,1666.0,30,R,1281682,1282070,390,529.8,495.4,5775,left
16,1,binary,30,2,trial,1281489.0,1283155.0,1666.0,30,R,1282110,1282278,170,542.6,634.8,5527,left
16,1,binary,30,2,trial,1281489.0,1283155.0,1666.0,30,R,1282348,1282744,398,1416.7,628.7,5299,right
16,1,binary,30,2,trial,1281489.0,1283155.0,1666.0,30,R,1282766,1282932,168,1506.2,615.5,5359,right
16,1,binary,30,2,trial,1281489.0,1283155.0,1666.0,30,R,1282962,1283168,208,1339.4,621.6,5456,right
16,1,binary,30,2,trial,1281489.0,1283155.0,1666.0,30,R,1283228,1283458,232,595.1,513.5,5459,left
16,1,binary,31,1,fixationCross,1284256.0,1286105.0,1849.0,31,R,1283566,1283930,366,794.5,600.2,5443,NA
16,1,binary,31,1,trial,1284256.0,1286105.0,1849.0,31,R,1283958,1284396,440,965.3,521.8,5547,NA
16,1,binary,31,1,trial,1284256.0,1286105.0,1849.0,31,R,1284442,1284634,194,549.0,511.1,5664,left
16,1,binary,31,1,trial,1284256.0,1286105.0,1849.0,31,R,1284664,1284798,136,470.9,647.9,5307,left
16,1,binary,31,1,trial,1284256.0,1286105.0,1849.0,31,R,1284868,1285102,236,1540.4,519.8,4708,right
16,1,binary,31,1,trial,1284256.0,1286105.0,1849.0,31,R,1285120,1286012,894,1604.0,491.8,4513,right
16,1,binary,31,1,postResponse,1284256.0,1286105.0,1849.0,31,R,1286088,1286440,354,524.2,552.4,4860,left
16,1,binary,32,1,fixationCross,1287223.0,1288372.0,1149.0,32,R,1286514,1286538,26,527.2,561.8,4720,left
16,1,binary,32,1,fixationCross,1287223.0,1288372.0,1149.0,32,R,1286630,1286906,278,717.7,570.4,4867,left
16,1,binary,32,1,fixationCross,1287223.0,1288372.0,1149.0,32,R,1286940,1287218,280,931.6,550.3,5109,NA
16,1,binary,32,1,trial,1287223.0,1288372.0,1149.0,32,R,1287228,1287378,152,958.7,544.0,5249,NA
16,1,binary,32,1,trial,1287223.0,1288372.0,1149.0,32,R,1287424,1287688,266,575.7,492.7,5231,left
16,1,binary,32,1,trial,1287223.0,1288372.0,1149.0,32,R,1287710,1287850,142,494.5,519.3,4958,left
16,1,binary,32,1,trial,1287223.0,1288372.0,1149.0,32,R,1287926,1288162,238,1517.8,504.2,4628,right
16,1,binary,32,1,postResponse,1287223.0,1288372.0,1149.0,32,R,1288186,1288706,522,1653.5,514.0,4689,right
16,1,binary,33,2,fixationCross,1289323.0,1293806.0,4483.0,33,R,1288808,1288994,188,1333.3,536.7,5161,right
16,1,binary,33,2,trial,1289323.0,1293806.0,4483.0,33,R,1289046,1289452,408,969.6,524.9,5408,NA
16,1,binary,33,2,trial,1289323.0,1293806.0,4483.0,33,R,1289502,1289718,218,554.7,512.5,5436,left
16,1,binary,33,2,trial,1289323.0,1293806.0,4483.0,33,R,1289732,1289970,240,550.1,494.3,5122,left
16,1,binary,33,2,trial,1289323.0,1293806.0,4483.0,33,R,1289998,1290088,92,414.9,507.2,4963,left
16,1,binary,33,2,trial,1289323.0,1293806.0,4483.0,33,R,1290168,1290512,346,1484.0,601.8,4784,right
16,1,binary,33,2,trial,1289323.0,1293806.0,4483.0,33,R,1290534,1290728,196,1576.7,619.4,4689,right
16,1,binary,33,2,trial,1289323.0,1293806.0,4483.0,33,R,1290756,1290890,136,1540.7,513.2,4668,right
16,1,binary,33,2,trial,1289323.0,1293806.0,4483.0,33,R,1291058,1291560,504,527.9,492.0,4889,left
16,1,binary,33,2,trial,1289323.0,1293806.0,4483.0,33,R,1291602,1291874,274,556.1,616.5,5111,left
16,1,binary,33,2,trial,1289323.0,1293806.0,4483.0,33,R,1291892,1292168,278,538.4,629.6,5108,left
16,1,binary,33,2,trial,1289323.0,1293806.0,4483.0,33,R,1292204,1292414,212,395.3,534.4,5084,left
16,1,binary,33,2,trial,1289323.0,1293806.0,4483.0,33,R,1292434,1292544,112,366.8,490.5,5067,left
16,1,binary,33,2,trial,1289323.0,1293806.0,4483.0,33,R,1292628,1292966,340,1474.1,593.1,4757,right
16,1,binary,33,2,trial,1289323.0,1293806.0,4483.0,33,R,1292990,1293100,112,1589.2,665.7,4650,right
16,1,binary,33,2,trial,1289323.0,1293806.0,4483.0,33,R,1293176,1293516,342,441.8,561.7,4916,left
16,1,binary,33,2,trial,1289323.0,1293806.0,4483.0,33,R,1293538,1293658,122,501.7,503.3,4914,left
16,1,binary,33,2,trial,1289323.0,1293806.0,4483.0,33,R,1293730,1294088,360,1419.0,879.1,4976,NA
16,1,binary,34,1,fixationCross,1294722.0,1296573.0,1851.0,34,R,1294242,1294340,100,982.0,1145.5,5407,likertHorizontal
16,1,binary,34,1,fixationCross,1294722.0,1296573.0,1851.0,34,R,1294406,1294600,196,908.2,502.7,5521,NA
16,1,binary,34,1,trial,1294722.0,1296573.0,1851.0,34,R,1294622,1294868,248,970.9,549.9,5666,NA
16,1,binary,34,1,trial,1294722.0,1296573.0,1851.0,34,R,1294918,1295138,222,544.1,631.5,5679,left
16,1,binary,34,1,trial,1294722.0,1296573.0,1851.0,34,R,1295166,1295322,158,422.0,691.5,5346,left
16,1,binary,34,1,trial,1294722.0,1296573.0,1851.0,34,R,1295400,1295778,380,1477.7,603.6,4823,right
16,1,binary,34,1,trial,1294722.0,1296573.0,1851.0,34,R,1295810,1295956,148,1372.2,461.0,4822,right
16,1,binary,34,1,trial,1294722.0,1296573.0,1851.0,34,R,1296022,1296326,306,511.6,611.1,5057,left
16,1,binary,34,1,trial,1294722.0,1296573.0,1851.0,34,R,1296350,1296596,248,597.5,578.6,4810,left
16,1,binary,34,1,trial,1294722.0,1296573.0,1851.0,34,R,1296622,1296848,228,483.8,541.7,4690,left
16,1,binary,35,1,fixationCross,1297706.0,1299656.0,1950.0,35,R,1297114,1297386,274,676.0,587.4,4914,left
16,1,binary,35,1,fixationCross,1297706.0,1299656.0,1950.0,35,R,1297430,1297564,136,951.3,582.7,5191,NA
16,1,binary,35,1,trial,1297706.0,1299656.0,1950.0,35,R,1297718,1297872,156,926.0,561.0,5326,NA
16,1,binary,35,1,trial,1297706.0,1299656.0,1950.0,35,R,1297922,1298124,204,522.1,544.8,5425,left
16,1,binary,35,1,trial,1297706.0,1299656.0,1950.0,35,R,1298164,1298382,220,597.1,657.1,5190,left
16,1,binary,35,1,trial,1297706.0,1299656.0,1950.0,35,R,1298402,1298610,210,551.3,610.1,4924,left
16,1,binary,35,1,trial,1297706.0,1299656.0,1950.0,35,R,1298676,1298810,136,1457.0,536.5,4593,right
16,1,binary,35,1,trial,1297706.0,1299656.0,1950.0,35,R,1298832,1299054,224,1543.0,490.0,4574,right
16,1,binary,35,1,trial,1297706.0,1299656.0,1950.0,35,R,1299086,1299370,286,1341.7,542.4,4747,right
16,1,binary,35,1,trial,1297706.0,1299656.0,1950.0,35,R,1299442,1299960,520,536.0,618.9,4967,left
16,1,binary,36,1,fixationCross,1300805.0,1302422.0,1617.0,36,R,1300318,1300492,176,835.5,655.8,5222,NA
16,1,binary,36,1,trial,1300805.0,1302422.0,1617.0,36,R,1300522,1300960,440,957.8,538.5,5489,NA
16,1,binary,36,1,trial,1300805.0,1302422.0,1617.0,36,R,1301006,1301152,148,565.2,532.8,5540,left
16,1,binary,36,1,trial,1300805.0,1302422.0,1617.0,36,R,1301176,1301434,260,655.5,556.2,5164,left
16,1,binary,36,1,trial,1300805.0,1302422.0,1617.0,36,R,1301460,1301648,190,499.2,538.8,4825,left
16,1,binary,36,1,trial,1300805.0,1302422.0,1617.0,36,R,1301716,1302098,384,1460.3,483.1,4564,right
16,1,binary,36,1,trial,1300805.0,1302422.0,1617.0,36,R,1302118,1302254,138,1468.0,426.5,4527,right
16,1,binary,36,1,trial,1300805.0,1302422.0,1617.0,36,R,1302288,1302408,122,1303.9,579.5,4707,right
16,1,binary,36,1,postResponse,1300805.0,1302422.0,1617.0,36,R,1302468,1302758,292,589.5,669.4,4900,left
16,1,binary,37,1,fixationCross,1303506.0,1305322.0,1816.0,37,R,1302832,1303004,174,983.3,1026.5,5049,likertHorizontal
16,1,binary,37,1,fixationCross,1303506.0,1305322.0,1816.0,37,R,1303068,1303252,186,892.5,385.8,5175,NA
16,1,binary,37,1,trial,1303506.0,1305322.0,1816.0,37,R,1303280,1303552,274,957.4,506.2,5454,NA
16,1,binary,37,1,trial,1303506.0,1305322.0,1816.0,37,R,1303576,1303716,142,959.2,557.2,5604,NA
16,1,binary,37,1,trial,1303506.0,1305322.0,1816.0,37,R,1303776,1303964,190,575.2,633.7,5435,left
16,1,binary,37,1,trial,1303506.0,1305322.0,1816.0,37,R,1303994,1304216,224,366.9,619.4,5049,left
16,1,binary,37,1,trial,1303506.0,1305322.0,1816.0,37,R,1304248,1304414,168,379.1,519.4,4782,left
16,1,binary,37,1,trial,1303506.0,1305322.0,1816.0,37,R,1304450,1304540,92,694.0,625.2,4704,left
16,1,binary,37,1,trial,1303506.0,1305322.0,1816.0,37,R,1304596,1304828,234,1378.8,594.5,4499,right
16,1,binary,37,1,trial,1303506.0,1305322.0,1816.0,37,R,1304852,1305182,332,1457.4,558.3,4503,right
16,1,binary,37,1,trial,1303506.0,1305322.0,1816.0,37,R,1305208,1305348,142,1566.4,694.0,4515,right
16,1,binary,37,1,trial,1303506.0,1305322.0,1816.0,37,R,1305424,1305576,154,429.7,533.4,4702,left
16,1,binary,37,1,postResponse,1303506.0,1305322.0,1816.0,37,R,1305622,1305658,38,779.0,595.2,4734,NA
16,1,binary,38,1,fixationCross,1306306.0,1309656.0,3350.0,38,R,1305732,1306004,274,776.8,594.3,4871,NA
16,1,binary,38,1,fixationCross,1306306.0,1309656.0,3350.0,38,R,1306044,1306260,218,935.7,502.6,5113,NA
16,1,binary,38,1,trial,1306306.0,1309656.0,3350.0,38,R,1306282,1306468,188,966.7,542.7,5292,NA
16,1,binary,38,1,trial,1306306.0,1309656.0,3350.0,38,R,1306514,1306768,256,615.1,547.0,5341,left
16,1,binary,38,1,trial,1306306.0,1309656.0,3350.0,38,R,1306794,1307010,218,574.0,652.4,5085,left
16,1,binary,38,1,trial,1306306.0,1309656.0,3350.0,38,R,1307036,1307252,218,397.6,685.0,5010,left
16,1,binary,38,1,trial,1306306.0,1309656.0,3350.0,38,R,1307282,1307430,150,559.8,546.4,4810,left
16,1,binary,38,1,trial,1306306.0,1309656.0,3350.0,38,R,1307494,1307900,408,1418.2,505.0,4531,right
16,1,binary,38,1,trial,1306306.0,1309656.0,3350.0,38,R,1307912,1308210,300,1379.8,508.5,4725,right
16,1,binary,38,1,trial,1306306.0,1309656.0,3350.0,38,R,1308224,1308358,136,1416.8,505.2,4826,right
16,1,binary,38,1,trial,1306306.0,1309656.0,3350.0,38,R,1308436,1308468,34,432.7,554.2,5034,left
16,1,binary,38,1,trial,1306306.0,1309656.0,3350.0,38,R,1308482,1308742,262,433.2,624.7,5139,left
16,1,binary,38,1,trial,1306306.0,1309656.0,3350.0,38,R,1308768,1309080,314,552.0,532.9,5136,left
16,1,binary,38,1,trial,1306306.0,1309656.0,3350.0,38,R,1309118,1309200,84,569.9,676.0,5052,left
16,1,binary,38,1,trial,1306306.0,1309656.0,3350.0,38,R,1309350,1309454,106,546.7,687.3,5084,left
16,1,binary,38,1,trial,1306306.0,1309656.0,3350.0,38,R,1309484,1309592,110,378.2,715.7,5121,left
16,1,binary,38,1,postResponse,1306306.0,1309656.0,3350.0,38,R,1309674,1309990,318,1472.4,530.7,4989,right
16,1,binary,39,2,fixationCross,1310789.0,1312105.0,1316.0,39,R,1310064,1310132,70,1475.5,534.7,5068,right
16,1,binary,39,2,fixationCross,1310789.0,1312105.0,1316.0,39,R,1310372,1310492,122,821.1,584.1,5625,NA
16,1,binary,39,2,trial,1310789.0,1312105.0,1316.0,39,R,1310522,1310930,410,967.6,529.0,5680,NA
16,1,binary,39,2,trial,1310789.0,1312105.0,1316.0,39,R,1310976,1311202,228,546.8,533.2,5560,left
16,1,binary,39,2,trial,1310789.0,1312105.0,1316.0,39,R,1311216,1311396,182,499.6,515.2,5172,left
16,1,binary,39,2,trial,1310789.0,1312105.0,1316.0,39,R,1311430,1311476,48,320.5,519.6,5005,left
16,1,binary,39,2,trial,1310789.0,1312105.0,1316.0,39,R,1311554,1312008,456,1471.4,489.5,4666,right
16,1,binary,39,2,postResponse,1310789.0,1312105.0,1316.0,39,R,1312028,1312446,420,1442.5,436.3,4763,right
16,1,binary,40,2,fixationCross,1313306.0,1314973.0,1667.0,40,R,1312780,1312996,218,827.3,570.2,5311,NA
16,1,binary,40,2,trial,1313306.0,1314973.0,1667.0,40,R,1313022,1313458,438,952.5,556.0,5486,NA
16,1,binary,40,2,trial,1313306.0,1314973.0,1667.0,40,R,1313504,1313634,132,561.9,551.2,5388,left
16,1,binary,40,2,trial,1313306.0,1314973.0,1667.0,40,R,1313694,1314318,626,1444.3,491.8,4891,right
16,1,binary,40,2,trial,1313306.0,1314973.0,1667.0,40,R,1314390,1314650,262,482.7,549.4,5205,left
16,1,binary,40,2,postResponse,1313306.0,1314973.0,1667.0,40,R,1314760,1315322,564,1453.7,487.1,5087,right
16,1,binary,41,2,fixationCross,1316239.0,1318039.0,1800.0,41,R,1315396,1315756,362,1449.1,486.2,5308,right
16,1,binary,41,2,fixationCross,1316239.0,1318039.0,1800.0,41,R,1315796,1315940,146,1160.9,506.3,5537,NA
16,1,binary,41,2,trial,1316239.0,1318039.0,1800.0,41,R,1315968,1316392,426,960.5,538.5,5516,NA
16,1,binary,41,2,trial,1316239.0,1318039.0,1800.0,41,R,1316440,1316656,218,536.6,534.2,5470,left
16,1,binary,41,2,trial,1316239.0,1318039.0,1800.0,41,R,1316674,1316924,252,503.4,495.5,5111,left
16,1,binary,41,2,trial,1316239.0,1318039.0,1800.0,41,R,1316988,1317316,330,1457.9,538.6,4587,right
16,1,binary,41,2,trial,1316239.0,1318039.0,1800.0,41,R,1317340,1317548,210,1411.5,444.3,4539,right
16,1,binary,41,2,trial,1316239.0,1318039.0,1800.0,41,R,1317616,1318244,630,468.2,507.5,4669,left
16,1,binary,41,2,postResponse,1316239.0,1318039.0,1800.0,41,R,1318290,1318374,86,777.9,529.7,4625,NA
16,1,binary,42,1,fixationCross,1319289.0,1321556.0,2267.0,42,R,1318472,1318720,250,781.0,529.7,4848,NA
16,1,binary,42,1,fixationCross,1319289.0,1321556.0,2267.0,42,R,1318758,1318974,218,576.7,437.9,5031,left
16,1,binary,42,1,trial,1319289.0,1321556.0,2267.0,42,R,1319030,1319448,420,957.0,555.8,5147,NA
16,1,binary,42,1,trial,1319289.0,1321556.0,2267.0,42,R,1319494,1319724,232,567.9,443.5,5231,left
16,1,binary,42,1,trial,1319289.0,1321556.0,2267.0,42,R,1319752,1319936,186,489.4,529.0,5015,left
16,1,binary,42,1,trial,1319289.0,1321556.0,2267.0,42,R,1320002,1320220,220,1460.4,499.5,4722,right
16,1,binary,42,1,trial,1319289.0,1321556.0,2267.0,42,R,1320244,1320570,328,1535.2,485.2,4598,right
16,1,binary,42,1,trial,1319289.0,1321556.0,2267.0,42,R,1320640,1320880,242,591.3,476.2,4795,left
16,1,binary,42,1,trial,1319289.0,1321556.0,2267.0,42,R,1320904,1321604,702,506.2,533.9,4813,left
16,1,binary,42,1,postResponse,1319289.0,1321556.0,2267.0,42,R,1321622,1321898,278,569.9,547.9,4883,left
16,1,binary,43,2,fixationCross,1322673.0,1324072.0,1399.0,43,R,1321972,1322060,90,571.5,542.7,5093,left
16,1,binary,43,2,fixationCross,1322673.0,1324072.0,1399.0,43,R,1322080,1322362,284,673.1,550.5,5196,left
16,1,binary,43,2,fixationCross,1322673.0,1324072.0,1399.0,43,R,1322404,1322610,208,940.5,524.2,5204,NA
16,1,binary,43,2,trial,1322673.0,1324072.0,1399.0,43,R,1322628,1322742,116,958.6,555.3,5275,NA
16,1,binary,43,2,trial,1322673.0,1324072.0,1399.0,43,R,1322852,1323116,266,586.5,503.0,5367,left
16,1,binary,43,2,trial,1322673.0,1324072.0,1399.0,43,R,1323132,1323276,146,545.6,491.2,5202,left
16,1,binary,43,2,trial,1322673.0,1324072.0,1399.0,43,R,1323344,1323678,336,1467.7,509.8,4780,right
16,1,binary,43,2,trial,1322673.0,1324072.0,1399.0,43,R,1323696,1324050,356,1535.5,480.0,4567,right
16,1,binary,43,2,postResponse,1322673.0,1324072.0,1399.0,43,R,1324068,1324390,324,1426.2,489.2,4588,right
16,1,binary,44,2,fixationCross,1325240.0,1328256.0,3016.0,44,R,1324482,1324678,198,1009.3,585.8,4969,NA
16,1,binary,44,2,fixationCross,1325240.0,1328256.0,3016.0,44,R,1324724,1324986,264,725.1,484.0,5180,left
16,1,binary,44,2,trial,1325240.0,1328256.0,3016.0,44,R,1325018,1325276,260,898.5,516.3,5221,NA
16,1,binary,44,2,trial,1325240.0,1328256.0,3016.0,44,R,1325298,1325418,122,958.6,548.5,5300,NA
16,1,binary,44,2,trial,1325240.0,1328256.0,3016.0,44,R,1325580,1325896,318,396.6,479.4,5110,left
16,1,binary,44,2,trial,1325240.0,1328256.0,3016.0,44,R,1325932,1326142,212,572.6,637.1,4897,left
16,1,binary,44,2,trial,1325240.0,1328256.0,3016.0,44,R,1326176,1326290,116,638.1,443.2,4707,left
16,1,binary,44,2,trial,1325240.0,1328256.0,3016.0,44,R,1326346,1326530,186,1374.4,445.3,4530,right
16,1,binary,44,2,trial,1325240.0,1328256.0,3016.0,44,R,1326552,1326758,208,1439.5,398.1,4435,right
16,1,binary,44,2,trial,1325240.0,1328256.0,3016.0,44,R,1326790,1326972,184,1521.1,615.3,4442,right
16,1,binary,44,2,trial,1325240.0,1328256.0,3016.0,44,R,1327142,1327370,230,1436.8,557.5,4714,right
16,1,binary,44,2,trial,1325240.0,1328256.0,3016.0,44,R,1327398,1327560,164,1315.1,578.2,4976,right
16,1,binary,44,2,trial,1325240.0,1328256.0,3016.0,44,R,1327598,1327834,238,1417.7,378.1,4818,right
16,1,binary,44,2,trial,1325240.0,1328256.0,3016.0,44,R,1327914,1328222,310,478.9,491.1,4915,left
16,1,binary,44,2,trial,1325240.0,1328256.0,3016.0,44,R,1328292,1328546,256,1478.1,483.9,4593,right
16,1,binary,45,2,fixationCross,1329155.0,1330990.0,1835.0,45,R,1328810,1329074,266,919.8,563.5,5095,NA
16,1,binary,45,2,trial,1329155.0,1330990.0,1835.0,45,R,1329096,1329310,216,965.1,564.7,5338,NA
16,1,binary,45,2,trial,1329155.0,1330990.0,1835.0,45,R,1329358,1329504,148,517.8,546.9,5228,left
16,1,binary,45,2,trial,1329155.0,1330990.0,1835.0,45,R,1329580,1329886,308,1453.0,611.6,4741,right
16,1,binary,45,2,trial,1329155.0,1330990.0,1835.0,45,R,1329922,1330108,188,1477.2,693.4,4587,right
16,1,binary,45,2,trial,1329155.0,1330990.0,1835.0,45,R,1330144,1330582,440,1412.6,453.7,4537,right
16,1,binary,45,2,trial,1329155.0,1330990.0,1835.0,45,R,1330622,1330842,222,1431.8,585.0,4621,right
16,1,binary,45,2,postResponse,1329155.0,1330990.0,1835.0,45,R,1330868,1331324,458,1486.2,673.2,4763,right
16,1,binary,46,2,fixationCross,1332056.0,1334206.0,2150.0,46,R,1331398,1331486,90,1490.5,677.7,4833,right
16,1,binary,46,2,fixationCross,1332056.0,1334206.0,2150.0,46,R,1331524,1331746,224,1305.9,593.6,5001,right
16,1,binary,46,2,trial,1332056.0,1334206.0,2150.0,46,R,1331792,1332188,398,963.6,535.9,5145,NA
16,1,binary,46,2,trial,1332056.0,1334206.0,2150.0,46,R,1332236,1332562,328,556.6,514.6,5139,left
16,1,binary,46,2,trial,1332056.0,1334206.0,2150.0,46,R,1332580,1332832,254,527.4,466.3,4876,left
16,1,binary,46,2,trial,1332056.0,1334206.0,2150.0,46,R,1332896,1333204,310,1442.7,479.7,4605,right
16,1,binary,46,2,trial,1332056.0,1334206.0,2150.0,46,R,1333228,1333556,330,1353.9,547.1,4590,right
16,1,binary,46,2,trial,1332056.0,1334206.0,2150.0,46,R,1333584,1333988,406,1390.5,438.0,4655,right
16,1,binary,46,2,trial,1332056.0,1334206.0,2150.0,46,R,1334052,1334388,338,578.9,468.1,4914,left
16,1,binary,47,1,fixationCross,1335323.0,1336957.0,1634.0,47,R,1334640,1334742,104,1298.8,951.3,5033,NA
16,1,binary,47,1,fixationCross,1335323.0,1336957.0,1634.0,47,R,1334806,1334998,194,1048.3,352.1,5163,NA
16,1,binary,47,1,fixationCross,1335323.0,1336957.0,1634.0,47,R,1335046,1335274,230,961.2,504.1,5373,NA
16,1,binary,47,1,trial,1335323.0,1336957.0,1634.0,47,R,1335296,1335494,200,969.6,557.0,5271,NA
16,1,binary,47,1,trial,1335323.0,1336957.0,1634.0,47,R,1335538,1335770,234,625.4,469.2,5168,left
16,1,binary,47,1,trial,1335323.0,1336957.0,1634.0,47,R,1335842,1336178,338,1445.0,522.9,4814,right
16,1,binary,47,1,trial,1335323.0,1336957.0,1634.0,47,R,1336204,1336374,172,1480.3,646.9,4805,right
16,1,binary,47,1,trial,1335323.0,1336957.0,1634.0,47,R,1336442,1337030,590,570.9,485.0,4908,left
16,1,binary,47,1,postResponse,1335323.0,1336957.0,1634.0,47,R,1337044,1337294,252,623.2,474.9,4994,left
16,1,binary,48,2,fixationCross,1337873.0,1339707.0,1834.0,48,R,1337394,1337584,192,790.6,505.0,5242,NA
16,1,binary,48,2,trial,1337873.0,1339707.0,1834.0,48,R,1337610,1337900,292,950.8,506.9,5370,NA
16,1,binary,48,2,trial,1337873.0,1339707.0,1834.0,48,R,1337916,1338034,120,959.6,531.6,5414,NA
16,1,binary,48,2,trial,1337873.0,1339707.0,1834.0,48,R,1338092,1338272,182,556.0,516.2,5371,left
16,1,binary,48,2,trial,1337873.0,1339707.0,1834.0,48,R,1338294,1338460,168,536.3,577.5,5040,left
16,1,binary,48,2,trial,1337873.0,1339707.0,1834.0,48,R,1338488,1338668,182,647.8,687.2,4885,left
16,1,binary,48,2,trial,1337873.0,1339707.0,1834.0,48,R,1338730,1338906,178,1455.2,518.9,4551,right
16,1,binary,48,2,trial,1337873.0,1339707.0,1834.0,48,R,1338924,1339392,470,1398.9,552.4,4576,right
16,1,binary,48,2,trial,1337873.0,1339707.0,1834.0,48,R,1339424,1339594,172,1418.0,420.7,4653,right
16,1,binary,48,2,trial,1337873.0,1339707.0,1834.0,48,R,1339608,1339982,376,1457.3,423.7,4626,right
16,1,binary,49,1,fixationCross,1340789.0,1342689.0,1900.0,49,R,1340168,1340468,302,1195.0,433.3,4864,right
16,1,binary,49,1,trial,1340789.0,1342689.0,1900.0,49,R,1340508,1340938,432,961.3,535.9,5272,NA
16,1,binary,49,1,trial,1340789.0,1342689.0,1900.0,49,R,1340986,1341202,218,558.5,484.9,5189,left
16,1,binary,49,1,trial,1340789.0,1342689.0,1900.0,49,R,1341222,1341360,140,489.8,489.8,4918,left
16,1,binary,49,1,trial,1340789.0,1342689.0,1900.0,49,R,1341382,1341704,324,418.9,459.5,4704,left
16,1,binary,49,1,trial,1340789.0,1342689.0,1900.0,49,R,1341774,1342154,382,1448.1,568.7,4558,right
16,1,binary,49,1,trial,1340789.0,1342689.0,1900.0,49,R,1342182,1342346,166,1314.7,622.0,4740,right
16,1,binary,49,1,trial,1340789.0,1342689.0,1900.0,49,R,1342412,1342610,200,546.0,689.2,4996,left
16,1,binary,49,1,trial,1340789.0,1342689.0,1900.0,49,R,1342672,1342974,304,414.3,1015.9,5107,NA
16,1,binary,50,2,fixationCross,1343856.0,1346890.0,3034.0,50,R,1343100,1343378,280,963.7,658.4,5202,NA
16,1,binary,50,2,fixationCross,1343856.0,1346890.0,3034.0,50,R,1343394,1343566,174,920.6,661.3,5341,NA
16,1,binary,50,2,trial,1343856.0,1346890.0,3034.0,50,R,1343594,1344048,456,955.6,541.4,5462,NA
16,1,binary,50,2,trial,1343856.0,1346890.0,3034.0,50,R,1344102,1344246,146,464.2,547.5,5353,left
16,1,binary,50,2,trial,1343856.0,1346890.0,3034.0,50,R,1344276,1344518,244,333.1,520.0,4984,left
16,1,binary,50,2,trial,1343856.0,1346890.0,3034.0,50,R,1344548,1344720,174,577.0,537.2,4721,left
16,1,binary,50,2,trial,1343856.0,1346890.0,3034.0,50,R,1344792,1344992,202,1431.9,554.4,4494,right
16,1,binary,50,2,trial,1343856.0,1346890.0,3034.0,50,R,1345014,1345200,188,1502.4,543.3,4534,right
16,1,binary,50,2,trial,1343856.0,1346890.0,3034.0,50,R,1345224,1345794,572,1382.9,576.4,4852,right
16,1,binary,50,2,trial,1343856.0,1346890.0,3034.0,50,R,1345862,1346224,364,534.7,493.3,5310,left
16,1,binary,50,2,trial,1343856.0,1346890.0,3034.0,50,R,1346254,1346486,234,323.8,544.8,4904,left
16,1,binary,50,2,trial,1343856.0,1346890.0,3034.0,50,R,1346570,1346794,226,1407.9,646.1,4907,right
16,1,binary,50,2,trial,1343856.0,1346890.0,3034.0,50,R,1346856,1347154,300,1456.6,987.3,5330,NA
16,1,binary,50,2,postResponse,1343856.0,1346890.0,3034.0,50,R,1347194,1347224,32,1691.0,1107.9,5455,NA
16,2,continuous,1,19,fixationCross,1422107.0,1427007.0,4900.0,51,R,1421373,1421541,170,938.8,877.6,5529,likertHorizontal
16,2,continuous,1,19,fixationCross,1422107.0,1427007.0,4900.0,51,R,1421567,1421797,232,821.7,865.4,5585,likertHorizontal
16,2,continuous,1,19,trial,1422107.0,1427007.0,4900.0,51,R,1421839,1422137,300,966.7,505.4,5591,NA
16,2,continuous,1,19,trial,1422107.0,1427007.0,4900.0,51,R,1422153,1422281,130,945.5,530.0,5758,NA
16,2,continuous,1,19,trial,1422107.0,1427007.0,4900.0,51,R,1422339,1422529,192,521.8,509.8,5695,left
16,2,continuous,1,19,trial,1422107.0,1427007.0,4900.0,51,R,1422595,1422787,194,915.3,958.0,5515,likertHorizontal
16,2,continuous,1,19,trial,1422107.0,1427007.0,4900.0,51,R,1422805,1423299,496,964.8,984.5,5472,likertHorizontal
16,2,continuous,1,19,trial,1422107.0,1427007.0,4900.0,51,R,1423369,1423525,158,602.7,485.4,5526,left
16,2,continuous,1,19,trial,1422107.0,1427007.0,4900.0,51,R,1423549,1423661,114,516.6,547.2,5629,left
16,2,continuous,1,19,trial,1422107.0,1427007.0,4900.0,51,R,1423733,1424015,284,1414.2,510.7,5343,right
16,2,continuous,1,19,trial,1422107.0,1427007.0,4900.0,51,R,1424053,1424411,360,1258.5,626.0,5301,right
16,2,continuous,1,19,trial,1422107.0,1427007.0,4900.0,51,R,1424465,1424667,204,1401.1,1021.1,5379,NA
16,2,continuous,1,19,trial,1422107.0,1427007.0,4900.0,51,R,1424741,1425023,284,521.7,1004.1,5585,NA
16,2,continuous,1,19,trial,1422107.0,1427007.0,4900.0,51,R,1425079,1425363,286,523.7,553.2,5395,left
16,2,continuous,1,19,trial,1422107.0,1427007.0,4900.0,51,R,1425417,1425597,182,557.6,940.0,5483,NA
16,2,continuous,1,19,trial,1422107.0,1427007.0,4900.0,51,R,1425765,1426005,242,548.3,584.8,5591,left
16,2,continuous,1,19,trial,1422107.0,1427007.0,4900.0,51,R,1426049,1426199,152,696.7,732.7,5684,NA
16,2,continuous,1,19,trial,1422107.0,1427007.0,4900.0,51,R,1426265,1426547,284,1378.0,528.1,5322,right
16,2,continuous,1,19,trial,1422107.0,1427007.0,4900.0,51,R,1426575,1426813,240,1539.5,604.7,5057,right
16,2,continuous,1,19,trial,1422107.0,1427007.0,4900.0,51,R,1426901,1427025,126,743.4,972.7,5279,likertHorizontal
16,2,continuous,1,19,trial,1422107.0,1427007.0,4900.0,51,R,1427047,1427247,202,673.7,990.2,5384,NA
16,2,continuous,1,19,postResponse,1422107.0,1427007.0,4900.0,51,R,1427293,1427353,62,1023.3,1030.2,5386,likertHorizontal
16,2,continuous,2,89,fixationCross,1428057.0,1432207.0,4150.0,52,R,1427429,1427535,108,1022.1,1024.4,5513,likertHorizontal
16,2,continuous,2,89,fixationCross,1428057.0,1432207.0,4150.0,52,R,1427593,1427737,146,1296.0,618.6,5558,right
16,2,continuous,2,89,trial,1428057.0,1432207.0,4150.0,52,R,1427779,1428083,306,978.0,525.1,5852,NA
16,2,continuous,2,89,trial,1428057.0,1432207.0,4150.0,52,R,1428097,1428227,132,949.2,537.6,5944,NA
16,2,continuous,2,89,trial,1428057.0,1432207.0,4150.0,52,R,1428275,1428635,362,555.0,495.5,5579,left
16,2,continuous,2,89,trial,1428057.0,1432207.0,4150.0,52,R,1428667,1428739,74,424.7,390.2,5229,left
16,2,continuous,2,89,trial,1428057.0,1432207.0,4150.0,52,R,1428815,1428997,184,1426.2,555.3,5020,right
16,2,continuous,2,89,trial,1428057.0,1432207.0,4150.0,52,R,1429017,1429435,420,1371.7,596.6,4859,right
16,2,continuous,2,89,trial,1428057.0,1432207.0,4150.0,52,R,1429457,1429595,140,1421.2,575.1,4722,right
16,2,continuous,2,89,trial,1428057.0,1432207.0,4150.0,52,R,1429615,1429725,112,1363.8,603.8,4710,right
16,2,continuous,2,89,trial,1428057.0,1432207.0,4150.0,52,R,1429841,1430161,322,381.0,405.6,4804,left
16,2,continuous,2,89,trial,1428057.0,1432207.0,4150.0,52,R,1430187,1430303,118,462.6,534.6,5077,left
16,2,continuous,2,89,trial,1428057.0,1432207.0,4150.0,52,R,1430377,1430527,152,1262.9,806.4,5145,NA
16,2,continuous,2,89,trial,1428057.0,1432207.0,4150.0,52,R,1430561,1430623,64,1393.3,607.8,5045,right
16,2,continuous,2,89,trial,1428057.0,1432207.0,4150.0,52,R,1430695,1430885,192,515.9,524.6,5095,left
16,2,continuous,2,89,trial,1428057.0,1432207.0,4150.0,52,R,1430919,1431129,212,438.6,526.9,5112,left
16,2,continuous,2,89,trial,1428057.0,1432207.0,4150.0,52,R,1431205,1431403,200,1316.6,961.9,5147,NA
16,2,continuous,2,89,trial,1428057.0,1432207.0,4150.0,52,R,1431455,1431615,162,1396.2,535.5,5012,right
16,2,continuous,2,89,trial,1428057.0,1432207.0,4150.0,52,R,1431635,1431817,184,1372.7,595.2,4969,right
16,2,continuous,2,89,trial,1428057.0,1432207.0,4150.0,52,R,1431879,1432173,296,1355.8,960.3,5032,NA
16,2,continuous,2,89,postResponse,1428057.0,1432207.0,4150.0,52,R,1432193,1432567,376,1335.0,973.7,5303,NA
16,2,continuous,3,9,fixationCross,1433174.0,1437874.0,4700.0,53,R,1432667,1432877,212,1139.8,486.1,5450,NA
16,2,continuous,3,9,fixationCross,1433174.0,1437874.0,4700.0,53,R,1432907,1433109,204,998.0,485.3,5691,NA
16,2,continuous,3,9,trial,1433174.0,1437874.0,4700.0,53,R,1433133,1433359,228,960.3,546.2,5838,NA
16,2,continuous,3,9,trial,1433174.0,1437874.0,4700.0,53,R,1433409,1433719,312,541.4,512.1,5540,left
16,2,continuous,3,9,trial,1433174.0,1437874.0,4700.0,53,R,1433755,1433879,126,600.2,600.8,5228,left
16,2,continuous,3,9,trial,1433174.0,1437874.0,4700.0,53,R,1433937,1434265,330,1378.5,558.1,4955,right
16,2,continuous,3,9,trial,1433174.0,1437874.0,4700.0,53,R,1434295,1434793,500,1546.3,478.3,4887,right
16,2,continuous,3,9,trial,1433174.0,1437874.0,4700.0,53,R,1434829,1435105,278,1299.2,459.0,5075,right
16,2,continuous,3,9,trial,1433174.0,1437874.0,4700.0,53,R,1435185,1435493,310,457.9,570.1,5363,left
16,2,continuous,3,9,trial,1433174.0,1437874.0,4700.0,53,R,1435519,1435765,248,584.0,586.1,5166,left
16,2,continuous,3,9,trial,1433174.0,1437874.0,4700.0,53,R,1435831,1435967,138,1180.5,931.7,5064,likertHorizontal
16,2,continuous,3,9,trial,1433174.0,1437874.0,4700.0,53,R,1436027,1436305,280,523.6,569.1,5132,left
16,2,continuous,3,9,trial,1433174.0,1437874.0,4700.0,53,R,1436371,1436515,146,589.7,1008.7,5347,NA
16,2,continuous,3,9,trial,1433174.0,1437874.0,4700.0,53,R,1436547,1436911,366,485.8,1011.1,5496,NA
16,2,continuous,3,9,trial,1433174.0,1437874.0,4700.0,53,R,1436969,1437213,246,510.9,478.5,5543,left
16,2,continuous,3,9,trial,1433174.0,1437874.0,4700.0,53,R,1437281,1437539,260,552.5,899.5,5758,NA
16,2,continuous,3,9,trial,1433174.0,1437874.0,4700.0,53,R,1437577,1438125,550,572.4,963.4,5915,NA
16,2,continuous,3,9,postResponse,1433174.0,1437874.0,4700.0,53,R,1438177,1438207,32,1086.0,1001.8,5759,likertHorizontal
16,2,continuous,4,96,fixationCross,1438957.0,1442557.0,3600.0,54,R,1438307,1438449,144,1088.2,1007.0,5840,likertHorizontal
16,2,continuous,4,96,fixationCross,1438957.0,1442557.0,3600.0,54,R,1438497,1438659,164,1052.7,648.2,5867,NA
16,2,continuous,4,96,trial,1438957.0,1442557.0,3600.0,54,R,1438689,1439111,424,965.9,527.9,5981,NA
16,2,continuous,4,96,trial,1438957.0,1442557.0,3600.0,54,R,1439159,1439323,166,558.8,476.7,5864,left
16,2,continuous,4,96,trial,1438957.0,1442557.0,3600.0,54,R,1439359,1439647,290,345.7,569.4,5326,left
16,2,continuous,4,96,trial,1438957.0,1442557.0,3600.0,54,R,1439657,1439793,138,318.7,572.8,5034,left
16,2,continuous,4,96,trial,1438957.0,1442557.0,3600.0,54,R,1439877,1440119,244,1423.9,491.8,4713,right
16,2,continuous,4,96,trial,1438957.0,1442557.0,3600.0,54,R,1440133,1440389,258,1421.2,459.2,4648,right
16,2,continuous,4,96,trial,1438957.0,1442557.0,3600.0,54,R,1440425,1440835,412,1442.5,558.3,4665,right
16,2,continuous,4,96,trial,1438957.0,1442557.0,3600.0,54,R,1440885,1441103,220,1355.9,882.2,4985,NA
16,2,continuous,4,96,trial,1438957.0,1442557.0,3600.0,54,R,1441157,1441329,174,1429.7,486.2,4949,right
16,2,continuous,4,96,trial,1438957.0,1442557.0,3600.0,54,R,1441395,1441747,354,1314.0,1007.0,5167,NA
16,2,continuous,4,96,trial,1438957.0,1442557.0,3600.0,54,R,1441771,1441945,176,1413.6,979.7,5168,NA
16,2,continuous,4,96,trial,1438957.0,1442557.0,3600.0,54,R,1442027,1442183,158,461.8,466.0,5395,left
16,2,continuous,4,96,trial,1438957.0,1442557.0,3600.0,54,R,1442225,1442497,274,340.3,580.0,5230,left
16,2,continuous,4,96,postResponse,1438957.0,1442557.0,3600.0,54,R,1442573,1442893,322,1370.3,968.0,4921,NA
16,2,continuous,5,94,fixationCross,1443607.0,1451107.0,7500.0,55,R,1442969,1443001,34,1377.6,969.7,5003,NA
16,2,continuous,5,94,fixationCross,1443607.0,1451107.0,7500.0,55,R,1443101,1443311,212,1134.7,609.6,5304,NA
16,2,continuous,5,94,trial,1443607.0,1451107.0,7500.0,55,R,1443345,1443779,436,949.9,532.6,5620,NA
16,2,continuous,5,94,trial,1443607.0,1451107.0,7500.0,55,R,1443841,1444041,202,524.0,587.7,5587,left
16,2,continuous,5,94,trial,1443607.0,1451107.0,7500.0,55,R,1444071,1444411,342,608.5,727.2,5158,left
16,2,continuous,5,94,trial,1443607.0,1451107.0,7500.0,55,R,1444445,1444631,188,558.9,536.2,4917,left
16,2,continuous,5,94,trial,1443607.0,1451107.0,7500.0,55,R,1444709,1445309,602,1471.0,572.4,4908,right
16,2,continuous,5,94,trial,1443607.0,1451107.0,7500.0,55,R,1445325,1445647,324,1399.0,551.6,5162,right
16,2,continuous,5,94,trial,1443607.0,1451107.0,7500.0,55,R,1445673,1446073,402,1436.0,612.7,5100,right
16,2,continuous,5,94,trial,1443607.0,1451107.0,7500.0,55,R,1446089,1446585,498,1499.6,598.2,5197,right
16,2,continuous,5,94,trial,1443607.0,1451107.0,7500.0,55,R,1446609,1446795,188,1376.7,544.9,5393,right
16,2,continuous,5,94,trial,1443607.0,1451107.0,7500.0,55,R,1446991,1447131,142,504.9,565.6,5466,left
16,2,continuous,5,94,trial,1443607.0,1451107.0,7500.0,55,R,1447167,1447395,230,601.1,709.6,5491,left
16,2,continuous,5,94,trial,1443607.0,1451107.0,7500.0,55,R,1447459,1447985,528,1450.8,547.8,5115,right
16,2,continuous,5,94,trial,1443607.0,1451107.0,7500.0,55,R,1448031,1448253,224,1326.9,721.9,5440,right
16,2,continuous,5,94,trial,1443607.0,1451107.0,7500.0,55,R,1448279,1448517,240,1422.2,641.6,5329,right
16,2,continuous,5,94,trial,1443607.0,1451107.0,7500.0,55,R,1448543,1448893,352,1359.4,571.2,5118,right
16,2,continuous,5,94,trial,1443607.0,1451107.0,7500.0,55,R,1448939,1449163,226,1434.2,904.6,5334,NA
16,2,continuous,5,94,trial,1443607.0,1451107.0,7500.0,55,R,1449203,1449349,148,1419.6,545.5,5455,right
16,2,continuous,5,94,trial,1443607.0,1451107.0,7500.0,55,R,1449503,1449783,282,562.5,598.7,5605,left
16,2,continuous,5,94,trial,1443607.0,1451107.0,7500.0,55,R,1449821,1449939,120,585.9,691.1,5598,left
16,2,continuous,5,94,trial,1443607.0,1451107.0,7500.0,55,R,1450167,1450295,130,560.3,559.8,5360,left
16,2,continuous,5,94,trial,1443607.0,1451107.0,7500.0,55,R,1450339,1450397,60,657.4,710.3,5465,left
16,2,continuous,5,94,trial,1443607.0,1451107.0,7500.0,55,R,1450453,1450701,250,1412.3,600.8,5275,right
16,2,continuous,5,94,trial,1443607.0,1451107.0,7500.0,55,R,1450763,1451017,256,1400.7,977.5,5218,NA
16,2,continuous,5,94,trial,1443607.0,1451107.0,7500.0,55,R,1451067,1451401,336,1416.2,635.3,5178,right
16,2,continuous,6,94,fixationCross,1452224.0,1456607.0,4383.0,56,R,1451515,1451675,162,960.3,594.6,5455,NA
16,2,continuous,6,94,fixationCross,1452224.0,1456607.0,4383.0,56,R,1451713,1451905,194,701.0,526.8,5620,left
16,2,continuous,6,94,trial,1452224.0,1456607.0,4383.0,56,R,1451939,1452393,456,944.8,545.4,5644,NA
16,2,continuous,6,94,trial,1452224.0,1456607.0,4383.0,56,R,1452445,1452563,120,491.6,559.3,5721,left
16,2,continuous,6,94,trial,1452224.0,1456607.0,4383.0,56,R,1452591,1452687,98,383.1,507.1,5476,left
16,2,continuous,6,94,trial,1452224.0,1456607.0,4383.0,56,R,1452769,1453103,336,1507.2,501.4,5019,right
16,2,continuous,6,94,trial,1452224.0,1456607.0,4383.0,56,R,1453173,1453317,146,457.1,522.2,5138,left
16,2,continuous,6,94,trial,1452224.0,1456607.0,4383.0,56,R,1453339,1453545,208,387.8,474.6,5177,left
16,2,continuous,6,94,trial,1452224.0,1456607.0,4383.0,56,R,1453579,1454163,586,623.5,628.8,5083,left
16,2,continuous,6,94,trial,1452224.0,1456607.0,4383.0,56,R,1454213,1454333,122,609.4,948.7,5214,NA
16,2,continuous,6,94,trial,1452224.0,1456607.0,4383.0,56,R,1454371,1454485,116,541.1,1016.3,5283,NA
16,2,continuous,6,94,trial,1452224.0,1456607.0,4383.0,56,R,1454557,1454747,192,1475.5,486.2,4973,right
16,2,continuous,6,94,trial,1452224.0,1456607.0,4383.0,56,R,1454769,1455579,812,1579.9,480.5,4933,right
16,2,continuous,6,94,trial,1452224.0,1456607.0,4383.0,56,R,1455611,1455731,122,1361.5,590.8,5119,right
16,2,continuous,6,94,trial,1452224.0,1456607.0,4383.0,56,R,1455767,1456237,472,1294.4,953.2,5203,NA
16,2,continuous,6,94,postResponse,1452224.0,1456607.0,4383.0,56,R,1456259,1456943,686,1387.9,980.0,5392,NA
16,2,continuous,7,1,fixationCross,1457840.0,1460274.0,2434.0,57,R,1457101,1457321,222,1028.6,896.4,5872,likertHorizontal
16,2,continuous,7,1,fixationCross,1457840.0,1460274.0,2434.0,57,R,1457347,1457501,156,1105.8,834.3,5921,likertHorizontal
16,2,continuous,7,1,trial,1457840.0,1460274.0,2434.0,57,R,1457555,1457997,444,961.2,509.8,5891,NA
16,2,continuous,7,1,trial,1457840.0,1460274.0,2434.0,57,R,1458047,1458221,176,535.0,445.7,5801,left
16,2,continuous,7,1,trial,1457840.0,1460274.0,2434.0,57,R,1458247,1458447,202,418.5,419.7,5375,left
16,2,continuous,7,1,trial,1457840.0,1460274.0,2434.0,57,R,1458457,1458723,268,405.2,410.3,5138,left
16,2,continuous,7,1,trial,1457840.0,1460274.0,2434.0,57,R,1458799,1459125,328,1375.0,576.4,4971,right
16,2,continuous,7,1,trial,1457840.0,1460274.0,2434.0,57,R,1459205,1459685,482,508.1,923.3,5200,NA
16,2,continuous,7,1,trial,1457840.0,1460274.0,2434.0,57,R,1459717,1460189,474,486.7,984.1,5559,NA
16,2,continuous,7,1,postResponse,1457840.0,1460274.0,2434.0,57,R,1460237,1460595,360,424.5,432.3,5588,left
16,2,continuous,8,97,fixationCross,1461374.0,1464141.0,2767.0,58,R,1460701,1460899,200,893.4,502.5,5567,NA
16,2,continuous,8,97,fixationCross,1461374.0,1464141.0,2767.0,58,R,1460933,1461117,186,1094.8,522.1,5669,NA
16,2,continuous,8,97,trial,1461374.0,1464141.0,2767.0,58,R,1461145,1461505,362,950.9,526.1,5772,NA
16,2,continuous,8,97,trial,1461374.0,1464141.0,2767.0,58,R,1461555,1461677,124,518.2,454.9,5666,left
16,2,continuous,8,97,trial,1461374.0,1464141.0,2767.0,58,R,1461695,1462139,446,463.7,440.2,5137,left
16,2,continuous,8,97,trial,1461374.0,1464141.0,2767.0,58,R,1462171,1462279,110,592.0,606.0,4831,left
16,2,continuous,8,97,trial,1461374.0,1464141.0,2767.0,58,R,1462343,1462605,264,1436.1,498.8,4633,right
16,2,continuous,8,97,trial,1461374.0,1464141.0,2767.0,58,R,1462631,1462905,276,1445.3,391.7,4641,right
16,2,continuous,8,97,trial,1461374.0,1464141.0,2767.0,58,R,1462951,1463157,208,1437.4,587.7,4840,right
16,2,continuous,8,97,trial,1461374.0,1464141.0,2767.0,58,R,1463219,1463649,432,1368.6,928.1,5200,NA
16,2,continuous,8,97,trial,1461374.0,1464141.0,2767.0,58,R,1463715,1463879,166,527.1,424.1,5397,left
16,2,continuous,8,97,trial,1461374.0,1464141.0,2767.0,58,R,1463905,1464007,104,463.3,412.1,5314,left
16,2,continuous,8,97,postResponse,1461374.0,1464141.0,2767.0,58,R,1464089,1464485,398,1420.7,955.9,4962,NA
16,2,continuous,9,23,fixationCross,1465274.0,1468140.0,2866.0,59,R,1464559,1464593,36,1421.1,957.3,5167,NA
16,2,continuous,9,23,fixationCross,1465274.0,1468140.0,2866.0,59,R,1464631,1464777,148,1228.3,836.5,5414,NA
16,2,continuous,9,23,fixationCross,1465274.0,1468140.0,2866.0,59,R,1464807,1464947,142,1084.6,801.6,5651,likertHorizontal
16,2,continuous,9,23,trial,1465274.0,1468140.0,2866.0,59,R,1464997,1465531,536,943.3,562.1,5711,NA
16,2,continuous,9,23,trial,1465274.0,1468140.0,2866.0,59,R,1465579,1465809,232,1390.9,492.2,5327,right
16,2,continuous,9,23,trial,1465274.0,1468140.0,2866.0,59,R,1465825,1466315,492,1356.8,522.3,5109,right
16,2,continuous,9,23,trial,1465274.0,1468140.0,2866.0,59,R,1466377,1466669,294,598.1,545.0,5190,left
16,2,continuous,9,23,trial,1465274.0,1468140.0,2866.0,59,R,1466691,1466897,208,509.8,556.6,4908,left
16,2,continuous,9,23,trial,1465274.0,1468140.0,2866.0,59,R,1466969,1467271,304,1410.1,526.8,4562,right
16,2,continuous,9,23,trial,1465274.0,1468140.0,2866.0,59,R,1467287,1467487,202,1351.9,522.7,4655,right
16,2,continuous,9,23,trial,1465274.0,1468140.0,2866.0,59,R,1467555,1467717,164,543.8,580.3,4879,left
16,2,continuous,9,23,trial,1465274.0,1468140.0,2866.0,59,R,1467777,1467961,186,682.9,987.1,4955,NA
16,2,continuous,9,23,trial,1465274.0,1468140.0,2866.0,59,R,1467997,1468173,178,489.6,1029.3,4822,NA
16,2,continuous,9,23,postResponse,1465274.0,1468140.0,2866.0,59,R,1468215,1468477,264,728.2,656.7,4803,left
16,2,continuous,10,100,fixationCross,1469307.0,1471674.0,2367.0,60,R,1468553,1468741,190,1007.7,893.1,5054,likertHorizontal
16,2,continuous,10,100,fixationCross,1469307.0,1471674.0,2367.0,60,R,1468805,1468991,188,718.7,536.6,5329,left
16,2,continuous,10,100,fixationCross,1469307.0,1471674.0,2367.0,60,R,1469023,1469233,212,914.6,541.1,5375,NA
16,2,continuous,10,100,trial,1469307.0,1471674.0,2367.0,60,R,1469251,1469379,130,943.7,550.0,5424,NA
16,2,continuous,10,100,trial,1469307.0,1471674.0,2367.0,60,R,1469499,1469661,164,547.6,504.4,5466,left
16,2,continuous,10,100,trial,1469307.0,1471674.0,2367.0,60,R,1469689,1469775,88,485.0,565.3,5217,left
16,2,continuous,10,100,trial,1469307.0,1471674.0,2367.0,60,R,1469851,1470019,170,1484.8,494.5,4778,right
16,2,continuous,10,100,trial,1469307.0,1471674.0,2367.0,60,R,1470043,1470959,918,1418.4,474.3,4511,right
16,2,continuous,10,100,trial,1469307.0,1471674.0,2367.0,60,R,1471025,1471171,148,577.1,530.1,4833,left
16,2,continuous,10,100,trial,1469307.0,1471674.0,2367.0,60,R,1471207,1471275,70,505.3,579.9,4897,left
16,2,continuous,10,100,trial,1469307.0,1471674.0,2367.0,60,R,1471341,1471505,166,1402.0,1002.9,4808,NA
16,2,continuous,10,100,trial,1469307.0,1471674.0,2367.0,60,R,1471525,1471665,142,1457.6,989.4,4742,NA
16,2,continuous,10,100,postResponse,1469307.0,1471674.0,2367.0,60,R,1471709,1472009,302,1438.2,481.3,4691,right
16,2,continuous,11,65,fixationCross,1472707.0,1475658.0,2951.0,61,R,1472083,1472157,76,1432.5,477.3,4831,right
16,2,continuous,11,65,fixationCross,1472707.0,1475658.0,2951.0,61,R,1472183,1472389,208,1317.3,509.4,5104,right
16,2,continuous,11,65,fixationCross,1472707.0,1475658.0,2951.0,61,R,1472431,1472687,258,983.4,530.8,5420,NA
16,2,continuous,11,65,trial,1472707.0,1475658.0,2951.0,61,R,1472701,1472865,166,956.1,541.8,5435,NA
16,2,continuous,11,65,trial,1472707.0,1475658.0,2951.0,61,R,1472911,1473185,276,592.5,559.2,5356,left
16,2,continuous,11,65,trial,1472707.0,1475658.0,2951.0,61,R,1473209,1473487,280,506.4,594.6,5095,left
16,2,continuous,11,65,trial,1472707.0,1475658.0,2951.0,61,R,1473553,1473821,270,1431.5,496.0,4744,right
16,2,continuous,11,65,trial,1472707.0,1475658.0,2951.0,61,R,1473849,1474077,230,1311.6,413.3,4732,right
16,2,continuous,11,65,trial,1472707.0,1475658.0,2951.0,61,R,1474105,1474507,404,1500.3,546.4,4794,right
16,2,continuous,11,65,trial,1472707.0,1475658.0,2951.0,61,R,1474573,1475013,442,1208.3,959.9,5013,NA
16,2,continuous,11,65,postResponse,1472707.0,1475658.0,2951.0,61,R,1475037,1475991,956,1084.8,958.9,5562,likertHorizontal
16,2,continuous,12,68,fixationCross,1476691.0,1479041.0,2350.0,62,R,1476065,1476285,222,1149.4,707.6,5801,NA
16,2,continuous,12,68,fixationCross,1476691.0,1479041.0,2350.0,62,R,1476311,1476399,90,1046.9,559.4,5791,NA
16,2,continuous,12,68,fixationCross,1476691.0,1479041.0,2350.0,62,R,1476431,1476463,34,854.4,881.9,3558,likertHorizontal
16,2,continuous,12,68,trial,1476691.0,1479041.0,2350.0,62,R,1476521,1476833,314,960.1,531.8,5739,NA
16,2,continuous,12,68,trial,1476691.0,1479041.0,2350.0,62,R,1476879,1477069,192,586.1,517.5,5819,left
16,2,continuous,12,68,trial,1476691.0,1479041.0,2350.0,62,R,1477099,1477307,210,444.9,454.1,5400,left
16,2,continuous,12,68,trial,1476691.0,1479041.0,2350.0,62,R,1477349,1477495,148,594.5,581.7,5085,left
16,2,continuous,12,68,trial,1476691.0,1479041.0,2350.0,62,R,1477515,1477699,186,575.8,582.7,4927,left
16,2,continuous,12,68,trial,1476691.0,1479041.0,2350.0,62,R,1477757,1478045,290,1396.2,554.6,4567,right
16,2,continuous,12,68,trial,1476691.0,1479041.0,2350.0,62,R,1478071,1478271,202,1442.4,624.5,4643,right
16,2,continuous,12,68,trial,1476691.0,1479041.0,2350.0,62,R,1478295,1478539,246,1535.5,680.9,4796,right
16,2,continuous,12,68,trial,1476691.0,1479041.0,2350.0,62,R,1478591,1478823,234,1215.5,917.6,5064,NA
16,2,continuous,12,68,trial,1476691.0,1479041.0,2350.0,62,R,1478891,1479051,162,523.2,480.7,5117,left
16,2,continuous,12,68,trial,1476691.0,1479041.0,2350.0,62,R,1479077,1479347,272,432.1,467.8,5068,left
16,2,continuous,13,28,fixationCross,1480157.0,1483425.0,3268.0,63,R,1479569,1479855,288,823.9,564.0,5127,NA
16,2,continuous,13,28,trial,1480157.0,1483425.0,3268.0,63,R,1479881,1480295,416,949.9,556.2,5332,NA
16,2,continuous,13,28,trial,1480157.0,1483425.0,3268.0,63,R,1480339,1480477,140,601.7,494.6,5291,left
16,2,continuous,13,28,trial,1480157.0,1483425.0,3268.0,63,R,1480499,1480681,184,520.8,509.9,5036,left
16,2,continuous,13,28,trial,1480157.0,1483425.0,3268.0,63,R,1480707,1480749,44,550.4,520.0,4889,left
16,2,continuous,13,28,trial,1480157.0,1483425.0,3268.0,63,R,1480775,1480963,190,560.0,421.3,4735,left
16,2,continuous,13,28,trial,1480157.0,1483425.0,3268.0,63,R,1481001,1481207,208,308.6,394.2,4647,left
16,2,continuous,13,28,trial,1480157.0,1483425.0,3268.0,63,R,1481239,1481479,242,539.1,572.1,4659,left
16,2,continuous,13,28,trial,1480157.0,1483425.0,3268.0,63,R,1481501,1481675,176,465.4,534.1,4652,left
16,2,continuous,13,28,trial,1480157.0,1483425.0,3268.0,63,R,1481747,1481991,246,1383.4,469.5,4504,right
16,2,continuous,13,28,trial,1480157.0,1483425.0,3268.0,63,R,1482025,1482355,332,1568.2,567.5,4538,right
16,2,continuous,13,28,trial,1480157.0,1483425.0,3268.0,63,R,1482381,1482663,284,1631.1,650.9,4620,right
16,2,continuous,13,28,trial,1480157.0,1483425.0,3268.0,63,R,1482737,1482967,232,755.6,866.6,4965,likertHorizontal
16,2,continuous,13,28,trial,1480157.0,1483425.0,3268.0,63,R,1483003,1483227,226,619.5,643.3,4905,left
16,2,continuous,13,28,trial,1480157.0,1483425.0,3268.0,63,R,1483287,1483469,184,726.6,942.9,5089,NA
16,2,continuous,13,28,postResponse,1480157.0,1483425.0,3268.0,63,R,1483501,1483761,262,745.1,996.3,5181,likertHorizontal
16,2,continuous,14,78,fixationCross,1484541.0,1486191.0,1650.0,64,R,1483835,1483971,138,936.2,979.2,5327,likertHorizontal
16,2,continuous,14,78,fixationCross,1484541.0,1486191.0,1650.0,64,R,1484019,1484235,218,758.2,577.4,5402,NA
16,2,continuous,14,78,trial,1484541.0,1486191.0,1650.0,64,R,1484265,1484575,312,943.7,550.9,5437,NA
16,2,continuous,14,78,trial,1484541.0,1486191.0,1650.0,64,R,1484599,1484707,110,806.8,533.1,5520,NA
16,2,continuous,14,78,trial,1484541.0,1486191.0,1650.0,64,R,1484751,1484943,194,462.1,519.1,5426,left
16,2,continuous,14,78,trial,1484541.0,1486191.0,1650.0,64,R,1485021,1485241,222,1476.4,465.5,4751,right
16,2,continuous,14,78,trial,1484541.0,1486191.0,1650.0,64,R,1485265,1485669,406,1496.5,389.9,4566,right
16,2,continuous,14,78,trial,1484541.0,1486191.0,1650.0,64,R,1485733,1486035,304,1200.6,905.8,4886,NA
16,2,continuous,14,78,postResponse,1484541.0,1486191.0,1650.0,64,R,1486069,1486527,460,1224.0,971.2,5249,NA
16,2,continuous,15,48,fixationCross,1487091.0,1491592.0,4501.0,65,R,1486657,1486661,6,835.9,901.6,3548,likertHorizontal
16,2,continuous,15,48,trial,1487091.0,1491592.0,4501.0,65,R,1486715,1487229,516,941.8,563.2,5660,NA
16,2,continuous,15,48,trial,1487091.0,1491592.0,4501.0,65,R,1487277,1487509,234,585.8,468.9,5568,left
16,2,continuous,15,48,trial,1487091.0,1491592.0,4501.0,65,R,1487547,1487755,210,330.1,489.9,5194,left
16,2,continuous,15,48,trial,1487091.0,1491592.0,4501.0,65,R,1487825,1488207,384,1439.0,610.6,4837,right
16,2,continuous,15,48,trial,1487091.0,1491592.0,4501.0,65,R,1488223,1488693,472,1488.7,611.5,4770,right
16,2,continuous,15,48,trial,1487091.0,1491592.0,4501.0,65,R,1488717,1489021,306,1615.1,580.7,4792,right
16,2,continuous,15,48,trial,1487091.0,1491592.0,4501.0,65,R,1489055,1489405,352,1401.1,620.6,4794,right
16,2,continuous,15,48,trial,1487091.0,1491592.0,4501.0,65,R,1489483,1489623,142,439.7,513.4,4916,left
16,2,continuous,15,48,trial,1487091.0,1491592.0,4501.0,65,R,1489649,1489861,214,322.4,499.6,4896,left
16,2,continuous,15,48,trial,1487091.0,1491592.0,4501.0,65,R,1489897,1490197,302,633.3,477.2,4842,left
16,2,continuous,15,48,trial,1487091.0,1491592.0,4501.0,65,R,1490265,1490461,198,658.3,964.3,5072,NA
16,2,continuous,15,48,trial,1487091.0,1491592.0,4501.0,65,R,1490523,1490781,260,1259.0,946.6,4928,NA
16,2,continuous,15,48,trial,1487091.0,1491592.0,4501.0,65,R,1490807,1490937,132,1134.7,987.9,5118,likertHorizontal
16,2,continuous,15,48,trial,1487091.0,1491592.0,4501.0,65,R,1490977,1491191,216,858.4,951.2,5441,likertHorizontal
16,2,continuous,15,48,trial,1487091.0,1491592.0,4501.0,65,R,1491225,1491397,174,935.8,975.6,5606,likertHorizontal
16,2,continuous,15,48,trial,1487091.0,1491592.0,4501.0,65,R,1491435,1491643,210,985.4,728.1,5603,NA
16,2,continuous,15,48,postResponse,1487091.0,1491592.0,4501.0,65,R,1491695,1491925,232,923.1,950.4,5728,likertHorizontal
16,2,continuous,16,36,fixationCross,1492657.0,1495408.0,2751.0,66,R,1492117,1492345,230,999.6,717.9,5872,NA
16,2,continuous,16,36,fixationCross,1492657.0,1495408.0,2751.0,66,R,1492389,1492633,246,943.6,541.5,5820,NA
16,2,continuous,16,36,trial,1492657.0,1495408.0,2751.0,66,R,1492643,1492795,154,954.6,560.8,5595,NA
16,2,continuous,16,36,trial,1492657.0,1495408.0,2751.0,66,R,1492845,1493051,208,552.1,450.0,5397,left
16,2,continuous,16,36,trial,1492657.0,1495408.0,2751.0,66,R,1493063,1493363,302,540.7,426.8,4942,left
16,2,continuous,16,36,trial,1492657.0,1495408.0,2751.0,66,R,1493427,1493579,154,1410.2,507.3,4716,right
16,2,continuous,16,36,trial,1492657.0,1495408.0,2751.0,66,R,1493605,1493937,334,1313.1,500.9,4686,right
16,2,continuous,16,36,trial,1492657.0,1495408.0,2751.0,66,R,1494001,1494203,204,536.5,492.0,4660,left
16,2,continuous,16,36,trial,1492657.0,1495408.0,2751.0,66,R,1494225,1494459,236,539.7,425.1,4672,left
16,2,continuous,16,36,trial,1492657.0,1495408.0,2751.0,66,R,1494519,1494835,318,666.4,975.3,4978,NA
16,2,continuous,16,36,trial,1492657.0,1495408.0,2751.0,66,R,1494865,1495091,228,714.6,999.0,5134,NA
16,2,continuous,16,36,postResponse,1492657.0,1495408.0,2751.0,66,R,1495117,1495749,634,825.5,981.9,5408,likertHorizontal
16,2,continuous,17,33,fixationCross,1496291.0,1498725.0,2434.0,67,R,1495881,1496197,318,908.6,561.3,5587,NA
16,2,continuous,17,33,trial,1496291.0,1498725.0,2434.0,67,R,1496211,1496429,220,950.9,558.9,5638,NA
16,2,continuous,17,33,trial,1496291.0,1498725.0,2434.0,67,R,1496477,1496553,78,489.0,503.0,5514,left
16,2,continuous,17,33,trial,1496291.0,1498725.0,2434.0,67,R,1496581,1496873,294,414.3,430.9,5151,left
16,2,continuous,17,33,trial,1496291.0,1498725.0,2434.0,67,R,1496949,1497303,356,1355.3,577.3,4761,right
16,2,continuous,17,33,trial,1496291.0,1498725.0,2434.0,67,R,1497321,1497497,178,1410.9,572.3,4589,right
16,2,continuous,17,33,trial,1496291.0,1498725.0,2434.0,67,R,1497569,1497707,140,437.5,449.6,4599,left
16,2,continuous,17,33,trial,1496291.0,1498725.0,2434.0,67,R,1497725,1498005,282,386.1,450.1,4556,left
16,2,continuous,17,33,trial,1496291.0,1498725.0,2434.0,67,R,1498069,1498819,752,768.1,1006.5,4877,likertHorizontal
16,2,continuous,17,33,trial,1496291.0,1498725.0,2434.0,67,R,1498863,1499041,180,906.2,832.5,5129,likertHorizontal
16,2,continuous,18,77,fixationCross,1499874.0,1503291.0,3417.0,68,R,1499135,1499365,232,972.6,567.5,5284,NA
16,2,continuous,18,77,fixationCross,1499874.0,1503291.0,3417.0,68,R,1499399,1499617,220,778.3,532.4,5278,NA
16,2,continuous,18,77,trial,1499874.0,1503291.0,3417.0,68,R,1499647,1500015,370,935.2,550.9,5290,NA
16,2,continuous,18,77,trial,1499874.0,1503291.0,3417.0,68,R,1500059,1500343,286,582.7,489.3,5305,left
16,2,continuous,18,77,trial,1499874.0,1503291.0,3417.0,68,R,1500417,1500635,220,1451.5,521.9,4844,right
16,2,continuous,18,77,trial,1499874.0,1503291.0,3417.0,68,R,1500659,1500853,196,1442.8,458.7,4786,right
16,2,continuous,18,77,trial,1499874.0,1503291.0,3417.0,68,R,1500865,1501315,452,1452.0,434.9,4630,right
16,2,continuous,18,77,trial,1499874.0,1503291.0,3417.0,68,R,1501395,1501603,210,545.7,544.6,4777,left
16,2,continuous,18,77,trial,1499874.0,1503291.0,3417.0,68,R,1501625,1502235,612,625.4,551.4,4775,left
16,2,continuous,18,77,trial,1499874.0,1503291.0,3417.0,68,R,1502261,1502517,258,555.5,606.8,4924,left
16,2,continuous,18,77,trial,1499874.0,1503291.0,3417.0,68,R,1502587,1502839,254,1528.8,551.8,4756,right
16,2,continuous,18,77,trial,1499874.0,1503291.0,3417.0,68,R,1502861,1503103,244,1589.5,555.2,4657,right
16,2,continuous,18,77,postResponse,1499874.0,1503291.0,3417.0,68,R,1503167,1503617,452,1182.6,948.6,4793,likertHorizontal
16,2,continuous,19,76,fixationCross,1504375.0,1506758.0,2383.0,69,R,1503733,1503831,100,1269.7,936.7,4995,NA
16,2,continuous,19,76,fixationCross,1504375.0,1506758.0,2383.0,69,R,1503879,1504081,204,1065.0,596.3,5262,NA
16,2,continuous,19,76,trial,1504375.0,1506758.0,2383.0,69,R,1504107,1504449,344,945.6,546.1,5400,NA
16,2,continuous,19,76,trial,1504375.0,1506758.0,2383.0,69,R,1504549,1504711,164,536.4,463.7,5370,left
16,2,continuous,19,76,trial,1504375.0,1506758.0,2383.0,69,R,1504743,1504977,236,445.4,534.0,5140,left
16,2,continuous,19,76,trial,1504375.0,1506758.0,2383.0,69,R,1505003,1505247,246,584.7,566.7,4891,left
16,2,continuous,19,76,trial,1504375.0,1506758.0,2383.0,69,R,1505307,1505519,214,1387.4,552.5,4562,right
16,2,continuous,19,76,trial,1504375.0,1506758.0,2383.0,69,R,1505547,1505815,270,1508.8,513.5,4391,right
16,2,continuous,19,76,trial,1504375.0,1506758.0,2383.0,69,R,1505837,1506049,214,1522.7,446.6,4304,right
16,2,continuous,19,76,trial,1504375.0,1506758.0,2383.0,69,R,1506103,1506415,314,1190.5,905.0,4463,NA
16,2,continuous,19,76,trial,1504375.0,1506758.0,2383.0,69,R,1506439,1506665,228,1165.8,977.6,4658,likertHorizontal
16,2,continuous,19,76,postResponse,1504375.0,1506758.0,2383.0,69,R,1506703,1507093,392,1304.8,718.8,4832,right
16,2,continuous,20,75,fixationCross,1507841.0,1512558.0,4717.0,70,R,1507293,1507537,246,1068.4,612.4,5328,NA
16,2,continuous,20,75,fixationCross,1507841.0,1512558.0,4717.0,70,R,1507565,1507827,264,933.7,548.5,5525,NA
16,2,continuous,20,75,trial,1507841.0,1512558.0,4717.0,70,R,1507849,1508009,162,956.6,553.9,5456,NA
16,2,continuous,20,75,trial,1507841.0,1512558.0,4717.0,70,R,1508053,1508289,238,622.0,491.4,5320,left
16,2,continuous,20,75,trial,1507841.0,1512558.0,4717.0,70,R,1508317,1508631,316,418.4,527.3,5013,left
16,2,continuous,20,75,trial,1507841.0,1512558.0,4717.0,70,R,1508711,1509033,324,1452.5,528.7,4649,right
16,2,continuous,20,75,trial,1507841.0,1512558.0,4717.0,70,R,1509049,1509459,412,1397.2,516.2,4634,right
16,2,continuous,20,75,trial,1507841.0,1512558.0,4717.0,70,R,1509483,1509737,256,1463.0,591.2,4688,right
16,2,continuous,20,75,trial,1507841.0,1512558.0,4717.0,70,R,1509767,1510151,386,1506.3,485.9,4701,right
16,2,continuous,20,75,trial,1507841.0,1512558.0,4717.0,70,R,1510173,1510357,186,1549.1,432.0,4589,right
16,2,continuous,20,75,trial,1507841.0,1512558.0,4717.0,70,R,1510401,1510583,184,1461.5,620.7,4614,right
16,2,continuous,20,75,trial,1507841.0,1512558.0,4717.0,70,R,1510607,1510889,284,1358.0,679.5,4615,right
16,2,continuous,20,75,trial,1507841.0,1512558.0,4717.0,70,R,1510921,1511125,206,1429.3,529.4,4474,right
16,2,continuous,20,75,trial,1507841.0,1512558.0,4717.0,70,R,1511141,1511747,608,1381.5,513.0,4410,right
16,2,continuous,20,75,trial,1507841.0,1512558.0,4717.0,70,R,1511817,1512213,398,596.3,557.5,4686,left
16,2,continuous,20,75,trial,1507841.0,1512558.0,4717.0,70,R,1512229,1512331,104,629.9,606.3,4599,left
16,2,continuous,20,75,trial,1507841.0,1512558.0,4717.0,70,R,1512393,1512593,202,1151.8,939.1,4615,likertHorizontal
16,2,continuous,20,75,postResponse,1507841.0,1512558.0,4717.0,70,R,1512619,1512893,276,1210.1,980.4,4686,NA
16,2,continuous,21,48,fixationCross,1513675.0,1518058.0,4383.0,71,R,1512967,1512987,22,1204.4,976.1,4884,NA
16,2,continuous,21,48,fixationCross,1513675.0,1518058.0,4383.0,71,R,1513033,1513209,178,1087.6,680.7,5066,NA
16,2,continuous,21,48,fixationCross,1513675.0,1518058.0,4383.0,71,R,1513389,1513577,190,888.8,512.7,5342,NA
16,2,continuous,21,48,trial,1513675.0,1518058.0,4383.0,71,R,1513599,1513745,148,946.9,560.5,5479,NA
16,2,continuous,21,48,trial,1513675.0,1518058.0,4383.0,71,R,1513875,1514067,194,598.1,519.4,5393,left
16,2,continuous,21,48,trial,1513675.0,1518058.0,4383.0,71,R,1514095,1514221,128,366.5,484.7,5103,left
16,2,continuous,21,48,trial,1513675.0,1518058.0,4383.0,71,R,1514295,1514565,272,1341.0,535.3,4689,right
16,2,continuous,21,48,trial,1513675.0,1518058.0,4383.0,71,R,1514587,1514939,354,1422.6,567.4,4359,right
16,2,continuous,21,48,trial,1513675.0,1518058.0,4383.0,71,R,1515011,1515347,338,519.7,504.9,4446,left
16,2,continuous,21,48,trial,1513675.0,1518058.0,4383.0,71,R,1515369,1515617,250,586.7,502.4,4679,left
16,2,continuous,21,48,trial,1513675.0,1518058.0,4383.0,71,R,1515691,1515947,258,1377.2,611.7,4716,right
16,2,continuous,21,48,trial,1513675.0,1518058.0,4383.0,71,R,1515969,1516177,210,1384.1,548.2,4568,right
16,2,continuous,21,48,trial,1513675.0,1518058.0,4383.0,71,R,1516199,1516255,58,1264.7,563.6,4526,right
16,2,continuous,21,48,trial,1513675.0,1518058.0,4383.0,71,R,1516301,1517087,788,989.2,996.6,4973,likertHorizontal
16,2,continuous,21,48,trial,1513675.0,1518058.0,4383.0,71,R,1517107,1517339,234,944.2,974.4,5537,likertHorizontal
16,2,continuous,21,48,trial,1513675.0,1518058.0,4383.0,71,R,1517363,1517657,296,1048.3,976.4,5596,likertHorizontal
16,2,continuous,21,48,trial,1513675.0,1518058.0,4383.0,71,R,1517677,1517921,246,943.7,982.0,5637,likertHorizontal
16,2,continuous,21,48,postResponse,1513675.0,1518058.0,4383.0,71,R,1517947,1518393,448,1088.5,882.5,5626,likertHorizontal
16,2,continuous,22,26,fixationCross,1519208.0,1521692.0,2484.0,72,R,1518475,1518717,244,1150.2,853.2,5762,likertHorizontal
16,2,continuous,22,26,fixationCross,1519208.0,1521692.0,2484.0,72,R,1518741,1518897,158,1101.1,798.2,5860,likertHorizontal
16,2,continuous,22,26,fixationCross,1519208.0,1521692.0,2484.0,72,R,1518937,1519147,212,960.7,546.7,5758,NA
16,2,continuous,22,26,trial,1519208.0,1521692.0,2484.0,72,R,1519299,1519417,120,949.1,512.4,5601,NA
16,2,continuous,22,26,trial,1519208.0,1521692.0,2484.0,72,R,1519461,1519657,198,610.9,503.4,5605,left
16,2,continuous,22,26,trial,1519208.0,1521692.0,2484.0,72,R,1519683,1519987,306,500.5,626.3,5254,left
16,2,continuous,22,26,trial,1519208.0,1521692.0,2484.0,72,R,1520063,1520289,228,1524.3,582.4,4652,right
16,2,continuous,22,26,trial,1519208.0,1521692.0,2484.0,72,R,1520315,1520679,366,1422.8,618.6,4712,right
16,2,continuous,22,26,trial,1519208.0,1521692.0,2484.0,72,R,1520739,1520947,210,677.5,518.6,5017,left
16,2,continuous,22,26,trial,1519208.0,1521692.0,2484.0,72,R,1521017,1521495,480,728.2,1019.5,4970,NA
16,2,continuous,22,26,trial,1519208.0,1521692.0,2484.0,72,R,1521537,1521745,210,700.6,690.6,5054,left
16,2,continuous,22,26,trial,1519208.0,1521692.0,2484.0,72,R,1521807,1521903,98,740.1,941.4,5228,likertHorizontal
16,2,continuous,23,20,fixationCross,1522791.0,1525625.0,2834.0,73,R,1522143,1522485,344,946.4,674.3,5450,NA
16,2,continuous,23,20,trial,1522791.0,1525625.0,2834.0,73,R,1522513,1522945,434,936.2,559.4,5436,NA
16,2,continuous,23,20,trial,1522791.0,1525625.0,2834.0,73,R,1522995,1523161,168,499.2,449.6,5212,left
16,2,continuous,23,20,trial,1522791.0,1525625.0,2834.0,73,R,1523187,1523439,254,390.5,493.2,4792,left
16,2,continuous,23,20,trial,1522791.0,1525625.0,2834.0,73,R,1523485,1523629,146,632.8,659.2,4640,left
16,2,continuous,23,20,trial,1522791.0,1525625.0,2834.0,73,R,1523695,1524021,328,1406.1,573.3,4393,right
16,2,continuous,23,20,trial,1522791.0,1525625.0,2834.0,73,R,1524047,1524229,184,1468.6,654.1,4377,right
16,2,continuous,23,20,trial,1522791.0,1525625.0,2834.0,73,R,1524295,1525027,734,749.3,935.1,4904,likertHorizontal
16,2,continuous,23,20,trial,1522791.0,1525625.0,2834.0,73,R,1525049,1525469,422,681.3,976.6,5341,NA
16,2,continuous,23,20,trial,1522791.0,1525625.0,2834.0,73,R,1525523,1525663,142,502.4,447.9,5258,left
16,2,continuous,23,20,trial,1522791.0,1525625.0,2834.0,73,R,1525685,1525903,220,419.5,481.6,5098,left
16,2,continuous,24,82,fixationCross,1526492.0,1529558.0,3066.0,74,R,1526037,1526167,132,788.1,526.9,4931,NA
16,2,continuous,24,82,fixationCross,1526492.0,1529558.0,3066.0,74,R,1526193,1526443,252,928.2,470.0,5080,NA
16,2,continuous,24,82,trial,1526492.0,1529558.0,3066.0,74,R,1526469,1526693,226,957.4,558.1,5246,NA
16,2,continuous,24,82,trial,1526492.0,1529558.0,3066.0,74,R,1526743,1526963,222,489.4,529.5,5209,left
16,2,continuous,24,82,trial,1526492.0,1529558.0,3066.0,74,R,1527057,1527679,624,1419.0,546.8,4707,right
16,2,continuous,24,82,trial,1526492.0,1529558.0,3066.0,74,R,1527707,1527935,230,1355.1,665.0,4826,right
16,2,continuous,24,82,trial,1526492.0,1529558.0,3066.0,74,R,1527971,1528349,380,1183.5,935.0,5002,NA
16,2,continuous,24,82,trial,1526492.0,1529558.0,3066.0,74,R,1528395,1528587,194,1256.3,741.0,4984,NA
16,2,continuous,24,82,trial,1526492.0,1529558.0,3066.0,74,R,1528631,1528957,328,1241.0,940.2,5266,NA
16,2,continuous,24,82,trial,1526492.0,1529558.0,3066.0,74,R,1528979,1529563,586,1237.4,957.0,5445,NA
16,2,continuous,24,82,trial,1526492.0,1529558.0,3066.0,74,R,1529611,1529829,220,1249.7,709.8,5515,right
16,2,continuous,25,73,fixationCross,1530459.0,1534658.0,4199.0,75,R,1529967,1530095,130,1662.8,932.9,5551,NA
16,2,continuous,25,73,fixationCross,1530459.0,1534658.0,4199.0,75,R,1530165,1530381,218,942.4,530.0,5730,NA
16,2,continuous,25,73,trial,1530459.0,1534658.0,4199.0,75,R,1530401,1530609,210,957.9,555.7,5617,NA
16,2,continuous,25,73,trial,1530459.0,1534658.0,4199.0,75,R,1530651,1530893,244,577.6,501.2,5504,left
16,2,continuous,25,73,trial,1530459.0,1534658.0,4199.0,75,R,1530929,1531165,238,588.7,580.8,5261,left
16,2,continuous,25,73,trial,1530459.0,1534658.0,4199.0,75,R,1531229,1531529,302,1468.9,569.0,4832,right
16,2,continuous,25,73,trial,1530459.0,1534658.0,4199.0,75,R,1531555,1532039,486,1563.4,477.4,4786,right
16,2,continuous,25,73,trial,1530459.0,1534658.0,4199.0,75,R,1532071,1532273,204,1341.2,442.2,4908,right
16,2,continuous,25,73,trial,1530459.0,1534658.0,4199.0,75,R,1532335,1532533,200,1107.8,891.2,5124,likertHorizontal
16,2,continuous,25,73,trial,1530459.0,1534658.0,4199.0,75,R,1532665,1532983,320,1388.4,498.6,5037,right
16,2,continuous,25,73,trial,1530459.0,1534658.0,4199.0,75,R,1533019,1533213,196,1559.5,474.8,5132,right
16,2,continuous,25,73,trial,1530459.0,1534658.0,4199.0,75,R,1533275,1533433,160,1248.3,912.2,5302,NA
16,2,continuous,25,73,trial,1530459.0,1534658.0,4199.0,75,R,1533471,1533687,218,1177.7,978.5,5338,likertHorizontal
16,2,continuous,25,73,trial,1530459.0,1534658.0,4199.0,75,R,1533735,1534043,310,1202.4,693.2,5373,right
16,2,continuous,25,73,trial,1530459.0,1534658.0,4199.0,75,R,1534061,1534275,216,1196.6,738.5,5613,NA
16,2,continuous,25,73,trial,1530459.0,1534658.0,4199.0,75,R,1534305,1534959,656,1180.0,977.2,5706,likertHorizontal
16,2,continuous,26,22,fixationCross,1562608.0,1566325.0,3717.0,76,R,1561929,1561957,30,927.1,30.8,4573,NA
16,2,continuous,26,22,fixationCross,1562608.0,1566325.0,3717.0,76,R,1562009,1562161,154,318.7,46.2,4545,NA
16,2,continuous,26,22,fixationCross,1562608.0,1566325.0,3717.0,76,R,1562325,1562547,224,959.2,502.4,4824,NA
16,2,continuous,26,22,trial,1562608.0,1566325.0,3717.0,76,R,1562569,1562759,192,941.0,556.1,5152,NA
16,2,continuous,26,22,trial,1562608.0,1566325.0,3717.0,76,R,1562817,1563041,226,511.4,520.0,5345,left
16,2,continuous,26,22,trial,1562608.0,1566325.0,3717.0,76,R,1563079,1563279,202,412.1,622.6,5145,left
16,2,continuous,26,22,trial,1562608.0,1566325.0,3717.0,76,R,1563307,1563467,162,553.3,660.9,5154,left
16,2,continuous,26,22,trial,1562608.0,1566325.0,3717.0,76,R,1563541,1563901,362,1412.5,531.9,4856,right
16,2,continuous,26,22,trial,1562608.0,1566325.0,3717.0,76,R,1563923,1564097,176,1486.0,544.3,4636,right
16,2,continuous,26,22,trial,1562608.0,1566325.0,3717.0,76,R,1564137,1564413,278,1217.9,517.5,4713,right
16,2,continuous,26,22,trial,1562608.0,1566325.0,3717.0,76,R,1564449,1564589,142,1453.6,526.2,4771,right
16,2,continuous,26,22,trial,1562608.0,1566325.0,3717.0,76,R,1564657,1564963,308,552.9,553.2,5101,left
16,2,continuous,26,22,trial,1562608.0,1566325.0,3717.0,76,R,1564985,1565283,300,504.0,570.4,5059,left
16,2,continuous,26,22,trial,1562608.0,1566325.0,3717.0,76,R,1565321,1565563,244,571.3,686.7,5129,left
16,2,continuous,26,22,trial,1562608.0,1566325.0,3717.0,76,R,1565597,1565885,290,735.2,988.3,5218,NA
16,2,continuous,26,22,trial,1562608.0,1566325.0,3717.0,76,R,1565909,1566313,406,654.6,979.7,5293,NA
16,2,continuous,26,22,trial,1562608.0,1566325.0,3717.0,76,R,1566361,1566573,214,700.0,723.8,5378,left
16,2,continuous,26,22,postResponse,1562608.0,1566325.0,3717.0,76,R,1566613,1566673,62,956.5,659.5,5359,NA
16,2,continuous,27,84,fixationCross,1567458.0,1569675.0,2217.0,77,R,1566773,1566925,154,955.1,657.2,5466,NA
16,2,continuous,27,84,fixationCross,1567458.0,1569675.0,2217.0,77,R,1566953,1567147,196,852.3,544.3,5596,NA
16,2,continuous,27,84,trial,1567458.0,1569675.0,2217.0,77,R,1567173,1567625,454,955.3,551.7,5568,NA
16,2,continuous,27,84,trial,1567458.0,1569675.0,2217.0,77,R,1567665,1568003,340,556.9,536.7,5276,left
16,2,continuous,27,84,trial,1567458.0,1569675.0,2217.0,77,R,1568069,1568371,304,1444.3,569.1,4580,right
16,2,continuous,27,84,trial,1567458.0,1569675.0,2217.0,77,R,1568385,1568819,436,1463.0,539.3,4355,right
16,2,continuous,27,84,trial,1567458.0,1569675.0,2217.0,77,R,1568887,1569045,160,574.1,533.5,4394,left
16,2,continuous,27,84,trial,1567458.0,1569675.0,2217.0,77,R,1569107,1569275,170,1425.1,572.6,4330,right
16,2,continuous,27,84,trial,1567458.0,1569675.0,2217.0,77,R,1569327,1569547,222,1296.2,937.8,4470,NA
16,2,continuous,27,84,trial,1567458.0,1569675.0,2217.0,77,R,1569577,1569699,124,1287.9,990.3,4640,NA
16,2,continuous,27,84,postResponse,1567458.0,1569675.0,2217.0,77,R,1569755,1570011,258,1467.6,535.0,4725,right
16,2,continuous,28,20,fixationCross,1570591.0,1573108.0,2517.0,78,R,1570113,1570275,164,1260.2,572.5,4981,right
16,2,continuous,28,20,fixationCross,1570591.0,1573108.0,2517.0,78,R,1570325,1570515,192,971.3,586.5,5330,NA
16,2,continuous,28,20,trial,1570591.0,1573108.0,2517.0,78,R,1570531,1570739,210,947.4,550.8,5423,NA
16,2,continuous,28,20,trial,1570591.0,1573108.0,2517.0,78,R,1570785,1570985,202,547.4,498.9,5253,left
16,2,continuous,28,20,trial,1570591.0,1573108.0,2517.0,78,R,1571011,1571263,254,443.6,521.5,4822,left
16,2,continuous,28,20,trial,1570591.0,1573108.0,2517.0,78,R,1571327,1571655,330,1408.6,559.6,4528,right
16,2,continuous,28,20,trial,1570591.0,1573108.0,2517.0,78,R,1571687,1572015,330,1466.0,613.3,4564,right
16,2,continuous,28,20,trial,1570591.0,1573108.0,2517.0,78,R,1572081,1572329,250,736.2,894.4,4975,NA
16,2,continuous,28,20,trial,1570591.0,1573108.0,2517.0,78,R,1572381,1572549,170,587.9,649.4,4895,left
16,2,continuous,28,20,trial,1570591.0,1573108.0,2517.0,78,R,1572609,1572853,246,621.8,934.1,5081,NA
16,2,continuous,28,20,trial,1570591.0,1573108.0,2517.0,78,R,1572887,1573115,230,645.6,1003.8,5209,NA
16,2,continuous,28,20,trial,1570591.0,1573108.0,2517.0,78,R,1573171,1573343,174,686.0,574.8,5185,left
16,2,continuous,28,20,postResponse,1570591.0,1573108.0,2517.0,78,R,1573401,1573447,48,1212.1,661.4,5049,right
16,2,continuous,29,92,fixationCross,1574325.0,1576942.0,2617.0,79,R,1573521,1573733,214,1210.4,668.6,5142,right
16,2,continuous,29,92,fixationCross,1574325.0,1576942.0,2617.0,79,R,1573751,1573997,248,1161.0,635.5,5395,NA
16,2,continuous,29,92,trial,1574325.0,1576942.0,2617.0,79,R,1574035,1574483,450,946.7,548.8,5517,NA
16,2,continuous,29,92,trial,1574325.0,1576942.0,2617.0,79,R,1574529,1574735,208,531.9,484.1,5490,left
16,2,continuous,29,92,trial,1574325.0,1576942.0,2617.0,79,R,1574759,1575029,272,534.3,536.7,5107,left
