participantNo,block,task,blockTrial,response,trialStage,trialStartTime,trialFinishTime,rt,trial,eye,fixStart,fixEnd,fixLength,fixPosX,fixPosY,dilation,aoi
22,1,binary,1,2,fixationCross,17364726.0,17370027.0,5301.0,1,R,17364217,17364623,408,961.0,636.5,4133,NA
22,1,binary,1,2,trial,17364726.0,17370027.0,5301.0,1,R,17364649,17364897,250,969.4,501.8,4247,NA
22,1,binary,1,2,trial,17364726.0,17370027.0,5301.0,1,R,17364949,17365147,200,561.0,510.6,4371,left
22,1,binary,1,2,trial,17364726.0,17370027.0,5301.0,1,R,17365205,17365369,166,461.8,939.4,4111,NA
22,1,binary,1,2,trial,17364726.0,17370027.0,5301.0,1,R,17365383,17365583,202,477.0,970.4,4207,NA
22,1,binary,1,2,trial,17364726.0,17370027.0,5301.0,1,R,17365635,17365791,158,506.7,539.6,4369,left
22,1,binary,1,2,trial,17364726.0,17370027.0,5301.0,1,R,17365817,17365955,140,531.0,427.7,4233,left
22,1,binary,1,2,trial,17364726.0,17370027.0,5301.0,1,R,17366027,17366279,254,1436.0,552.2,3839,right
22,1,binary,1,2,trial,17364726.0,17370027.0,5301.0,1,R,17366331,17366497,168,1463.4,888.5,3858,NA
22,1,binary,1,2,trial,17364726.0,17370027.0,5301.0,1,R,17366517,17366763,248,1455.3,943.9,4072,NA
22,1,binary,1,2,trial,17364726.0,17370027.0,5301.0,1,R,17366809,17367069,262,1375.0,591.7,4210,right
22,1,binary,1,2,trial,17364726.0,17370027.0,5301.0,1,R,17367123,17367555,434,1434.3,952.5,4283,NA
22,1,binary,1,2,trial,17364726.0,17370027.0,5301.0,1,R,17367597,17368071,476,1431.1,691.3,4351,right
22,1,binary,1,2,trial,17364726.0,17370027.0,5301.0,1,R,17368111,17369169,1060,1436.7,942.8,4629,NA
22,1,binary,1,2,trial,17364726.0,17370027.0,5301.0,1,R,17369209,17369457,250,1399.6,616.6,4718,right
22,1,binary,1,2,trial,17364726.0,17370027.0,5301.0,1,R,17369485,17369617,134,1378.9,450.8,4517,right
22,1,binary,1,2,trial,17364726.0,17370027.0,5301.0,1,R,17369637,17369861,226,1341.1,384.7,4274,right
22,1,binary,1,2,trial,17364726.0,17370027.0,5301.0,1,R,17369923,17370035,114,1449.6,858.6,4316,NA
22,1,binary,1,2,postResponse,17364726.0,17370027.0,5301.0,1,R,17370059,17370393,336,1423.5,962.3,4457,NA
22,1,binary,2,1,fixationCross,17371244.0,17373843.0,2599.0,2,R,17370491,17370929,440,1180.1,415.6,4570,NA
22,1,binary,2,1,fixationCross,17371244.0,17373843.0,2599.0,2,R,17370967,17371117,152,943.2,495.3,4679,NA
22,1,binary,2,1,trial,17371244.0,17373843.0,2599.0,2,R,17371131,17371403,274,950.8,532.2,4762,NA
22,1,binary,2,1,trial,17371244.0,17373843.0,2599.0,2,R,17371451,17371589,140,598.9,507.8,4678,left
22,1,binary,2,1,trial,17371244.0,17373843.0,2599.0,2,R,17371639,17371745,108,875.0,804.7,4080,likertHorizontal
22,1,binary,2,1,trial,17371244.0,17373843.0,2599.0,2,R,17371801,17372005,206,371.0,526.8,3904,left
22,1,binary,2,1,trial,17371244.0,17373843.0,2599.0,2,R,17372023,17372385,364,341.1,480.9,3862,left
22,1,binary,2,1,trial,17371244.0,17373843.0,2599.0,2,R,17372445,17372557,114,507.7,917.0,3948,NA
22,1,binary,2,1,trial,17371244.0,17373843.0,2599.0,2,R,17372573,17372715,144,484.2,962.3,3942,NA
22,1,binary,2,1,trial,17371244.0,17373843.0,2599.0,2,R,17372799,17372923,126,1500.3,544.0,3815,right
22,1,binary,2,1,trial,17371244.0,17373843.0,2599.0,2,R,17372947,17373333,388,1432.8,429.1,3764,right
22,1,binary,2,1,trial,17371244.0,17373843.0,2599.0,2,R,17373415,17373537,124,389.6,490.3,3866,left
22,1,binary,2,1,trial,17371244.0,17373843.0,2599.0,2,R,17373553,17373837,286,329.0,482.8,3840,left
22,1,binary,2,1,postResponse,17371244.0,17373843.0,2599.0,2,R,17373881,17374191,312,654.7,431.8,3796,left
22,1,binary,3,2,fixationCross,17374910.0,17379543.0,4633.0,3,R,17374265,17374323,60,652.3,433.2,3984,left
22,1,binary,3,2,fixationCross,17374910.0,17379543.0,4633.0,3,R,17374339,17374593,256,690.7,484.4,4172,left
22,1,binary,3,2,trial,17374910.0,17379543.0,4633.0,3,R,17374635,17375059,426,956.1,523.0,4136,NA
22,1,binary,3,2,trial,17374910.0,17379543.0,4633.0,3,R,17375111,17375277,168,562.8,520.1,4191,left
22,1,binary,3,2,trial,17374910.0,17379543.0,4633.0,3,R,17375327,17375419,94,515.9,850.0,3907,NA
22,1,binary,3,2,trial,17374910.0,17379543.0,4633.0,3,R,17375441,17375637,198,450.9,953.1,3798,NA
22,1,binary,3,2,trial,17374910.0,17379543.0,4633.0,3,R,17375713,17376255,544,1407.6,506.1,3684,right
22,1,binary,3,2,trial,17374910.0,17379543.0,4633.0,3,R,17376329,17376475,148,511.7,386.3,3825,left
22,1,binary,3,2,trial,17374910.0,17379543.0,4633.0,3,R,17376485,17376699,216,520.5,367.0,3742,left
22,1,binary,3,2,trial,17374910.0,17379543.0,4633.0,3,R,17376769,17376845,78,455.3,881.9,3696,NA
22,1,binary,3,2,trial,17374910.0,17379543.0,4633.0,3,R,17376865,17377035,172,455.3,968.7,3729,NA
22,1,binary,3,2,trial,17374910.0,17379543.0,4633.0,3,R,17377115,17377611,498,1444.1,462.8,3659,right
22,1,binary,3,2,trial,17374910.0,17379543.0,4633.0,3,R,17377685,17377937,254,498.3,457.1,3753,left
22,1,binary,3,2,trial,17374910.0,17379543.0,4633.0,3,R,17377989,17378123,136,480.9,813.2,3692,NA
22,1,binary,3,2,trial,17374910.0,17379543.0,4633.0,3,R,17378147,17378331,186,474.3,905.6,3749,NA
22,1,binary,3,2,trial,17374910.0,17379543.0,4633.0,3,R,17378381,17378573,194,431.3,571.4,3900,left
22,1,binary,3,2,trial,17374910.0,17379543.0,4633.0,3,R,17378655,17379101,448,1483.9,523.7,3517,right
22,1,binary,3,2,trial,17374910.0,17379543.0,4633.0,3,R,17379149,17379431,284,1381.4,837.7,3615,NA
22,1,binary,3,2,trial,17374910.0,17379543.0,4633.0,3,R,17379457,17379623,168,1442.8,945.4,3784,NA
22,1,binary,3,2,postResponse,17374910.0,17379543.0,4633.0,3,R,17379667,17379883,218,1421.6,561.7,4006,right
22,1,binary,4,2,fixationCross,17380610.0,17384560.0,3950.0,4,R,17379957,17380271,316,1417.5,561.8,4179,right
22,1,binary,4,2,fixationCross,17380610.0,17384560.0,3950.0,4,R,17380311,17380439,130,1048.0,565.3,4308,NA
22,1,binary,4,2,trial,17380610.0,17384560.0,3950.0,4,R,17380459,17380773,316,956.9,537.1,4232,NA
22,1,binary,4,2,trial,17380610.0,17384560.0,3950.0,4,R,17380823,17381125,304,547.7,559.2,4143,left
22,1,binary,4,2,trial,17380610.0,17384560.0,3950.0,4,R,17381195,17381379,186,1360.8,455.8,3651,right
22,1,binary,4,2,trial,17380610.0,17384560.0,3950.0,4,R,17381401,17381901,502,1357.4,392.6,3548,right
22,1,binary,4,2,trial,17380610.0,17384560.0,3950.0,4,R,17381927,17382061,136,1350.0,520.9,3534,right
22,1,binary,4,2,trial,17380610.0,17384560.0,3950.0,4,R,17382129,17382387,260,552.2,545.3,3754,left
22,1,binary,4,2,trial,17380610.0,17384560.0,3950.0,4,R,17382401,17382587,188,584.2,576.2,3742,left
22,1,binary,4,2,trial,17380610.0,17384560.0,3950.0,4,R,17382635,17382841,208,462.2,969.9,3693,NA
22,1,binary,4,2,trial,17380610.0,17384560.0,3950.0,4,R,17382921,17383015,96,1465.2,956.4,3592,NA
22,1,binary,4,2,trial,17380610.0,17384560.0,3950.0,4,R,17383061,17383273,214,1440.1,501.3,3563,right
22,1,binary,4,2,trial,17380610.0,17384560.0,3950.0,4,R,17383299,17383587,290,1329.1,570.5,3613,right
22,1,binary,4,2,trial,17380610.0,17384560.0,3950.0,4,R,17383615,17383921,308,1480.4,490.5,3570,right
22,1,binary,4,2,postResponse,17380610.0,17384560.0,3950.0,4,R,17383947,17384933,988,1392.7,357.3,3651,right
22,1,binary,5,1,fixationCross,17385694.0,17387160.0,1466.0,5,R,17385033,17385099,68,1383.7,355.2,3815,right
22,1,binary,5,1,fixationCross,17385694.0,17387160.0,1466.0,5,R,17385147,17385381,236,1309.2,561.0,3934,right
22,1,binary,5,1,trial,17385694.0,17387160.0,1466.0,5,R,17385425,17385843,420,966.5,520.8,4180,NA
22,1,binary,5,1,trial,17385694.0,17387160.0,1466.0,5,R,17385895,17386091,198,522.2,522.3,4163,left
22,1,binary,5,1,trial,17385694.0,17387160.0,1466.0,5,R,17386117,17386273,158,391.2,424.1,3850,left
22,1,binary,5,1,trial,17385694.0,17387160.0,1466.0,5,R,17386291,17386441,152,330.4,386.1,3662,left
22,1,binary,5,1,trial,17385694.0,17387160.0,1466.0,5,R,17386519,17386779,262,1388.2,500.8,3426,right
22,1,binary,5,1,trial,17385694.0,17387160.0,1466.0,5,R,17386863,17387045,184,500.5,948.8,3898,NA
22,1,binary,5,1,trial,17385694.0,17387160.0,1466.0,5,R,17387055,17387121,68,471.3,957.4,4007,NA
22,1,binary,5,1,postResponse,17385694.0,17387160.0,1466.0,5,R,17387167,17387495,330,481.0,516.6,3992,left
22,1,binary,6,2,fixationCross,17388260.0,17389843.0,1583.0,6,R,17387595,17387749,156,474.9,517.3,3836,left
22,1,binary,6,2,fixationCross,17388260.0,17389843.0,1583.0,6,R,17387809,17387973,166,827.4,571.4,3818,NA
22,1,binary,6,2,trial,17388260.0,17389843.0,1583.0,6,R,17387995,17388415,422,951.7,534.0,3938,NA
22,1,binary,6,2,trial,17388260.0,17389843.0,1583.0,6,R,17388469,17388797,330,463.3,531.2,3964,left
22,1,binary,6,2,trial,17388260.0,17389843.0,1583.0,6,R,17388873,17389189,318,1449.3,485.3,3543,right
22,1,binary,6,2,trial,17388260.0,17389843.0,1583.0,6,R,17389207,17389629,424,1386.2,521.1,3800,right
22,1,binary,6,2,trial,17388260.0,17389843.0,1583.0,6,R,17389711,17390121,412,380.0,540.6,4100,left
22,1,binary,7,2,fixationCross,17390744.0,17395444.0,4700.0,7,R,17390253,17390683,432,1030.6,535.6,3745,NA
22,1,binary,7,2,trial,17390744.0,17395444.0,4700.0,7,R,17390695,17390899,206,986.6,546.3,3910,NA
22,1,binary,7,2,trial,17390744.0,17395444.0,4700.0,7,R,17391003,17391453,452,495.3,586.4,3710,left
22,1,binary,7,2,trial,17390744.0,17395444.0,4700.0,7,R,17391527,17391731,206,1439.6,510.6,3172,right
22,1,binary,7,2,trial,17390744.0,17395444.0,4700.0,7,R,17391753,17392179,428,1341.3,566.0,3349,right
22,1,binary,7,2,trial,17390744.0,17395444.0,4700.0,7,R,17392205,17392405,202,1434.2,492.2,3574,right
22,1,binary,7,2,trial,17390744.0,17395444.0,4700.0,7,R,17392485,17392739,256,495.8,543.4,3847,left
22,1,binary,7,2,trial,17390744.0,17395444.0,4700.0,7,R,17392757,17393109,354,444.0,578.7,3658,left
22,1,binary,7,2,trial,17390744.0,17395444.0,4700.0,7,R,17393189,17393373,186,1482.0,508.2,3313,right
22,1,binary,7,2,trial,17390744.0,17395444.0,4700.0,7,R,17393397,17393779,384,1348.8,548.9,3397,right
22,1,binary,7,2,trial,17390744.0,17395444.0,4700.0,7,R,17393857,17394307,452,420.6,549.2,3771,left
22,1,binary,7,2,trial,17390744.0,17395444.0,4700.0,7,R,17394383,17394749,368,1376.6,568.0,3425,right
22,1,binary,7,2,trial,17390744.0,17395444.0,4700.0,7,R,17394767,17395413,648,1348.2,518.7,3690,right
22,1,binary,7,2,postResponse,17390744.0,17395444.0,4700.0,7,R,17395491,17395779,290,466.6,527.7,4217,left
22,1,binary,8,2,fixationCross,17396511.0,17398393.0,1882.0,8,R,17395877,17396181,306,463.0,524.6,3897,left
22,1,binary,8,2,trial,17396511.0,17398393.0,1882.0,8,R,17396235,17396659,426,938.1,525.3,3673,NA
22,1,binary,8,2,trial,17396511.0,17398393.0,1882.0,8,R,17396711,17396913,204,506.4,520.4,3787,left
22,1,binary,8,2,trial,17396511.0,17398393.0,1882.0,8,R,17396931,17397173,244,429.0,504.1,3500,left
22,1,binary,8,2,trial,17396511.0,17398393.0,1882.0,8,R,17397245,17397455,212,1293.1,555.0,3344,right
22,1,binary,8,2,trial,17396511.0,17398393.0,1882.0,8,R,17397481,17398283,804,1408.0,581.5,3548,right
22,1,binary,8,2,postResponse,17396511.0,17398393.0,1882.0,8,R,17398307,17398727,422,1485.7,550.3,3978,right
22,1,binary,9,1,fixationCross,17399344.0,17401844.0,2500.0,9,R,17398801,17398971,172,1478.1,551.7,3775,right
22,1,binary,9,1,fixationCross,17399344.0,17401844.0,2500.0,9,R,17398997,17399035,40,1317.1,600.3,3864,right
22,1,binary,9,1,fixationCross,17399344.0,17401844.0,2500.0,9,R,17399063,17399221,160,1016.9,572.8,4011,NA
22,1,binary,9,1,trial,17399344.0,17401844.0,2500.0,9,R,17399239,17399507,270,952.8,547.0,4043,NA
22,1,binary,9,1,trial,17399344.0,17401844.0,2500.0,9,R,17399561,17399773,214,491.2,555.5,4021,left
22,1,binary,9,1,trial,17399344.0,17401844.0,2500.0,9,R,17399787,17399891,106,508.2,572.3,3693,left
22,1,binary,9,1,trial,17399344.0,17401844.0,2500.0,9,R,17399911,17400147,238,462.9,624.8,3639,left
22,1,binary,9,1,trial,17399344.0,17401844.0,2500.0,9,R,17400223,17400613,392,1339.6,550.1,3631,right
22,1,binary,9,1,trial,17399344.0,17401844.0,2500.0,9,R,17400637,17401041,406,1475.0,571.4,3652,right
22,1,binary,9,1,trial,17399344.0,17401844.0,2500.0,9,R,17401119,17401429,312,504.4,542.2,3789,left
22,1,binary,9,1,trial,17399344.0,17401844.0,2500.0,9,R,17401451,17401867,418,467.4,611.0,3722,left
22,1,binary,9,1,postResponse,17399344.0,17401844.0,2500.0,9,R,17401879,17402179,302,502.1,605.4,3884,left
22,1,binary,10,1,fixationCross,17402744.0,17406293.0,3549.0,10,R,17402339,17402639,302,926.9,628.3,3910,NA
22,1,binary,10,1,trial,17402744.0,17406293.0,3549.0,10,R,17402663,17402909,248,973.1,537.8,3970,NA
22,1,binary,10,1,trial,17402744.0,17406293.0,3549.0,10,R,17402961,17403091,132,544.2,564.6,3972,left
22,1,binary,10,1,trial,17402744.0,17406293.0,3549.0,10,R,17403109,17403385,278,485.6,517.5,3554,left
22,1,binary,10,1,trial,17402744.0,17406293.0,3549.0,10,R,17403465,17403837,374,1471.1,539.5,3330,right
22,1,binary,10,1,trial,17402744.0,17406293.0,3549.0,10,R,17403853,17404261,410,1462.8,494.4,3222,right
22,1,binary,10,1,trial,17402744.0,17406293.0,3549.0,10,R,17404337,17405041,706,494.3,508.4,3413,left
22,1,binary,10,1,trial,17402744.0,17406293.0,3549.0,10,R,17405115,17405375,262,1267.3,532.3,3502,right
22,1,binary,10,1,trial,17402744.0,17406293.0,3549.0,10,R,17405449,17405557,110,556.1,914.8,3796,NA
22,1,binary,10,1,trial,17402744.0,17406293.0,3549.0,10,R,17405571,17405669,100,529.2,949.8,3827,NA
22,1,binary,10,1,trial,17402744.0,17406293.0,3549.0,10,R,17405717,17405907,192,935.4,940.3,3948,likertHorizontal
22,1,binary,10,1,trial,17402744.0,17406293.0,3549.0,10,R,17405957,17406335,380,488.2,951.0,4366,NA
22,1,binary,10,1,postResponse,17402744.0,17406293.0,3549.0,10,R,17406383,17406627,246,520.6,590.7,4391,left
22,1,binary,11,1,fixationCross,17407361.0,17410043.0,2682.0,11,R,17406737,17407035,300,1001.4,869.0,4064,likertHorizontal
22,1,binary,11,1,fixationCross,17407361.0,17410043.0,2682.0,11,R,17407079,17407223,146,958.7,521.8,4028,NA
22,1,binary,11,1,trial,17407361.0,17410043.0,2682.0,11,R,17407337,17407527,192,995.8,505.7,4039,NA
22,1,binary,11,1,trial,17407361.0,17410043.0,2682.0,11,R,17407577,17407833,258,563.9,526.9,4103,left
22,1,binary,11,1,trial,17407361.0,17410043.0,2682.0,11,R,17407845,17408025,182,610.9,505.0,3747,left
22,1,binary,11,1,trial,17407361.0,17410043.0,2682.0,11,R,17408099,17408311,214,1479.6,500.3,3348,right
22,1,binary,11,1,trial,17407361.0,17410043.0,2682.0,11,R,17408321,17408515,196,1512.4,505.8,3302,right
22,1,binary,11,1,trial,17407361.0,17410043.0,2682.0,11,R,17408537,17408819,284,1603.1,499.5,3440,right
22,1,binary,11,1,trial,17407361.0,17410043.0,2682.0,11,R,17408897,17409099,204,601.6,509.3,3824,left
22,1,binary,11,1,trial,17407361.0,17410043.0,2682.0,11,R,17409113,17409685,574,636.3,484.2,3725,left
22,1,binary,11,1,trial,17407361.0,17410043.0,2682.0,11,R,17409761,17409993,234,1463.9,505.5,3648,right
22,1,binary,11,1,postResponse,17407361.0,17410043.0,2682.0,11,R,17410015,17410377,364,1565.8,518.4,3683,right
22,1,binary,12,1,fixationCross,17411194.0,17413661.0,2467.0,12,R,17410477,17410699,224,1554.6,515.9,3654,right
22,1,binary,12,1,fixationCross,17411194.0,17413661.0,2467.0,12,R,17410785,17410919,136,738.7,583.8,3853,NA
22,1,binary,12,1,trial,17411194.0,17413661.0,2467.0,12,R,17410957,17411349,394,952.2,541.7,3770,NA
22,1,binary,12,1,trial,17411194.0,17413661.0,2467.0,12,R,17411395,17411523,130,620.9,473.1,3891,left
22,1,binary,12,1,trial,17411194.0,17413661.0,2467.0,12,R,17411543,17411931,390,679.5,410.4,3524,left
22,1,binary,12,1,trial,17411194.0,17413661.0,2467.0,12,R,17411999,17412143,146,1388.6,496.3,3356,right
22,1,binary,12,1,trial,17411194.0,17413661.0,2467.0,12,R,17412165,17412375,212,1457.2,549.9,3364,right
22,1,binary,12,1,trial,17411194.0,17413661.0,2467.0,12,R,17412397,17412597,202,1544.2,485.7,3279,right
22,1,binary,12,1,trial,17411194.0,17413661.0,2467.0,12,R,17412667,17412841,176,671.5,450.5,3489,left
22,1,binary,12,1,trial,17411194.0,17413661.0,2467.0,12,R,17412883,17413015,134,368.9,512.6,3562,left
22,1,binary,12,1,trial,17411194.0,17413661.0,2467.0,12,R,17413031,17413177,148,296.5,506.7,3603,left
22,1,binary,12,1,trial,17411194.0,17413661.0,2467.0,12,R,17413235,17413651,418,466.5,930.9,3702,NA
22,1,binary,12,1,postResponse,17411194.0,17413661.0,2467.0,12,R,17413725,17414007,284,1333.0,557.0,3846,right
22,1,binary,13,1,fixationCross,17414894.0,17418527.0,3633.0,13,R,17414107,17414567,462,1334.2,565.4,3971,right
22,1,binary,13,1,fixationCross,17414894.0,17418527.0,3633.0,13,R,17414609,17414761,154,1036.8,529.2,4023,NA
22,1,binary,13,1,trial,17414894.0,17418527.0,3633.0,13,R,17414777,17415053,278,972.2,529.2,4107,NA
22,1,binary,13,1,trial,17414894.0,17418527.0,3633.0,13,R,17415105,17415303,200,548.6,569.8,4356,left
22,1,binary,13,1,trial,17414894.0,17418527.0,3633.0,13,R,17415315,17415509,196,514.6,589.0,4130,left
22,1,binary,13,1,trial,17414894.0,17418527.0,3633.0,13,R,17415581,17415785,206,1393.0,574.8,4029,right
22,1,binary,13,1,trial,17414894.0,17418527.0,3633.0,13,R,17415839,17415973,136,1400.5,951.1,4236,NA
22,1,binary,13,1,trial,17414894.0,17418527.0,3633.0,13,R,17415989,17416051,64,1409.7,980.6,4239,NA
22,1,binary,13,1,trial,17414894.0,17418527.0,3633.0,13,R,17416099,17416343,246,1416.5,477.8,4149,right
22,1,binary,13,1,trial,17414894.0,17418527.0,3633.0,13,R,17416417,17417061,646,524.0,571.5,4278,left
22,1,binary,13,1,trial,17414894.0,17418527.0,3633.0,13,R,17417141,17417407,268,1457.8,535.1,3979,right
22,1,binary,13,1,trial,17414894.0,17418527.0,3633.0,13,R,17417433,17417893,462,1360.2,449.4,3835,right
22,1,binary,13,1,trial,17414894.0,17418527.0,3633.0,13,R,17417967,17418375,410,512.9,561.6,3858,left
22,1,binary,13,1,trial,17414894.0,17418527.0,3633.0,13,R,17418419,17418559,142,475.8,826.8,3847,NA
22,1,binary,13,1,trial,17414894.0,17418527.0,3633.0,13,R,17418583,17418825,244,471.1,935.2,3878,NA
22,1,binary,14,1,fixationCross,17419860.0,17426444.0,6584.0,14,R,17418935,17418987,54,596.9,894.1,3969,NA
22,1,binary,14,1,fixationCross,17419860.0,17426444.0,6584.0,14,R,17419073,17419285,214,1093.3,592.4,3736,NA
22,1,binary,14,1,fixationCross,17419860.0,17426444.0,6584.0,14,R,17419309,17419401,94,978.6,528.1,3760,NA
22,1,binary,14,1,fixationCross,17419860.0,17426444.0,6584.0,14,R,17419491,17419697,208,1118.9,439.9,3705,NA
22,1,binary,14,1,trial,17419860.0,17426444.0,6584.0,14,R,17419731,17420043,314,973.6,522.2,3820,NA
22,1,binary,14,1,trial,17419860.0,17426444.0,6584.0,14,R,17420097,17420313,218,523.3,537.6,3720,left
22,1,binary,14,1,trial,17419860.0,17426444.0,6584.0,14,R,17420325,17420665,342,502.8,501.5,3420,left
22,1,binary,14,1,trial,17419860.0,17426444.0,6584.0,14,R,17420737,17420993,258,1375.2,456.8,3172,right
22,1,binary,14,1,trial,17419860.0,17426444.0,6584.0,14,R,17421007,17421223,218,1396.2,482.0,3349,right
22,1,binary,14,1,trial,17419860.0,17426444.0,6584.0,14,R,17421233,17421681,450,1416.7,494.4,3578,right
22,1,binary,14,1,trial,17419860.0,17426444.0,6584.0,14,R,17421753,17421963,212,561.2,524.9,3715,left
22,1,binary,14,1,trial,17419860.0,17426444.0,6584.0,14,R,17421981,17422453,474,477.4,520.9,3508,left
22,1,binary,14,1,trial,17419860.0,17426444.0,6584.0,14,R,17422527,17422835,310,1329.5,425.2,3376,right
22,1,binary,14,1,trial,17419860.0,17426444.0,6584.0,14,R,17422849,17423001,154,1359.1,407.4,3467,right
22,1,binary,14,1,trial,17419860.0,17426444.0,6584.0,14,R,17423029,17423265,238,1482.9,551.9,3563,right
22,1,binary,14,1,trial,17419860.0,17426444.0,6584.0,14,R,17423293,17423717,426,1286.5,628.4,3759,right
22,1,binary,14,1,trial,17419860.0,17426444.0,6584.0,14,R,17423793,17424237,446,487.7,573.0,3937,left
22,1,binary,14,1,trial,17419860.0,17426444.0,6584.0,14,R,17424257,17424895,640,474.1,522.0,3714,left
22,1,binary,14,1,trial,17419860.0,17426444.0,6584.0,14,R,17424945,17425073,130,497.2,802.1,3824,NA
22,1,binary,14,1,trial,17419860.0,17426444.0,6584.0,14,R,17425099,17425245,148,452.7,931.0,3816,NA
22,1,binary,14,1,trial,17419860.0,17426444.0,6584.0,14,R,17425289,17425545,258,492.9,552.5,3810,left
22,1,binary,14,1,trial,17419860.0,17426444.0,6584.0,14,R,17425599,17425779,182,944.3,501.6,3539,NA
22,1,binary,14,1,trial,17419860.0,17426444.0,6584.0,14,R,17425833,17426181,350,497.0,623.5,3634,left
22,1,binary,14,1,postResponse,17419860.0,17426444.0,6584.0,14,R,17426207,17426779,574,480.0,498.7,3588,left
22,1,binary,15,1,fixationCross,17427544.0,17429661.0,2117.0,15,R,17426853,17426955,104,479.5,503.0,3622,left
22,1,binary,15,1,fixationCross,17427544.0,17429661.0,2117.0,15,R,17427041,17427237,198,1281.0,534.2,3609,right
22,1,binary,15,1,trial,17427544.0,17429661.0,2117.0,15,R,17427273,17427717,446,997.4,522.1,3767,NA
22,1,binary,15,1,trial,17427544.0,17429661.0,2117.0,15,R,17427769,17427953,186,547.9,562.5,3760,left
22,1,binary,15,1,trial,17427544.0,17429661.0,2117.0,15,R,17427963,17428159,198,508.7,572.4,3524,left
22,1,binary,15,1,trial,17427544.0,17429661.0,2117.0,15,R,17428237,17428749,514,1474.2,472.3,3277,right
22,1,binary,15,1,trial,17427544.0,17429661.0,2117.0,15,R,17428823,17428969,148,1396.9,902.3,3650,NA
22,1,binary,15,1,trial,17427544.0,17429661.0,2117.0,15,R,17429015,17429187,174,948.1,901.4,3803,likertHorizontal
22,1,binary,15,1,trial,17427544.0,17429661.0,2117.0,15,R,17429235,17429381,148,542.3,926.3,4132,NA
22,1,binary,15,1,trial,17427544.0,17429661.0,2117.0,15,R,17429433,17429651,220,499.9,581.9,4241,left
22,1,binary,15,1,postResponse,17427544.0,17429661.0,2117.0,15,R,17429727,17429997,272,1466.2,500.3,3560,right
22,1,binary,16,2,fixationCross,17430711.0,17432477.0,1766.0,16,R,17430073,17430381,310,1453.8,504.0,3661,right
22,1,binary,16,2,trial,17430711.0,17432477.0,1766.0,16,R,17430431,17430857,428,974.7,522.9,4045,NA
22,1,binary,16,2,trial,17430711.0,17432477.0,1766.0,16,R,17430909,17431083,176,510.2,557.6,4075,left
22,1,binary,16,2,trial,17430711.0,17432477.0,1766.0,16,R,17431159,17431515,358,1422.2,497.2,3380,right
22,1,binary,16,2,trial,17430711.0,17432477.0,1766.0,16,R,17431537,17431839,304,1439.7,586.5,3434,right
22,1,binary,16,2,trial,17430711.0,17432477.0,1766.0,16,R,17431859,17432015,158,1473.0,539.5,3550,right
22,1,binary,16,2,trial,17430711.0,17432477.0,1766.0,16,R,17432047,17432269,224,1360.1,396.6,3488,right
22,1,binary,16,2,trial,17430711.0,17432477.0,1766.0,16,R,17432345,17432491,148,491.9,510.4,3756,left
22,1,binary,16,2,postResponse,17430711.0,17432477.0,1766.0,16,R,17432515,17432811,298,456.0,581.8,3773,left
22,1,binary,17,2,fixationCross,17433593.0,17435094.0,1501.0,17,R,17432885,17433007,124,681.4,612.2,3635,left
22,1,binary,17,2,fixationCross,17433593.0,17435094.0,1501.0,17,R,17433031,17433281,252,824.2,695.4,3698,NA
22,1,binary,17,2,trial,17433593.0,17435094.0,1501.0,17,R,17433319,17433755,438,959.3,530.8,3794,NA
22,1,binary,17,2,trial,17433593.0,17435094.0,1501.0,17,R,17433807,17434011,206,526.1,541.5,3787,left
22,1,binary,17,2,trial,17433593.0,17435094.0,1501.0,17,R,17434083,17434365,284,1414.4,487.6,3337,right
22,1,binary,17,2,trial,17433593.0,17435094.0,1501.0,17,R,17434383,17434611,230,1466.7,499.9,3286,right
22,1,binary,17,2,trial,17433593.0,17435094.0,1501.0,17,R,17434675,17434797,124,1466.8,1018.1,3499,NA
22,1,binary,17,2,trial,17433593.0,17435094.0,1501.0,17,R,17434813,17434973,162,1470.8,968.2,3639,NA
22,1,binary,17,2,postResponse,17433593.0,17435094.0,1501.0,17,R,17435021,17435427,408,1464.9,516.4,3783,right
22,1,binary,18,1,fixationCross,17436161.0,17438311.0,2150.0,18,R,17435527,17435837,312,1453.7,513.9,3771,right
22,1,binary,18,1,fixationCross,17436161.0,17438311.0,2150.0,18,R,17435889,17436033,146,1000.0,523.6,3965,NA
22,1,binary,18,1,trial,17436161.0,17438311.0,2150.0,18,R,17436045,17436313,270,967.7,530.1,3985,NA
22,1,binary,18,1,trial,17436161.0,17438311.0,2150.0,18,R,17436367,17436573,208,487.4,532.0,3991,left
22,1,binary,18,1,trial,17436161.0,17438311.0,2150.0,18,R,17436589,17436753,166,470.1,487.1,3661,left
22,1,binary,18,1,trial,17436161.0,17438311.0,2150.0,18,R,17436831,17437111,282,1498.3,490.1,3370,right
22,1,binary,18,1,trial,17436161.0,17438311.0,2150.0,18,R,17437131,17437455,326,1520.0,602.1,3483,right
22,1,binary,18,1,trial,17436161.0,17438311.0,2150.0,18,R,17437483,17437755,274,1445.1,480.5,3677,right
22,1,binary,18,1,postResponse,17436161.0,17438311.0,2150.0,18,R,17437835,17438643,810,397.7,535.2,3896,left
22,1,binary,19,2,fixationCross,17439477.0,17441161.0,1684.0,19,R,17438719,17438819,102,384.6,541.7,3808,left
22,1,binary,19,2,fixationCross,17439477.0,17441161.0,1684.0,19,R,17439023,17439155,134,1133.2,419.3,3733,NA
22,1,binary,19,2,trial,17439477.0,17441161.0,1684.0,19,R,17439185,17439629,446,966.3,508.4,3852,NA
22,1,binary,19,2,trial,17439477.0,17441161.0,1684.0,19,R,17439679,17439895,218,559.3,534.0,3761,left
22,1,binary,19,2,trial,17439477.0,17441161.0,1684.0,19,R,17439929,17440175,248,349.9,391.9,3418,left
22,1,binary,19,2,trial,17439477.0,17441161.0,1684.0,19,R,17440265,17440469,206,1389.3,517.7,3200,right
22,1,binary,19,2,trial,17439477.0,17441161.0,1684.0,19,R,17440481,17441003,524,1360.6,557.6,3422,right
22,1,binary,19,2,postResponse,17439477.0,17441161.0,1684.0,19,R,17441033,17441495,464,1501.2,465.7,3502,right
22,1,binary,20,1,fixationCross,17442211.0,17445594.0,3383.0,20,R,17441597,17441907,312,1491.3,471.2,3484,right
22,1,binary,20,1,fixationCross,17442211.0,17445594.0,3383.0,20,R,17441961,17442097,138,1030.6,508.2,3652,NA
22,1,binary,20,1,trial,17442211.0,17445594.0,3383.0,20,R,17442113,17442355,244,972.0,518.0,3678,NA
22,1,binary,20,1,trial,17442211.0,17445594.0,3383.0,20,R,17442409,17442665,258,508.2,523.5,3695,left
22,1,binary,20,1,trial,17442211.0,17445594.0,3383.0,20,R,17442687,17442869,184,400.0,485.6,3480,left
22,1,binary,20,1,trial,17442211.0,17445594.0,3383.0,20,R,17442947,17443145,200,1411.1,454.5,3246,right
22,1,binary,20,1,trial,17442211.0,17445594.0,3383.0,20,R,17443171,17443649,480,1594.5,458.0,3315,right
22,1,binary,20,1,trial,17442211.0,17445594.0,3383.0,20,R,17443685,17444009,326,1303.4,419.4,3513,right
22,1,binary,20,1,trial,17442211.0,17445594.0,3383.0,20,R,17444079,17444515,438,475.7,471.1,3767,left
22,1,binary,20,1,trial,17442211.0,17445594.0,3383.0,20,R,17444537,17444851,316,366.7,493.3,3643,left
22,1,binary,20,1,trial,17442211.0,17445594.0,3383.0,20,R,17444877,17445091,216,486.3,555.2,3613,left
22,1,binary,20,1,trial,17442211.0,17445594.0,3383.0,20,R,17445137,17445231,96,491.3,851.2,3627,NA
22,1,binary,20,1,trial,17442211.0,17445594.0,3383.0,20,R,17445253,17445429,178,471.0,925.9,3716,NA
22,1,binary,20,1,trial,17442211.0,17445594.0,3383.0,20,R,17445475,17445889,416,445.7,561.8,3854,left
22,1,binary,21,2,fixationCross,17446677.0,17449611.0,2934.0,21,R,17446027,17446361,336,1349.5,523.7,3650,right
22,1,binary,21,2,fixationCross,17446677.0,17449611.0,2934.0,21,R,17446407,17446661,256,1005.3,520.7,4029,NA
22,1,binary,21,2,trial,17446677.0,17449611.0,2934.0,21,R,17446725,17446935,212,1493.5,587.2,4123,right
22,1,binary,21,2,trial,17446677.0,17449611.0,2934.0,21,R,17446961,17447109,150,1418.2,519.4,4046,right
22,1,binary,21,2,trial,17446677.0,17449611.0,2934.0,21,R,17447181,17447453,274,503.9,529.4,4073,left
22,1,binary,21,2,trial,17446677.0,17449611.0,2934.0,21,R,17447471,17447731,262,557.1,486.0,3837,left
22,1,binary,21,2,trial,17446677.0,17449611.0,2934.0,21,R,17447803,17448011,210,1346.6,520.0,3579,right
22,1,binary,21,2,trial,17446677.0,17449611.0,2934.0,21,R,17448033,17448881,850,1450.7,509.3,3514,right
22,1,binary,21,2,trial,17446677.0,17449611.0,2934.0,21,R,17448959,17449357,400,524.6,552.8,3554,left
22,1,binary,21,2,trial,17446677.0,17449611.0,2934.0,21,R,17449385,17449867,484,551.5,433.3,3327,left
22,1,binary,22,1,fixationCross,17451744.0,17453944.0,2200.0,22,R,17450045,17450365,322,1526.3,468.1,3225,right
22,1,binary,22,1,fixationCross,17451744.0,17453944.0,2200.0,22,R,17450411,17450541,132,1091.4,517.2,3604,NA
22,1,binary,22,1,fixationCross,17451744.0,17453944.0,2200.0,22,R,17450617,17451255,640,1751.2,582.3,3662,NA
22,1,binary,22,1,fixationCross,17451744.0,17453944.0,2200.0,22,R,17451323,17451443,122,1071.1,534.5,3911,NA
22,1,binary,22,1,fixationCross,17451744.0,17453944.0,2200.0,22,R,17451465,17451673,210,959.4,521.1,3926,NA
22,1,binary,22,1,trial,17451744.0,17453944.0,2200.0,22,R,17451759,17451901,144,1646.7,547.8,3758,right
22,1,binary,22,1,trial,17451744.0,17453944.0,2200.0,22,R,17451977,17452123,148,624.2,508.5,3924,left
22,1,binary,22,1,trial,17451744.0,17453944.0,2200.0,22,R,17452145,17452363,220,515.7,485.5,3637,left
22,1,binary,22,1,trial,17451744.0,17453944.0,2200.0,22,R,17452383,17452463,82,428.8,481.1,3515,left
22,1,binary,22,1,trial,17451744.0,17453944.0,2200.0,22,R,17452541,17452873,334,1443.5,551.5,3351,right
22,1,binary,22,1,trial,17451744.0,17453944.0,2200.0,22,R,17452955,17453423,470,423.9,539.4,3537,left
22,1,binary,22,1,trial,17451744.0,17453944.0,2200.0,22,R,17453445,17453951,508,366.8,458.5,3492,left
22,1,binary,22,1,postResponse,17451744.0,17453944.0,2200.0,22,R,17453989,17454279,292,570.8,484.4,3756,left
22,1,binary,23,1,fixationCross,17454994.0,17457227.0,2233.0,23,R,17454359,17454687,330,1346.0,446.5,3620,right
22,1,binary,23,1,trial,17454994.0,17457227.0,2233.0,23,R,17454731,17455155,426,982.3,501.9,3641,NA
22,1,binary,23,1,trial,17454994.0,17457227.0,2233.0,23,R,17455215,17455589,376,469.1,504.4,3505,left
22,1,binary,23,1,trial,17454994.0,17457227.0,2233.0,23,R,17455659,17456075,418,1315.0,412.6,3094,right
22,1,binary,23,1,trial,17454994.0,17457227.0,2233.0,23,R,17456091,17456673,584,1354.3,457.5,3169,right
22,1,binary,23,1,trial,17454994.0,17457227.0,2233.0,23,R,17456747,17456923,178,498.5,481.0,3448,left
22,1,binary,23,1,postResponse,17454994.0,17457227.0,2233.0,23,R,17456939,17457563,626,469.0,522.4,3429,left
22,1,binary,24,1,fixationCross,17458378.0,17460761.0,2383.0,24,R,17457639,17457731,94,465.7,530.7,3526,left
22,1,binary,24,1,fixationCross,17458378.0,17460761.0,2383.0,24,R,17457891,17458057,168,1218.8,484.3,3489,right
22,1,binary,24,1,trial,17458378.0,17460761.0,2383.0,24,R,17458089,17458527,440,988.4,521.7,3647,NA
22,1,binary,24,1,trial,17458378.0,17460761.0,2383.0,24,R,17458569,17458839,272,1221.9,542.1,3534,right
22,1,binary,24,1,trial,17458378.0,17460761.0,2383.0,24,R,17458899,17459033,136,1411.8,951.0,3531,NA
22,1,binary,24,1,trial,17458378.0,17460761.0,2383.0,24,R,17459083,17459259,178,1396.4,498.5,3866,right
22,1,binary,24,1,trial,17458378.0,17460761.0,2383.0,24,R,17459331,17459689,360,502.6,580.8,4210,left
22,1,binary,24,1,trial,17458378.0,17460761.0,2383.0,24,R,17459733,17459943,212,453.9,961.8,3873,NA
22,1,binary,24,1,trial,17458378.0,17460761.0,2383.0,24,R,17459985,17460141,158,406.9,689.2,3910,left
22,1,binary,24,1,postResponse,17458378.0,17460761.0,2383.0,24,R,17460219,17461095,878,1394.7,513.1,3714,right
22,1,binary,25,1,fixationCross,17461828.0,17463078.0,1250.0,25,R,17461169,17461499,332,1386.4,509.8,3669,right
22,1,binary,25,1,trial,17461828.0,17463078.0,1250.0,25,R,17461549,17461969,422,951.3,517.7,3719,NA
22,1,binary,25,1,trial,17461828.0,17463078.0,1250.0,25,R,17462019,17462159,142,568.9,566.6,3753,left
22,1,binary,25,1,trial,17461828.0,17463078.0,1250.0,25,R,17462177,17462449,274,516.7,605.8,3416,left
22,1,binary,25,1,trial,17461828.0,17463078.0,1250.0,25,R,17462521,17463017,498,1383.1,516.9,3167,right
22,1,binary,25,1,trial,17461828.0,17463078.0,1250.0,25,R,17463073,17463171,100,1517.3,871.2,3436,NA
22,1,binary,25,1,trial,17461828.0,17463078.0,1250.0,25,R,17463195,17463335,142,1470.9,927.5,3461,NA
22,1,binary,26,2,fixationCross,17494995.0,17496878.0,1883.0,26,R,17494369,17494449,82,194.4,25.4,3193,NA
22,1,binary,26,2,fixationCross,17494995.0,17496878.0,1883.0,26,R,17494509,17494677,170,775.0,162.3,3297,NA
22,1,binary,26,2,fixationCross,17494995.0,17496878.0,1883.0,26,R,17494727,17494835,110,950.9,484.9,3584,NA
22,1,binary,26,2,trial,17494995.0,17496878.0,1883.0,26,R,17494857,17495169,314,970.8,558.0,3781,NA
22,1,binary,26,2,trial,17494995.0,17496878.0,1883.0,26,R,17495219,17495357,140,512.6,555.9,4061,left
22,1,binary,26,2,trial,17494995.0,17496878.0,1883.0,26,R,17495407,17495513,108,508.5,937.3,3849,NA
22,1,binary,26,2,trial,17494995.0,17496878.0,1883.0,26,R,17495527,17495683,158,489.3,983.0,3856,NA
22,1,binary,26,2,trial,17494995.0,17496878.0,1883.0,26,R,17495731,17495867,138,461.4,642.1,3968,left
22,1,binary,26,2,trial,17494995.0,17496878.0,1883.0,26,R,17495905,17496021,118,570.7,536.2,3991,left
22,1,binary,26,2,trial,17494995.0,17496878.0,1883.0,26,R,17496091,17496421,332,1449.4,491.5,3667,right
22,1,binary,26,2,trial,17494995.0,17496878.0,1883.0,26,R,17496433,17496577,146,1422.5,511.1,3589,right
22,1,binary,26,2,trial,17494995.0,17496878.0,1883.0,26,R,17496629,17496823,196,1454.2,942.8,3546,NA
22,1,binary,26,2,trial,17494995.0,17496878.0,1883.0,26,R,17496903,17497109,208,414.1,537.8,3726,left
22,1,binary,27,2,fixationCross,17497762.0,17500012.0,2250.0,27,R,17497287,17497651,366,992.0,509.1,3683,NA
22,1,binary,27,2,trial,17497762.0,17500012.0,2250.0,27,R,17497665,17497915,252,974.7,546.2,3865,NA
22,1,binary,27,2,trial,17497762.0,17500012.0,2250.0,27,R,17497963,17498127,166,569.3,477.7,3923,left
22,1,binary,27,2,trial,17497762.0,17500012.0,2250.0,27,R,17498149,17498275,128,523.0,544.3,3682,left
22,1,binary,27,2,trial,17497762.0,17500012.0,2250.0,27,R,17498351,17498535,186,1472.0,538.2,3357,right
22,1,binary,27,2,trial,17497762.0,17500012.0,2250.0,27,R,17498557,17498987,432,1517.3,475.1,3385,right
22,1,binary,27,2,trial,17497762.0,17500012.0,2250.0,27,R,17499063,17499233,172,582.6,447.3,3669,left
22,1,binary,27,2,trial,17497762.0,17500012.0,2250.0,27,R,17499255,17499431,178,506.3,507.9,3611,left
22,1,binary,27,2,trial,17497762.0,17500012.0,2250.0,27,R,17499509,17499847,340,1483.6,535.5,3313,right
22,1,binary,27,2,postResponse,17497762.0,17500012.0,2250.0,27,R,17499867,17500345,480,1401.1,564.1,3360,right
22,1,binary,28,1,fixationCross,17501095.0,17503078.0,1983.0,28,R,17500445,17500767,324,1392.4,565.1,3378,right
22,1,binary,28,1,trial,17501095.0,17503078.0,1983.0,28,R,17500815,17501243,430,979.0,526.3,3706,NA
22,1,binary,28,1,trial,17501095.0,17503078.0,1983.0,28,R,17501295,17501439,146,1356.3,523.1,3752,right
22,1,binary,28,1,trial,17501095.0,17503078.0,1983.0,28,R,17501457,17501575,120,1417.3,504.1,3486,right
22,1,binary,28,1,trial,17501095.0,17503078.0,1983.0,28,R,17501645,17502063,420,551.0,567.7,3607,left
22,1,binary,28,1,trial,17501095.0,17503078.0,1983.0,28,R,17502085,17502295,212,459.2,548.6,3525,left
22,1,binary,28,1,trial,17501095.0,17503078.0,1983.0,28,R,17502375,17502839,466,1460.6,505.0,3330,right
22,1,binary,28,1,trial,17501095.0,17503078.0,1983.0,28,R,17502915,17503083,170,574.2,571.7,3516,left
22,1,binary,28,1,postResponse,17501095.0,17503078.0,1983.0,28,R,17503103,17503411,310,561.4,526.1,3424,left
22,1,binary,29,1,fixationCross,17504128.0,17506644.0,2516.0,29,R,17503517,17503799,284,564.9,529.0,3403,left
22,1,binary,29,1,fixationCross,17504128.0,17506644.0,2516.0,29,R,17503855,17503995,142,1036.2,517.2,3327,NA
22,1,binary,29,1,trial,17504128.0,17506644.0,2516.0,29,R,17504011,17504305,296,987.8,506.5,3335,NA
22,1,binary,29,1,trial,17504128.0,17506644.0,2516.0,29,R,17504353,17504559,208,628.7,527.4,3361,left
22,1,binary,29,1,trial,17504128.0,17506644.0,2516.0,29,R,17504571,17504947,378,611.9,496.9,3217,left
22,1,binary,29,1,trial,17504128.0,17506644.0,2516.0,29,R,17505019,17505257,240,1451.0,466.0,3142,right
22,1,binary,29,1,trial,17504128.0,17506644.0,2516.0,29,R,17505271,17505437,168,1448.3,503.3,3235,right
22,1,binary,29,1,trial,17504128.0,17506644.0,2516.0,29,R,17505447,17506177,732,1422.9,485.1,3347,right
22,1,binary,29,1,trial,17504128.0,17506644.0,2516.0,29,R,17506245,17506365,122,664.9,498.2,3626,left
22,1,binary,29,1,postResponse,17504128.0,17506644.0,2516.0,29,R,17506383,17506981,600,610.9,515.8,3546,left
22,1,binary,30,1,fixationCross,17507728.0,17510228.0,2500.0,30,R,17507055,17507403,350,608.8,508.7,3466,left
22,1,binary,30,1,fixationCross,17507728.0,17510228.0,2500.0,30,R,17507447,17507601,156,917.7,509.3,3505,NA
22,1,binary,30,1,trial,17507728.0,17510228.0,2500.0,30,R,17507615,17507877,264,975.7,510.3,3530,NA
22,1,binary,30,1,trial,17507728.0,17510228.0,2500.0,30,R,17507927,17508059,134,545.4,586.5,3667,left
22,1,binary,30,1,trial,17507728.0,17510228.0,2500.0,30,R,17508079,17508363,286,459.8,632.7,3352,left
22,1,binary,30,1,trial,17507728.0,17510228.0,2500.0,30,R,17508443,17508653,212,1491.1,502.5,2998,right
22,1,binary,30,1,trial,17507728.0,17510228.0,2500.0,30,R,17508669,17508809,142,1566.9,485.9,2951,right
22,1,binary,30,1,trial,17507728.0,17510228.0,2500.0,30,R,17508841,17509059,220,1543.4,626.8,2955,right
22,1,binary,30,1,trial,17507728.0,17510228.0,2500.0,30,R,17509073,17509195,124,1545.5,664.6,3034,right
22,1,binary,30,1,trial,17507728.0,17510228.0,2500.0,30,R,17509233,17509463,232,1346.3,443.7,3209,right
22,1,binary,30,1,trial,17507728.0,17510228.0,2500.0,30,R,17509535,17509851,318,500.3,623.9,3470,left
22,1,binary,30,1,trial,17507728.0,17510228.0,2500.0,30,R,17509901,17510219,320,465.8,934.6,3373,NA
22,1,binary,30,1,postResponse,17507728.0,17510228.0,2500.0,30,R,17510265,17510549,286,498.6,651.8,3511,left
22,1,binary,31,2,fixationCross,17511528.0,17513228.0,1700.0,31,R,17510649,17510815,168,1485.3,694.4,3505,right
22,1,binary,31,2,fixationCross,17511528.0,17513228.0,1700.0,31,R,17510853,17511063,212,1715.3,870.2,3668,NA
22,1,binary,31,2,fixationCross,17511528.0,17513228.0,1700.0,31,R,17511117,17511237,122,1092.5,579.7,3889,NA
22,1,binary,31,2,trial,17511528.0,17513228.0,1700.0,31,R,17511259,17511717,460,982.4,533.7,3998,NA
22,1,binary,31,2,trial,17511528.0,17513228.0,1700.0,31,R,17511783,17512037,256,1370.9,489.1,3716,right
22,1,binary,31,2,trial,17511528.0,17513228.0,1700.0,31,R,17512111,17512623,514,466.5,602.0,3560,left
22,1,binary,31,2,trial,17511528.0,17513228.0,1700.0,31,R,17512699,17512927,230,1433.5,509.4,3192,right
22,1,binary,31,2,trial,17511528.0,17513228.0,1700.0,31,R,17512985,17513103,120,1456.7,881.6,3179,NA
22,1,binary,31,2,trial,17511528.0,17513228.0,1700.0,31,R,17513117,17513243,128,1470.1,932.7,3256,NA
22,1,binary,31,2,postResponse,17511528.0,17513228.0,1700.0,31,R,17513289,17513569,282,1491.1,498.0,3361,right
22,1,binary,32,1,fixationCross,17514295.0,17517161.0,2866.0,32,R,17513643,17513945,304,1481.2,495.1,3470,right
22,1,binary,32,1,fixationCross,17514295.0,17517161.0,2866.0,32,R,17513997,17514147,152,1007.9,522.2,3613,NA
22,1,binary,32,1,trial,17514295.0,17517161.0,2866.0,32,R,17514157,17514447,292,974.3,531.4,3664,NA
22,1,binary,32,1,trial,17514295.0,17517161.0,2866.0,32,R,17514499,17514717,220,525.6,500.6,3685,left
22,1,binary,32,1,trial,17514295.0,17517161.0,2866.0,32,R,17514789,17515075,288,1410.2,504.5,3216,right
22,1,binary,32,1,trial,17514295.0,17517161.0,2866.0,32,R,17515149,17515259,112,621.6,468.6,3295,left
22,1,binary,32,1,trial,17514295.0,17517161.0,2866.0,32,R,17515281,17515603,324,506.8,481.6,3333,left
22,1,binary,32,1,trial,17514295.0,17517161.0,2866.0,32,R,17515627,17516053,428,487.1,621.7,3378,left
22,1,binary,32,1,trial,17514295.0,17517161.0,2866.0,32,R,17516065,17516213,150,502.4,649.8,3323,left
22,1,binary,32,1,trial,17514295.0,17517161.0,2866.0,32,R,17516291,17516771,482,1457.2,508.9,3050,right
22,1,binary,32,1,trial,17514295.0,17517161.0,2866.0,32,R,17516797,17517049,254,1324.8,445.1,2963,right
22,1,binary,32,1,postResponse,17514295.0,17517161.0,2866.0,32,R,17517121,17517497,378,524.7,539.3,3119,left
22,1,binary,33,2,fixationCross,17518245.0,17519745.0,1500.0,33,R,17517571,17517919,350,521.3,539.9,3253,left
22,1,binary,33,2,trial,17518245.0,17519745.0,1500.0,33,R,17517969,17518257,290,907.1,533.7,3207,NA
22,1,binary,33,2,trial,17518245.0,17519745.0,1500.0,33,R,17518279,17518477,200,1019.1,551.6,3218,NA
22,1,binary,33,2,trial,17518245.0,17519745.0,1500.0,33,R,17518535,17518729,196,446.5,471.6,3307,left
22,1,binary,33,2,trial,17518245.0,17519745.0,1500.0,33,R,17518807,17518973,168,1428.4,483.7,3018,right
22,1,binary,33,2,trial,17518245.0,17519745.0,1500.0,33,R,17518991,17519217,228,1501.2,511.0,2968,right
22,1,binary,33,2,trial,17518245.0,17519745.0,1500.0,33,R,17519227,17519543,318,1525.5,538.9,3070,right
22,1,binary,33,2,postResponse,17518245.0,17519745.0,1500.0,33,R,17519623,17520081,460,456.4,475.9,3432,left
22,1,binary,34,1,fixationCross,17521012.0,17523661.0,2649.0,34,R,17520155,17520349,196,461.5,480.9,3354,left
22,1,binary,34,1,fixationCross,17521012.0,17523661.0,2649.0,34,R,17520453,17520685,234,1372.7,522.4,3322,right
22,1,binary,34,1,trial,17521012.0,17523661.0,2649.0,34,R,17520735,17521179,446,1003.6,522.4,3627,NA
22,1,binary,34,1,trial,17521012.0,17523661.0,2649.0,34,R,17521231,17521401,172,606.9,533.0,3650,left
22,1,binary,34,1,trial,17521012.0,17523661.0,2649.0,34,R,17521467,17521833,368,1424.9,507.8,3242,right
22,1,binary,34,1,trial,17521012.0,17523661.0,2649.0,34,R,17521891,17522023,134,1458.0,905.5,3397,NA
22,1,binary,34,1,trial,17521012.0,17523661.0,2649.0,34,R,17522093,17522355,264,592.9,507.4,3693,left
22,1,binary,34,1,trial,17521012.0,17523661.0,2649.0,34,R,17522375,17522629,256,501.3,504.7,3637,left
22,1,binary,34,1,trial,17521012.0,17523661.0,2649.0,34,R,17522707,17523193,488,1419.3,495.3,3301,right
22,1,binary,34,1,trial,17521012.0,17523661.0,2649.0,34,R,17523259,17523551,294,628.5,506.1,3439,left
22,1,binary,34,1,postResponse,17521012.0,17523661.0,2649.0,34,R,17523577,17523997,422,486.6,486.1,3372,left
22,1,binary,35,1,fixationCross,17524728.0,17527461.0,2733.0,35,R,17524071,17524405,336,486.2,487.6,3324,left
22,1,binary,35,1,trial,17524728.0,17527461.0,2733.0,35,R,17524459,17524875,418,922.8,528.7,3353,NA
22,1,binary,35,1,trial,17524728.0,17527461.0,2733.0,35,R,17524923,17525109,188,546.5,480.5,3619,left
22,1,binary,35,1,trial,17524728.0,17527461.0,2733.0,35,R,17525123,17525287,166,512.8,452.3,3452,left
22,1,binary,35,1,trial,17524728.0,17527461.0,2733.0,35,R,17525313,17525445,134,385.5,554.6,3340,left
22,1,binary,35,1,trial,17524728.0,17527461.0,2733.0,35,R,17525525,17525805,282,1437.1,512.7,3246,right
22,1,binary,35,1,trial,17524728.0,17527461.0,2733.0,35,R,17525831,17526033,204,1298.8,450.5,3408,right
22,1,binary,35,1,trial,17524728.0,17527461.0,2733.0,35,R,17526043,17526111,70,1267.6,449.3,3496,right
22,1,binary,35,1,trial,17524728.0,17527461.0,2733.0,35,R,17526179,17526391,214,530.6,450.3,3691,left
22,1,binary,35,1,trial,17524728.0,17527461.0,2733.0,35,R,17526417,17526613,198,386.1,550.4,3547,left
22,1,binary,35,1,trial,17524728.0,17527461.0,2733.0,35,R,17526627,17527001,376,378.6,592.8,3426,left
22,1,binary,35,1,trial,17524728.0,17527461.0,2733.0,35,R,17527047,17527395,350,479.8,913.1,3375,NA
22,1,binary,35,1,postResponse,17524728.0,17527461.0,2733.0,35,R,17527443,17527799,358,391.8,550.3,3554,left
22,1,binary,36,2,fixationCross,17528562.0,17530162.0,1600.0,36,R,17528021,17528225,206,1217.6,421.3,3222,right
22,1,binary,36,2,trial,17528562.0,17530162.0,1600.0,36,R,17528259,17528717,460,989.2,510.2,3458,NA
22,1,binary,36,2,trial,17528562.0,17530162.0,1600.0,36,R,17528769,17528949,182,549.5,528.5,3609,left
22,1,binary,36,2,trial,17528562.0,17530162.0,1600.0,36,R,17528969,17529113,146,461.5,487.7,3296,left
22,1,binary,36,2,trial,17528562.0,17530162.0,1600.0,36,R,17529187,17529337,152,1390.1,428.8,3055,right
22,1,binary,36,2,trial,17528562.0,17530162.0,1600.0,36,R,17529351,17529867,518,1419.0,450.0,3134,right
22,1,binary,36,2,trial,17528562.0,17530162.0,1600.0,36,R,17529891,17530041,152,1300.3,457.4,3235,right
22,1,binary,36,2,postResponse,17528562.0,17530162.0,1600.0,36,R,17530109,17530497,390,511.7,515.2,3479,left
22,1,binary,37,1,fixationCross,17531212.0,17533062.0,1850.0,37,R,17530571,17530737,168,506.7,520.0,3416,left
22,1,binary,37,1,fixationCross,17531212.0,17533062.0,1850.0,37,R,17530813,17530959,148,1117.8,539.3,3260,NA
22,1,binary,37,1,trial,17531212.0,17533062.0,1850.0,37,R,17530981,17531371,392,976.3,532.3,3369,NA
22,1,binary,37,1,trial,17531212.0,17533062.0,1850.0,37,R,17531423,17531613,192,515.2,553.0,3624,left
22,1,binary,37,1,trial,17531212.0,17533062.0,1850.0,37,R,17531633,17531883,252,431.8,557.4,3515,left
22,1,binary,37,1,trial,17531212.0,17533062.0,1850.0,37,R,17531959,17532547,590,1367.6,493.7,3293,right
22,1,binary,37,1,trial,17531212.0,17533062.0,1850.0,37,R,17532617,17532741,126,588.1,534.1,3441,left
22,1,binary,37,1,trial,17531212.0,17533062.0,1850.0,37,R,17532759,17532951,194,529.3,555.3,3460,left
22,1,binary,37,1,postResponse,17531212.0,17533062.0,1850.0,37,R,17532971,17533395,426,425.3,566.6,3610,left
22,1,binary,38,1,fixationCross,17534062.0,17537662.0,3600.0,38,R,17533469,17533499,32,423.9,571.4,3634,left
22,1,binary,38,1,fixationCross,17534062.0,17537662.0,3600.0,38,R,17533549,17533755,208,818.6,553.7,3556,NA
22,1,binary,38,1,trial,17534062.0,17537662.0,3600.0,38,R,17533799,17534237,440,1047.9,548.1,3424,NA
22,1,binary,38,1,trial,17534062.0,17537662.0,3600.0,38,R,17534291,17534415,126,531.1,563.0,3637,left
22,1,binary,38,1,trial,17534062.0,17537662.0,3600.0,38,R,17534437,17534649,214,460.6,611.9,3424,left
22,1,binary,38,1,trial,17534062.0,17537662.0,3600.0,38,R,17534729,17535301,574,1483.9,536.0,3119,right
22,1,binary,38,1,trial,17534062.0,17537662.0,3600.0,38,R,17535329,17535487,160,1344.8,611.8,3268,right
22,1,binary,38,1,trial,17534062.0,17537662.0,3600.0,38,R,17535561,17535885,326,427.6,553.1,3501,left
22,1,binary,38,1,trial,17534062.0,17537662.0,3600.0,38,R,17535897,17536139,244,419.4,520.2,3330,left
22,1,binary,38,1,trial,17534062.0,17537662.0,3600.0,38,R,17536217,17536469,254,1419.2,499.6,2956,right
22,1,binary,38,1,trial,17534062.0,17537662.0,3600.0,38,R,17536495,17536751,258,1337.2,629.6,3139,right
22,1,binary,38,1,trial,17534062.0,17537662.0,3600.0,38,R,17536777,17537061,286,1468.1,522.5,3387,right
22,1,binary,38,1,trial,17534062.0,17537662.0,3600.0,38,R,17537085,17537291,208,1411.6,432.4,3291,right
22,1,binary,38,1,trial,17534062.0,17537662.0,3600.0,38,R,17537383,17537609,228,501.0,924.6,3484,NA
22,1,binary,38,1,postResponse,17534062.0,17537662.0,3600.0,38,R,17537685,17537997,314,1440.3,526.4,3430,right
22,1,binary,39,1,fixationCross,17538695.0,17540478.0,1783.0,39,R,17538071,17538379,310,1430.7,536.3,3554,right
22,1,binary,39,1,trial,17538695.0,17540478.0,1783.0,39,R,17538427,17538833,408,974.4,535.9,3760,NA
22,1,binary,39,1,trial,17538695.0,17540478.0,1783.0,39,R,17538881,17539089,210,559.2,491.5,3875,left
22,1,binary,39,1,trial,17538695.0,17540478.0,1783.0,39,R,17539111,17539363,254,435.1,538.5,3412,left
22,1,binary,39,1,trial,17538695.0,17540478.0,1783.0,39,R,17539443,17539691,250,1488.8,533.1,3011,right
22,1,binary,39,1,trial,17538695.0,17540478.0,1783.0,39,R,17539715,17539971,258,1394.0,597.6,3126,right
22,1,binary,39,1,trial,17538695.0,17540478.0,1783.0,39,R,17540047,17540465,420,491.7,549.7,3445,left
22,1,binary,39,1,trial,17538695.0,17540478.0,1783.0,39,R,17540479,17540701,224,442.7,575.7,3761,left
22,1,binary,40,2,fixationCross,17541579.0,17543712.0,2133.0,40,R,17540889,17541261,374,1150.9,484.1,3690,NA
22,1,binary,40,2,trial,17541579.0,17543712.0,2133.0,40,R,17541287,17541731,446,974.9,528.5,3835,NA
22,1,binary,40,2,trial,17541579.0,17543712.0,2133.0,40,R,17541779,17541923,146,592.3,541.9,3788,left
22,1,binary,40,2,trial,17541579.0,17543712.0,2133.0,40,R,17541963,17542167,206,372.8,561.5,3520,left
22,1,binary,40,2,trial,17541579.0,17543712.0,2133.0,40,R,17542207,17542351,146,577.6,435.9,3410,left
22,1,binary,40,2,trial,17541579.0,17543712.0,2133.0,40,R,17542363,17542473,112,607.8,428.8,3327,left
22,1,binary,40,2,trial,17541579.0,17543712.0,2133.0,40,R,17542545,17543471,928,1444.8,542.3,3272,right
22,1,binary,40,2,trial,17541579.0,17543712.0,2133.0,40,R,17543545,17543731,188,585.6,424.1,3494,left
22,1,binary,40,2,postResponse,17541579.0,17543712.0,2133.0,40,R,17543763,17544049,288,387.0,547.4,3409,left
22,1,binary,41,1,fixationCross,17544912.0,17546829.0,1917.0,41,R,17544161,17544361,202,1101.7,523.2,3307,NA
22,1,binary,41,1,fixationCross,17544912.0,17546829.0,1917.0,41,R,17544387,17544439,54,1242.7,626.4,3327,right
22,1,binary,41,1,fixationCross,17544912.0,17546829.0,1917.0,41,R,17544455,17544607,154,1279.4,669.5,3362,right
22,1,binary,41,1,trial,17544912.0,17546829.0,1917.0,41,R,17544649,17545063,416,986.3,527.2,3542,NA
22,1,binary,41,1,trial,17544912.0,17546829.0,1917.0,41,R,17545117,17545431,316,521.2,496.2,3540,left
22,1,binary,41,1,trial,17544912.0,17546829.0,1917.0,41,R,17545507,17545793,288,1456.3,482.7,3182,right
22,1,binary,41,1,trial,17544912.0,17546829.0,1917.0,41,R,17545813,17546011,200,1354.6,525.2,3350,right
22,1,binary,41,1,trial,17544912.0,17546829.0,1917.0,41,R,17546031,17546243,214,1262.8,590.0,3506,right
22,1,binary,41,1,trial,17544912.0,17546829.0,1917.0,41,R,17546309,17546495,188,509.6,560.8,3675,left
22,1,binary,41,1,trial,17544912.0,17546829.0,1917.0,41,R,17546517,17546853,338,395.6,558.8,3498,left
22,1,binary,41,1,postResponse,17544912.0,17546829.0,1917.0,41,R,17546879,17547163,286,541.7,503.7,3374,left
22,1,binary,42,1,fixationCross,17547762.0,17550246.0,2484.0,42,R,17547237,17547361,126,540.8,501.4,3386,left
22,1,binary,42,1,trial,17547762.0,17550246.0,2484.0,42,R,17547415,17547937,524,1012.5,509.6,3365,NA
22,1,binary,42,1,trial,17547762.0,17550246.0,2484.0,42,R,17547991,17548111,122,1304.1,486.5,3305,right
22,1,binary,42,1,trial,17547762.0,17550246.0,2484.0,42,R,17548177,17548295,120,547.2,567.8,3216,left
22,1,binary,42,1,trial,17547762.0,17550246.0,2484.0,42,R,17548317,17548499,184,462.0,616.7,3173,left
22,1,binary,42,1,trial,17547762.0,17550246.0,2484.0,42,R,17548515,17548727,214,510.1,638.3,3172,left
22,1,binary,42,1,trial,17547762.0,17550246.0,2484.0,42,R,17548805,17548983,180,1463.1,480.3,3028,right
22,1,binary,42,1,trial,17547762.0,17550246.0,2484.0,42,R,17549001,17549233,234,1402.7,471.1,3040,right
22,1,binary,42,1,trial,17547762.0,17550246.0,2484.0,42,R,17549315,17549415,102,490.3,670.6,3333,left
22,1,binary,42,1,trial,17547762.0,17550246.0,2484.0,42,R,17549453,17549693,242,464.1,885.9,3355,NA
22,1,binary,42,1,trial,17547762.0,17550246.0,2484.0,42,R,17549735,17549959,226,441.3,591.6,3373,left
22,1,binary,42,1,trial,17547762.0,17550246.0,2484.0,42,R,17550021,17550121,102,1002.3,558.9,3244,NA
22,1,binary,42,1,trial,17547762.0,17550246.0,2484.0,42,R,17550171,17550287,118,1445.5,464.0,3121,right
22,1,binary,42,1,postResponse,17547762.0,17550246.0,2484.0,42,R,17550309,17550579,272,1568.1,521.9,3092,right
22,1,binary,43,2,fixationCross,17552662.0,17554529.0,1867.0,43,R,17550653,17550859,208,1547.4,531.5,3275,right
22,1,binary,43,2,fixationCross,17552662.0,17554529.0,1867.0,43,R,17550955,17551645,692,741.1,538.3,3541,NA
22,1,binary,43,2,fixationCross,17552662.0,17554529.0,1867.0,43,R,17551661,17551831,172,994.5,603.9,3393,NA
22,1,binary,43,2,fixationCross,17552662.0,17554529.0,1867.0,43,R,17551857,17552121,266,1230.4,626.8,3315,right
22,1,binary,43,2,fixationCross,17552662.0,17554529.0,1867.0,43,R,17552173,17552435,264,1400.9,321.6,3339,NA
22,1,binary,43,2,fixationCross,17552662.0,17554529.0,1867.0,43,R,17552491,17552625,136,1005.1,517.1,3405,NA
22,1,binary,43,2,trial,17552662.0,17554529.0,1867.0,43,R,17552639,17552675,38,988.5,570.9,3401,NA
22,1,binary,43,2,trial,17552662.0,17554529.0,1867.0,43,R,17552689,17552839,152,972.1,673.5,3390,NA
22,1,binary,43,2,trial,17552662.0,17554529.0,1867.0,43,R,17552893,17553201,310,512.9,533.6,3427,left
22,1,binary,43,2,trial,17552662.0,17554529.0,1867.0,43,R,17553275,17553773,500,1466.6,494.4,3074,right
22,1,binary,43,2,trial,17552662.0,17554529.0,1867.0,43,R,17553799,17554347,550,1416.2,392.1,3002,right
22,1,binary,43,2,postResponse,17552662.0,17554529.0,1867.0,43,R,17554423,17554863,442,544.6,481.8,3415,left
22,1,binary,44,1,fixationCross,17555646.0,17557512.0,1866.0,44,R,17554937,17555161,226,543.0,486.8,3335,left
22,1,binary,44,1,fixationCross,17555646.0,17557512.0,1866.0,44,R,17555247,17555367,122,1277.3,450.2,3134,right
22,1,binary,44,1,trial,17555646.0,17557512.0,1866.0,44,R,17555401,17555785,386,1013.7,515.6,3245,NA
22,1,binary,44,1,trial,17555646.0,17557512.0,1866.0,44,R,17555839,17556075,238,538.1,510.6,3279,left
22,1,binary,44,1,trial,17555646.0,17557512.0,1866.0,44,R,17556085,17556271,188,562.7,494.8,3013,left
22,1,binary,44,1,trial,17555646.0,17557512.0,1866.0,44,R,17556343,17556577,236,1429.4,467.1,2820,right
22,1,binary,44,1,trial,17555646.0,17557512.0,1866.0,44,R,17556597,17556765,170,1482.2,427.5,2809,right
22,1,binary,44,1,trial,17555646.0,17557512.0,1866.0,44,R,17556843,17557059,218,545.0,525.4,3048,left
22,1,binary,44,1,trial,17555646.0,17557512.0,1866.0,44,R,17557081,17557237,158,479.8,597.4,3135,left
22,1,binary,44,1,trial,17555646.0,17557512.0,1866.0,44,R,17557285,17557459,176,518.0,919.2,3275,NA
22,1,binary,44,1,postResponse,17555646.0,17557512.0,1866.0,44,R,17557505,17557843,340,426.0,614.8,3436,left
22,1,binary,45,2,fixationCross,17558429.0,17559962.0,1533.0,45,R,17557943,17557975,34,429.6,609.6,3412,left
22,1,binary,45,2,fixationCross,17558429.0,17559962.0,1533.0,45,R,17558077,17558373,298,1052.8,515.1,3312,NA
22,1,binary,45,2,trial,17558429.0,17559962.0,1533.0,45,R,17558387,17558627,242,1002.1,533.1,3433,NA
22,1,binary,45,2,trial,17558429.0,17559962.0,1533.0,45,R,17558677,17558965,290,537.0,557.3,3383,left
22,1,binary,45,2,trial,17558429.0,17559962.0,1533.0,45,R,17559037,17559245,210,1440.2,488.2,2972,right
22,1,binary,45,2,trial,17558429.0,17559962.0,1533.0,45,R,17559267,17559797,532,1446.9,599.3,3036,right
22,1,binary,45,2,postResponse,17558429.0,17559962.0,1533.0,45,R,17559871,17560297,428,511.2,558.5,3260,left
22,1,binary,46,2,fixationCross,17561212.0,17563812.0,2600.0,46,R,17560371,17560485,116,502.2,563.4,3289,left
22,1,binary,46,2,fixationCross,17561212.0,17563812.0,2600.0,46,R,17560585,17560885,302,1321.3,563.2,3216,right
22,1,binary,46,2,trial,17561212.0,17563812.0,2600.0,46,R,17560925,17561367,444,1004.4,516.4,3403,NA
22,1,binary,46,2,trial,17561212.0,17563812.0,2600.0,46,R,17561421,17561605,186,523.0,536.0,3489,left
22,1,binary,46,2,trial,17561212.0,17563812.0,2600.0,46,R,17561629,17561863,236,421.2,466.5,3290,left
22,1,binary,46,2,trial,17561212.0,17563812.0,2600.0,46,R,17561965,17562109,146,1464.2,427.0,3002,right
22,1,binary,46,2,trial,17561212.0,17563812.0,2600.0,46,R,17562125,17562545,422,1518.9,397.5,2972,right
22,1,binary,46,2,trial,17561212.0,17563812.0,2600.0,46,R,17562631,17562801,172,424.1,470.6,3307,left
22,1,binary,46,2,trial,17561212.0,17563812.0,2600.0,46,R,17562825,17563037,214,435.6,391.4,3268,left
22,1,binary,46,2,trial,17561212.0,17563812.0,2600.0,46,R,17563049,17563387,340,428.7,367.7,3235,left
22,1,binary,46,2,trial,17561212.0,17563812.0,2600.0,46,R,17563475,17563625,152,1437.8,452.8,3110,right
22,1,binary,46,2,trial,17561212.0,17563812.0,2600.0,46,R,17563673,17563805,134,1460.1,871.0,3116,NA
22,1,binary,46,2,postResponse,17561212.0,17563812.0,2600.0,46,R,17563849,17564145,298,1498.5,482.7,3213,right
22,1,binary,47,1,fixationCross,17564812.0,17566762.0,1950.0,47,R,17564219,17564449,232,1487.0,480.0,3296,right
22,1,binary,47,1,fixationCross,17564812.0,17566762.0,1950.0,47,R,17564537,17564789,254,886.4,514.1,3434,NA
22,1,binary,47,1,trial,17564812.0,17566762.0,1950.0,47,R,17564807,17565033,228,719.4,494.2,3485,left
22,1,binary,47,1,trial,17564812.0,17566762.0,1950.0,47,R,17565105,17565253,150,1343.0,423.7,3169,right
22,1,binary,47,1,trial,17564812.0,17566762.0,1950.0,47,R,17565263,17565519,258,1378.7,424.2,3040,right
22,1,binary,47,1,trial,17564812.0,17566762.0,1950.0,47,R,17565591,17565709,120,565.2,430.8,3261,left
22,1,binary,47,1,trial,17564812.0,17566762.0,1950.0,47,R,17565737,17566131,396,402.1,425.4,3283,left
22,1,binary,47,1,trial,17564812.0,17566762.0,1950.0,47,R,17566185,17566277,94,524.2,715.3,3286,left
22,1,binary,47,1,trial,17564812.0,17566762.0,1950.0,47,R,17566347,17566463,118,1340.8,457.5,3173,right
22,1,binary,47,1,trial,17564812.0,17566762.0,1950.0,47,R,17566479,17566677,200,1375.2,430.1,3199,right
22,1,binary,47,1,postResponse,17564812.0,17566762.0,1950.0,47,R,17566741,17567095,356,668.3,398.9,3446,left
22,1,binary,48,2,fixationCross,17567846.0,17569263.0,1417.0,48,R,17567169,17567533,366,660.8,404.1,3348,left
22,1,binary,48,2,fixationCross,17567846.0,17569263.0,1417.0,48,R,17567573,17567733,162,932.4,528.9,3133,NA
22,1,binary,48,2,trial,17567846.0,17569263.0,1417.0,48,R,17567751,17567995,246,1006.6,581.6,3002,NA
22,1,binary,48,2,trial,17567846.0,17569263.0,1417.0,48,R,17568031,17568317,288,1340.0,589.7,3014,right
22,1,binary,48,2,trial,17567846.0,17569263.0,1417.0,48,R,17568331,17568521,192,1378.6,586.5,3105,right
22,1,binary,48,2,trial,17567846.0,17569263.0,1417.0,48,R,17568593,17568881,290,526.9,541.3,3325,left
22,1,binary,48,2,trial,17567846.0,17569263.0,1417.0,48,R,17568963,17569075,114,1309.7,834.4,3024,NA
22,1,binary,48,2,trial,17567846.0,17569263.0,1417.0,48,R,17569101,17569273,174,1443.6,940.9,3157,NA
22,1,binary,48,2,postResponse,17567846.0,17569263.0,1417.0,48,R,17569321,17569597,278,1296.6,588.7,3480,right
22,1,binary,49,2,fixationCross,17570379.0,17573579.0,3200.0,49,R,17569695,17569899,206,1550.6,543.0,3470,right
22,1,binary,49,2,fixationCross,17570379.0,17573579.0,3200.0,49,R,17569931,17570037,108,1731.6,527.8,3395,NA
22,1,binary,49,2,trial,17570379.0,17573579.0,3200.0,49,R,17570103,17570539,438,975.1,511.9,3757,NA
22,1,binary,49,2,trial,17570379.0,17573579.0,3200.0,49,R,17570591,17570743,154,507.5,492.4,3883,left
22,1,binary,49,2,trial,17570379.0,17573579.0,3200.0,49,R,17570763,17570991,230,494.8,435.0,3457,left
22,1,binary,49,2,trial,17570379.0,17573579.0,3200.0,49,R,17571063,17571291,230,1338.9,497.1,3187,right
22,1,binary,49,2,trial,17570379.0,17573579.0,3200.0,49,R,17571305,17571685,382,1360.4,524.7,3351,right
22,1,binary,49,2,trial,17570379.0,17573579.0,3200.0,49,R,17571759,17572225,468,499.4,470.8,3613,left
22,1,binary,49,2,trial,17570379.0,17573579.0,3200.0,49,R,17572245,17572633,390,465.5,439.7,3522,left
22,1,binary,49,2,trial,17570379.0,17573579.0,3200.0,49,R,17572723,17572885,164,1402.4,864.4,3277,NA
22,1,binary,49,2,trial,17570379.0,17573579.0,3200.0,49,R,17572933,17573131,200,986.1,895.8,3512,likertHorizontal
22,1,binary,49,2,trial,17570379.0,17573579.0,3200.0,49,R,17573181,17573453,274,1421.5,885.5,3611,NA
22,1,binary,49,2,trial,17570379.0,17573579.0,3200.0,49,R,17573531,17573635,106,569.1,424.3,3788,left
22,1,binary,49,2,trial,17570379.0,17573579.0,3200.0,49,R,17573653,17573795,144,474.7,418.0,3787,left
22,1,binary,50,2,fixationCross,17574662.0,17576462.0,1800.0,50,R,17574015,17574347,334,1185.4,397.6,3458,right
22,1,binary,50,2,trial,17574662.0,17576462.0,1800.0,50,R,17574379,17574815,438,985.6,518.4,3667,NA
22,1,binary,50,2,trial,17574662.0,17576462.0,1800.0,50,R,17574861,17575065,206,1334.5,463.9,3479,right
22,1,binary,50,2,trial,17574662.0,17576462.0,1800.0,50,R,17575131,17575479,350,565.2,473.4,3333,left
22,1,binary,50,2,trial,17574662.0,17576462.0,1800.0,50,R,17575491,17575885,396,518.6,480.3,3267,left
22,1,binary,50,2,trial,17574662.0,17576462.0,1800.0,50,R,17575961,17576103,144,1407.9,470.5,2999,right
22,1,binary,50,2,trial,17574662.0,17576462.0,1800.0,50,R,17576161,17576339,180,1440.3,851.8,2916,NA
22,1,binary,50,2,trial,17574662.0,17576462.0,1800.0,50,R,17576357,17576453,98,1470.1,909.2,2993,NA
22,1,binary,50,2,postResponse,17574662.0,17576462.0,1800.0,50,R,17576497,17576797,302,1449.8,496.1,3232,right
22,2,continuous,1,1,fixationCross,17682280.0,17689113.0,6833.0,51,R,17681490,17681688,200,1096.3,823.3,3565,likertHorizontal
22,2,continuous,1,1,fixationCross,17682280.0,17689113.0,6833.0,51,R,17681712,17681962,252,918.9,834.9,3704,likertHorizontal
22,2,continuous,1,1,trial,17682280.0,17689113.0,6833.0,51,R,17682004,17682360,358,966.4,512.7,3977,NA
22,2,continuous,1,1,trial,17682280.0,17689113.0,6833.0,51,R,17682374,17682448,76,978.2,542.2,3976,NA
22,2,continuous,1,1,trial,17682280.0,17689113.0,6833.0,51,R,17682496,17682710,216,572.7,568.2,3938,left
22,2,continuous,1,1,trial,17682280.0,17689113.0,6833.0,51,R,17682730,17683030,302,531.0,509.0,3515,left
22,2,continuous,1,1,trial,17682280.0,17689113.0,6833.0,51,R,17683106,17683316,212,1342.4,513.3,3253,right
22,2,continuous,1,1,trial,17682280.0,17689113.0,6833.0,51,R,17683338,17683502,166,1475.7,526.2,3275,right
22,2,continuous,1,1,trial,17682280.0,17689113.0,6833.0,51,R,17683522,17683834,314,1524.4,491.2,3170,right
22,2,continuous,1,1,trial,17682280.0,17689113.0,6833.0,51,R,17683912,17684106,196,576.3,535.1,3229,left
22,2,continuous,1,1,trial,17682280.0,17689113.0,6833.0,51,R,17684150,17684256,108,607.3,883.1,3120,NA
22,2,continuous,1,1,trial,17682280.0,17689113.0,6833.0,51,R,17684280,17684552,274,525.9,970.6,3095,NA
22,2,continuous,1,1,trial,17682280.0,17689113.0,6833.0,51,R,17684606,17684752,148,976.7,925.7,3127,likertHorizontal
22,2,continuous,1,1,trial,17682280.0,17689113.0,6833.0,51,R,17684810,17685182,374,1460.4,509.7,3149,right
22,2,continuous,1,1,trial,17682280.0,17689113.0,6833.0,51,R,17685218,17685474,258,1311.3,412.5,3244,right
22,2,continuous,1,1,trial,17682280.0,17689113.0,6833.0,51,R,17685550,17685728,180,499.1,558.9,3487,left
22,2,continuous,1,1,trial,17682280.0,17689113.0,6833.0,51,R,17685742,17685942,202,553.1,556.2,3342,left
22,2,continuous,1,1,trial,17682280.0,17689113.0,6833.0,51,R,17685996,17686048,54,686.2,919.4,3327,NA
22,2,continuous,1,1,trial,17682280.0,17689113.0,6833.0,51,R,17686074,17686372,300,533.7,1009.6,3627,NA
22,2,continuous,1,1,trial,17682280.0,17689113.0,6833.0,51,R,17686424,17686700,278,550.4,602.6,3762,left
22,2,continuous,1,1,trial,17682280.0,17689113.0,6833.0,51,R,17686762,17686866,106,920.8,895.7,3650,likertHorizontal
22,2,continuous,1,1,trial,17682280.0,17689113.0,6833.0,51,R,17686888,17687016,130,899.3,960.1,3722,likertHorizontal
22,2,continuous,1,1,trial,17682280.0,17689113.0,6833.0,51,R,17687064,17687290,228,571.3,572.5,4001,left
22,2,continuous,1,1,trial,17682280.0,17689113.0,6833.0,51,R,17687312,17687544,234,496.4,506.4,3805,left
22,2,continuous,1,1,trial,17682280.0,17689113.0,6833.0,51,R,17687556,17687704,150,526.9,486.9,3677,left
22,2,continuous,1,1,trial,17682280.0,17689113.0,6833.0,51,R,17687784,17688324,542,1503.7,439.5,3350,right
22,2,continuous,1,1,trial,17682280.0,17689113.0,6833.0,51,R,17688410,17688576,168,767.3,909.2,3382,likertHorizontal
22,2,continuous,1,1,trial,17682280.0,17689113.0,6833.0,51,R,17688612,17688882,272,542.5,959.3,3460,NA
22,2,continuous,1,1,trial,17682280.0,17689113.0,6833.0,51,R,17688894,17689172,280,493.4,960.3,3748,NA
22,2,continuous,1,1,postResponse,17682280.0,17689113.0,6833.0,51,R,17689214,17689452,240,560.1,725.6,3927,left
22,2,continuous,2,1,fixationCross,17690013.0,17692230.0,2217.0,52,R,17689552,17689578,28,558.7,723.6,3943,left
22,2,continuous,2,1,fixationCross,17690013.0,17692230.0,2217.0,52,R,17689640,17689970,332,1000.2,535.4,3890,NA
22,2,continuous,2,1,trial,17690013.0,17692230.0,2217.0,52,R,17689980,17690172,194,972.5,538.9,3961,NA
22,2,continuous,2,1,trial,17690013.0,17692230.0,2217.0,52,R,17690218,17690446,230,626.4,535.7,3791,left
22,2,continuous,2,1,trial,17690013.0,17692230.0,2217.0,52,R,17690464,17690716,254,620.1,488.9,3278,left
22,2,continuous,2,1,trial,17690013.0,17692230.0,2217.0,52,R,17690786,17690984,200,1400.2,479.8,2953,right
22,2,continuous,2,1,trial,17690013.0,17692230.0,2217.0,52,R,17691002,17691356,356,1436.9,527.1,3033,right
22,2,continuous,2,1,trial,17690013.0,17692230.0,2217.0,52,R,17691382,17691492,112,1388.4,407.4,3204,right
22,2,continuous,2,1,trial,17690013.0,17692230.0,2217.0,52,R,17691560,17691822,264,657.4,534.6,3342,left
22,2,continuous,2,1,postResponse,17690013.0,17692230.0,2217.0,52,R,17691878,17692566,690,507.6,969.3,3331,NA
22,2,continuous,3,98,fixationCross,17693280.0,17695164.0,1884.0,53,R,17692640,17692704,66,498.7,957.7,3548,NA
22,2,continuous,3,98,fixationCross,17693280.0,17695164.0,1884.0,53,R,17692726,17692956,232,607.9,906.6,3644,NA
22,2,continuous,3,98,fixationCross,17693280.0,17695164.0,1884.0,53,R,17693002,17693124,124,930.6,589.7,3651,NA
22,2,continuous,3,98,trial,17693280.0,17695164.0,1884.0,53,R,17693144,17693420,278,968.7,538.1,3608,NA
22,2,continuous,3,98,trial,17693280.0,17695164.0,1884.0,53,R,17693470,17693678,210,565.3,499.5,3653,left
22,2,continuous,3,98,trial,17693280.0,17695164.0,1884.0,53,R,17693694,17693782,90,524.3,541.7,3397,left
22,2,continuous,3,98,trial,17693280.0,17695164.0,1884.0,53,R,17693858,17694080,224,1491.6,515.5,3063,right
22,2,continuous,3,98,trial,17693280.0,17695164.0,1884.0,53,R,17694142,17694264,124,1034.2,892.4,3190,likertHorizontal
22,2,continuous,3,98,trial,17693280.0,17695164.0,1884.0,53,R,17694280,17694438,160,1012.0,928.9,3347,likertHorizontal
22,2,continuous,3,98,trial,17693280.0,17695164.0,1884.0,53,R,17694494,17694694,202,530.9,577.6,3654,left
22,2,continuous,3,98,trial,17693280.0,17695164.0,1884.0,53,R,17694774,17694930,158,1520.5,713.9,3306,right
22,2,continuous,3,98,trial,17693280.0,17695164.0,1884.0,53,R,17694960,17695138,180,1486.8,951.4,3304,NA
22,2,continuous,3,98,postResponse,17693280.0,17695164.0,1884.0,53,R,17695182,17695500,320,1524.9,565.4,3489,right
22,2,continuous,4,100,fixationCross,17696231.0,17698930.0,2699.0,54,R,17695576,17695894,320,1519.1,558.9,3530,right
22,2,continuous,4,100,fixationCross,17696231.0,17698930.0,2699.0,54,R,17695944,17696084,142,1024.3,541.0,3759,NA
22,2,continuous,4,100,trial,17696231.0,17698930.0,2699.0,54,R,17696098,17696382,286,966.8,526.3,3804,NA
22,2,continuous,4,100,trial,17696231.0,17698930.0,2699.0,54,R,17696434,17696652,220,561.9,523.2,3758,left
22,2,continuous,4,100,trial,17696231.0,17698930.0,2699.0,54,R,17696674,17696838,166,439.9,490.1,3438,left
22,2,continuous,4,100,trial,17696231.0,17698930.0,2699.0,54,R,17696916,17697264,350,1420.7,560.7,3132,right
22,2,continuous,4,100,trial,17696231.0,17698930.0,2699.0,54,R,17697280,17697878,600,1470.1,571.8,3099,right
22,2,continuous,4,100,trial,17696231.0,17698930.0,2699.0,54,R,17697956,17698178,224,513.9,555.7,3468,left
22,2,continuous,4,100,trial,17696231.0,17698930.0,2699.0,54,R,17698200,17698406,208,459.7,495.7,3424,left
22,2,continuous,4,100,trial,17696231.0,17698930.0,2699.0,54,R,17698430,17698604,176,589.9,521.7,3423,left
22,2,continuous,4,100,trial,17696231.0,17698930.0,2699.0,54,R,17698682,17698808,128,1424.4,932.8,3216,NA
22,2,continuous,4,100,postResponse,17696231.0,17698930.0,2699.0,54,R,17698854,17699264,412,1500.0,561.4,3176,right
22,2,continuous,5,100,fixationCross,17700014.0,17701997.0,1983.0,55,R,17699364,17699676,314,1486.2,556.9,3161,right
22,2,continuous,5,100,fixationCross,17700014.0,17701997.0,1983.0,55,R,17699726,17699854,130,1040.8,549.1,3350,NA
22,2,continuous,5,100,trial,17700014.0,17701997.0,1983.0,55,R,17699870,17700182,314,978.1,528.3,3595,NA
22,2,continuous,5,100,trial,17700014.0,17701997.0,1983.0,55,R,17700238,17700460,224,547.2,532.4,3646,left
22,2,continuous,5,100,trial,17700014.0,17701997.0,1983.0,55,R,17700470,17700672,204,501.9,519.8,3340,left
22,2,continuous,5,100,trial,17700014.0,17701997.0,1983.0,55,R,17700752,17700888,138,1463.3,448.2,2942,right
22,2,continuous,5,100,trial,17700014.0,17701997.0,1983.0,55,R,17700910,17701256,348,1554.1,445.8,2931,right
22,2,continuous,5,100,trial,17700014.0,17701997.0,1983.0,55,R,17701296,17701604,310,1264.2,548.6,3247,right
22,2,continuous,5,100,trial,17700014.0,17701997.0,1983.0,55,R,17701664,17701860,198,1446.5,930.6,3343,NA
22,2,continuous,5,100,trial,17700014.0,17701997.0,1983.0,55,R,17701876,17702228,354,1473.0,972.0,3487,NA
22,2,continuous,5,100,postResponse,17700014.0,17701997.0,1983.0,55,R,17702252,17702334,84,1377.0,890.2,3507,NA
22,2,continuous,6,1,fixationCross,17703147.0,17704997.0,1850.0,56,R,17702434,17702646,214,1362.6,884.0,3592,NA
22,2,continuous,6,1,fixationCross,17703147.0,17704997.0,1850.0,56,R,17702696,17702854,160,1046.5,631.6,3837,NA
22,2,continuous,6,1,trial,17703147.0,17704997.0,1850.0,56,R,17702878,17703296,420,963.8,531.6,3796,NA
22,2,continuous,6,1,trial,17703147.0,17704997.0,1850.0,56,R,17703348,17703512,166,530.9,493.8,3737,left
22,2,continuous,6,1,trial,17703147.0,17704997.0,1850.0,56,R,17703534,17703808,276,462.6,427.0,3349,left
22,2,continuous,6,1,trial,17703147.0,17704997.0,1850.0,56,R,17703888,17704088,202,1437.5,486.8,3041,right
22,2,continuous,6,1,trial,17703147.0,17704997.0,1850.0,56,R,17704110,17704532,424,1441.2,570.1,3039,right
22,2,continuous,6,1,postResponse,17703147.0,17704997.0,1850.0,56,R,17704616,17705338,724,469.3,451.0,3182,left
22,2,continuous,7,100,fixationCross,17706114.0,17709047.0,2933.0,57,R,17705438,17705566,130,464.5,452.7,3113,left
22,2,continuous,7,100,fixationCross,17706114.0,17709047.0,2933.0,57,R,17705616,17705792,178,733.2,665.3,3178,left
22,2,continuous,7,100,trial,17706114.0,17709047.0,2933.0,57,R,17705830,17706292,464,998.4,539.3,3220,NA
22,2,continuous,7,100,trial,17706114.0,17709047.0,2933.0,57,R,17706344,17706594,252,533.5,532.2,3339,left
22,2,continuous,7,100,trial,17706114.0,17709047.0,2933.0,57,R,17706672,17706880,210,1424.4,473.5,2938,right
22,2,continuous,7,100,trial,17706114.0,17709047.0,2933.0,57,R,17706894,17707064,172,1467.0,469.8,2942,right
22,2,continuous,7,100,trial,17706114.0,17709047.0,2933.0,57,R,17707086,17707596,512,1442.4,376.3,3046,right
22,2,continuous,7,100,trial,17706114.0,17709047.0,2933.0,57,R,17707674,17707892,220,591.8,498.0,3288,left
22,2,continuous,7,100,trial,17706114.0,17709047.0,2933.0,57,R,17707918,17708170,254,451.5,529.0,3233,left
22,2,continuous,7,100,trial,17706114.0,17709047.0,2933.0,57,R,17708190,17708488,300,533.9,520.9,3136,left
22,2,continuous,7,100,trial,17706114.0,17709047.0,2933.0,57,R,17708574,17708704,132,1370.7,925.0,2926,NA
22,2,continuous,7,100,trial,17706114.0,17709047.0,2933.0,57,R,17708722,17708902,182,1445.7,959.3,2914,NA
22,2,continuous,7,100,postResponse,17706114.0,17709047.0,2933.0,57,R,17708954,17709382,430,1468.0,525.1,3095,right
22,2,continuous,8,100,fixationCross,17710114.0,17713880.0,3766.0,58,R,17709456,17709546,92,1458.2,528.2,3135,right
22,2,continuous,8,100,fixationCross,17710114.0,17713880.0,3766.0,58,R,17709674,17709812,140,1334.6,497.3,3110,right
22,2,continuous,8,100,fixationCross,17710114.0,17713880.0,3766.0,58,R,17709852,17709966,116,1021.6,523.8,3265,NA
22,2,continuous,8,100,trial,17710114.0,17713880.0,3766.0,58,R,17709980,17710280,302,977.7,540.7,3478,NA
22,2,continuous,8,100,trial,17710114.0,17713880.0,3766.0,58,R,17710334,17710604,272,513.3,537.6,3535,left
22,2,continuous,8,100,trial,17710114.0,17713880.0,3766.0,58,R,17710614,17710924,312,480.1,560.5,3250,left
22,2,continuous,8,100,trial,17710114.0,17713880.0,3766.0,58,R,17710948,17711122,176,466.6,475.7,3294,left
22,2,continuous,8,100,trial,17710114.0,17713880.0,3766.0,58,R,17711204,17711416,214,1443.4,656.7,3208,right
22,2,continuous,8,100,trial,17710114.0,17713880.0,3766.0,58,R,17711430,17711880,452,1492.2,670.4,3159,right
22,2,continuous,8,100,trial,17710114.0,17713880.0,3766.0,58,R,17711912,17712046,136,1262.7,634.8,3099,right
22,2,continuous,8,100,trial,17710114.0,17713880.0,3766.0,58,R,17712114,17712366,254,491.9,579.4,3235,left
22,2,continuous,8,100,trial,17710114.0,17713880.0,3766.0,58,R,17712398,17712616,220,478.0,433.2,3124,left
22,2,continuous,8,100,trial,17710114.0,17713880.0,3766.0,58,R,17712696,17712974,280,1415.9,586.7,2932,right
22,2,continuous,8,100,trial,17710114.0,17713880.0,3766.0,58,R,17712994,17713134,142,1473.8,637.1,2952,right
22,2,continuous,8,100,trial,17710114.0,17713880.0,3766.0,58,R,17713148,17713436,290,1502.6,661.8,2970,right
22,2,continuous,8,100,trial,17710114.0,17713880.0,3766.0,58,R,17713462,17713828,368,1347.3,556.7,2976,right
22,2,continuous,8,100,postResponse,17710114.0,17713880.0,3766.0,58,R,17713854,17714214,362,1520.1,523.0,2881,right
22,2,continuous,9,1,fixationCross,17714914.0,17716164.0,1250.0,59,R,17714288,17714586,300,1504.1,526.4,2970,right
22,2,continuous,9,1,fixationCross,17714914.0,17716164.0,1250.0,59,R,17714640,17714780,142,1027.4,547.4,3209,NA
22,2,continuous,9,1,trial,17714914.0,17716164.0,1250.0,59,R,17714794,17715054,262,975.5,538.7,3303,NA
22,2,continuous,9,1,trial,17714914.0,17716164.0,1250.0,59,R,17715106,17715278,174,555.6,525.5,3346,left
22,2,continuous,9,1,trial,17714914.0,17716164.0,1250.0,59,R,17715298,17715460,164,482.2,490.5,3043,left
22,2,continuous,9,1,trial,17714914.0,17716164.0,1250.0,59,R,17715528,17715902,376,1331.5,515.0,2899,right
22,2,continuous,9,1,postResponse,17714914.0,17716164.0,1250.0,59,R,17715974,17716498,526,514.3,497.0,3180,left
22,2,continuous,10,1,fixationCross,17717264.0,17720080.0,2816.0,60,R,17716620,17716946,328,1203.3,561.7,3169,right
22,2,continuous,10,1,trial,17717264.0,17720080.0,2816.0,60,R,17716978,17717434,458,989.3,548.2,3423,NA
22,2,continuous,10,1,trial,17717264.0,17720080.0,2816.0,60,R,17717490,17717606,118,580.3,505.0,3500,left
22,2,continuous,10,1,trial,17717264.0,17720080.0,2816.0,60,R,17717630,17717948,320,473.9,433.1,3220,left
22,2,continuous,10,1,trial,17717264.0,17720080.0,2816.0,60,R,17718028,17718278,252,1403.9,533.4,3034,right
22,2,continuous,10,1,trial,17717264.0,17720080.0,2816.0,60,R,17718296,17718456,162,1390.0,495.1,3158,right
22,2,continuous,10,1,trial,17717264.0,17720080.0,2816.0,60,R,17718466,17718756,292,1345.2,486.0,3261,right
22,2,continuous,10,1,trial,17717264.0,17720080.0,2816.0,60,R,17718830,17718980,152,511.0,453.3,3457,left
22,2,continuous,10,1,trial,17717264.0,17720080.0,2816.0,60,R,17718998,17719432,436,447.8,432.7,3385,left
22,2,continuous,10,1,trial,17717264.0,17720080.0,2816.0,60,R,17719454,17719978,526,485.9,528.1,3417,left
22,2,continuous,10,1,postResponse,17717264.0,17720080.0,2816.0,60,R,17720054,17720416,364,1366.6,516.0,3206,right
22,2,continuous,11,1,fixationCross,17721147.0,17723897.0,2750.0,61,R,17720516,17720824,310,1359.7,519.8,3176,right
22,2,continuous,11,1,trial,17721147.0,17723897.0,2750.0,61,R,17720868,17721298,432,992.8,523.0,3301,NA
22,2,continuous,11,1,trial,17721147.0,17723897.0,2750.0,61,R,17721350,17721466,118,535.6,560.0,3475,left
22,2,continuous,11,1,trial,17721147.0,17723897.0,2750.0,61,R,17721492,17721794,304,415.9,520.4,3270,left
22,2,continuous,11,1,trial,17721147.0,17723897.0,2750.0,61,R,17721870,17722066,198,1402.9,562.9,3167,right
22,2,continuous,11,1,trial,17721147.0,17723897.0,2750.0,61,R,17722082,17722446,366,1454.7,578.0,3231,right
22,2,continuous,11,1,trial,17721147.0,17723897.0,2750.0,61,R,17722528,17722770,244,410.0,601.8,3577,left
22,2,continuous,11,1,trial,17721147.0,17723897.0,2750.0,61,R,17722790,17723132,344,373.6,677.6,3650,left
22,2,continuous,11,1,trial,17721147.0,17723897.0,2750.0,61,R,17723156,17723270,116,388.0,573.3,3595,left
22,2,continuous,11,1,trial,17721147.0,17723897.0,2750.0,61,R,17723328,17723714,388,517.1,967.8,3614,NA
22,2,continuous,11,1,postResponse,17721147.0,17723897.0,2750.0,61,R,17723788,17724234,448,1409.4,586.0,3522,right
22,2,continuous,12,100,fixationCross,17724931.0,17726881.0,1950.0,62,R,17724308,17724608,302,1402.7,579.0,3361,right
22,2,continuous,12,100,trial,17724931.0,17726881.0,1950.0,62,R,17724656,17725074,420,956.8,544.2,3637,NA
22,2,continuous,12,100,trial,17724931.0,17726881.0,1950.0,62,R,17725126,17725282,158,488.8,560.0,3806,left
22,2,continuous,12,100,trial,17724931.0,17726881.0,1950.0,62,R,17725302,17725398,98,419.7,578.6,3538,left
22,2,continuous,12,100,trial,17724931.0,17726881.0,1950.0,62,R,17725474,17725644,172,1402.9,549.2,3059,right
22,2,continuous,12,100,trial,17724931.0,17726881.0,1950.0,62,R,17725666,17726146,482,1369.9,637.3,3102,right
22,2,continuous,12,100,trial,17724931.0,17726881.0,1950.0,62,R,17726174,17726362,190,1367.4,529.2,3158,right
22,2,continuous,12,100,trial,17724931.0,17726881.0,1950.0,62,R,17726438,17726608,172,454.8,563.1,3394,left
22,2,continuous,12,100,trial,17724931.0,17726881.0,1950.0,62,R,17726622,17726804,184,409.1,587.6,3432,left
22,2,continuous,12,100,postResponse,17724931.0,17726881.0,1950.0,62,R,17726882,17727216,336,1379.6,538.1,3329,right
22,2,continuous,13,1,fixationCross,17727947.0,17729298.0,1351.0,63,R,17727318,17727624,308,1368.9,538.5,3394,right
22,2,continuous,13,1,trial,17727947.0,17729298.0,1351.0,63,R,17727666,17728092,428,999.4,530.1,3775,NA
22,2,continuous,13,1,trial,17727947.0,17729298.0,1351.0,63,R,17728148,17728326,180,532.0,553.0,3686,left
22,2,continuous,13,1,trial,17727947.0,17729298.0,1351.0,63,R,17728340,17728528,190,478.7,565.0,3411,left
22,2,continuous,13,1,trial,17727947.0,17729298.0,1351.0,63,R,17728564,17728790,228,539.9,394.6,3312,left
22,2,continuous,13,1,trial,17727947.0,17729298.0,1351.0,63,R,17728860,17729208,350,1329.3,515.8,3262,right
22,2,continuous,13,1,postResponse,17727947.0,17729298.0,1351.0,63,R,17729280,17729634,356,477.6,480.1,3360,left
22,2,continuous,14,100,fixationCross,17730397.0,17732264.0,1867.0,64,R,17729734,17730090,358,478.7,483.1,3375,left
22,2,continuous,14,100,fixationCross,17730397.0,17732264.0,1867.0,64,R,17730142,17730306,166,918.2,535.4,3335,NA
22,2,continuous,14,100,trial,17730397.0,17732264.0,1867.0,64,R,17730322,17730570,250,970.7,536.5,3378,NA
22,2,continuous,14,100,trial,17730397.0,17732264.0,1867.0,64,R,17730622,17730770,150,494.5,528.8,3486,left
22,2,continuous,14,100,trial,17730397.0,17732264.0,1867.0,64,R,17730840,17731106,268,1355.9,524.3,3134,right
22,2,continuous,14,100,trial,17730397.0,17732264.0,1867.0,64,R,17731124,17731708,586,1405.9,585.7,3076,right
22,2,continuous,14,100,trial,17730397.0,17732264.0,1867.0,64,R,17731744,17732134,392,1333.8,414.1,3120,right
22,2,continuous,14,100,trial,17730397.0,17732264.0,1867.0,64,R,17732206,17732576,372,497.2,457.7,3274,left
22,2,continuous,15,1,fixationCross,17733314.0,17736147.0,2833.0,65,R,17732750,17732984,236,1383.9,555.2,3069,right
22,2,continuous,15,1,fixationCross,17733314.0,17736147.0,2833.0,65,R,17733026,17733164,140,1012.4,540.4,3308,NA
22,2,continuous,15,1,trial,17733314.0,17736147.0,2833.0,65,R,17733178,17733494,318,961.2,537.1,3443,NA
22,2,continuous,15,1,trial,17733314.0,17736147.0,2833.0,65,R,17733510,17733566,58,1004.7,533.5,3468,NA
22,2,continuous,15,1,trial,17733314.0,17736147.0,2833.0,65,R,17733620,17733886,268,523.2,558.1,3361,left
22,2,continuous,15,1,trial,17733314.0,17736147.0,2833.0,65,R,17733960,17734186,228,1402.1,586.7,3117,right
22,2,continuous,15,1,trial,17733314.0,17736147.0,2833.0,65,R,17734198,17734408,212,1445.1,591.6,3155,right
22,2,continuous,15,1,trial,17733314.0,17736147.0,2833.0,65,R,17734434,17734594,162,1576.2,594.7,3198,right
22,2,continuous,15,1,trial,17733314.0,17736147.0,2833.0,65,R,17734634,17734810,178,1429.7,398.1,3204,right
22,2,continuous,15,1,trial,17733314.0,17736147.0,2833.0,65,R,17734822,17735002,182,1385.3,396.7,3219,right
22,2,continuous,15,1,trial,17733314.0,17736147.0,2833.0,65,R,17735044,17735390,348,1617.2,590.8,3208,right
22,2,continuous,15,1,trial,17733314.0,17736147.0,2833.0,65,R,17735408,17735692,286,1633.2,538.7,3198,right
22,2,continuous,15,1,postResponse,17733314.0,17736147.0,2833.0,65,R,17735782,17736482,702,476.4,563.1,3359,left
22,2,continuous,16,1,fixationCross,17737231.0,17738764.0,1533.0,66,R,17736556,17736894,340,472.7,567.3,3317,left
22,2,continuous,16,1,fixationCross,17737231.0,17738764.0,1533.0,66,R,17736948,17737074,128,884.8,529.1,3303,NA
22,2,continuous,16,1,trial,17737231.0,17738764.0,1533.0,66,R,17737094,17737382,290,959.1,529.0,3266,NA
22,2,continuous,16,1,trial,17737231.0,17738764.0,1533.0,66,R,17737432,17737704,274,567.6,526.7,3292,left
22,2,continuous,16,1,trial,17737231.0,17738764.0,1533.0,66,R,17737732,17737872,142,365.0,524.2,3137,left
22,2,continuous,16,1,trial,17737231.0,17738764.0,1533.0,66,R,17737954,17738168,216,1458.2,559.1,3052,right
22,2,continuous,16,1,trial,17737231.0,17738764.0,1533.0,66,R,17738190,17738430,242,1474.4,480.6,3132,right
22,2,continuous,16,1,trial,17737231.0,17738764.0,1533.0,66,R,17738450,17738772,324,1526.0,507.9,3231,right
22,2,continuous,16,1,postResponse,17737231.0,17738764.0,1533.0,66,R,17738804,17739098,296,1320.3,390.1,3274,right
22,2,continuous,17,100,fixationCross,17739848.0,17741447.0,1599.0,67,R,17739174,17739274,102,1314.2,395.1,3325,right
22,2,continuous,17,100,fixationCross,17739848.0,17741447.0,1599.0,67,R,17739322,17739522,202,1239.6,531.1,3507,right
22,2,continuous,17,100,trial,17739848.0,17741447.0,1599.0,67,R,17739560,17739996,438,961.7,537.8,3575,NA
22,2,continuous,17,100,trial,17739848.0,17741447.0,1599.0,67,R,17740056,17740296,242,417.4,534.1,3523,left
22,2,continuous,17,100,trial,17739848.0,17741447.0,1599.0,67,R,17740376,17740728,354,1456.5,539.2,2728,right
22,2,continuous,17,100,trial,17739848.0,17741447.0,1599.0,67,R,17740752,17740896,146,1541.7,547.9,2967,right
22,2,continuous,17,100,postResponse,17739848.0,17741447.0,1599.0,67,R,17740932,17741782,852,1346.5,519.7,3402,right
22,2,continuous,18,100,fixationCross,17742481.0,17745530.0,3049.0,68,R,17741856,17742158,304,1343.2,523.9,3492,right
22,2,continuous,18,100,fixationCross,17742481.0,17745530.0,3049.0,68,R,17742208,17742440,234,951.6,527.2,3545,NA
22,2,continuous,18,100,trial,17742481.0,17745530.0,3049.0,68,R,17742450,17742652,204,992.4,519.1,3448,NA
22,2,continuous,18,100,trial,17742481.0,17745530.0,3049.0,68,R,17742700,17742910,212,619.9,482.5,3446,left
22,2,continuous,18,100,trial,17742481.0,17745530.0,3049.0,68,R,17742924,17743102,180,656.4,475.7,3204,left
22,2,continuous,18,100,trial,17742481.0,17745530.0,3049.0,68,R,17743180,17743766,588,1526.1,463.6,2967,right
22,2,continuous,18,100,trial,17742481.0,17745530.0,3049.0,68,R,17743838,17744310,474,662.9,483.0,3152,left
22,2,continuous,18,100,trial,17742481.0,17745530.0,3049.0,68,R,17744320,17744442,124,679.0,456.2,3054,left
22,2,continuous,18,100,trial,17742481.0,17745530.0,3049.0,68,R,17744512,17744830,320,1483.4,478.0,2930,right
22,2,continuous,18,100,trial,17742481.0,17745530.0,3049.0,68,R,17744868,17745442,576,1357.0,664.7,3118,right
22,2,continuous,18,100,postResponse,17742481.0,17745530.0,3049.0,68,R,17745482,17745864,384,1522.7,470.9,3255,right
22,2,continuous,19,1,fixationCross,17746598.0,17747881.0,1283.0,69,R,17745938,17746240,304,1520.5,469.7,3153,right
22,2,continuous,19,1,fixationCross,17746598.0,17747881.0,1283.0,69,R,17746288,17746428,142,1053.6,527.4,3257,NA
22,2,continuous,19,1,trial,17746598.0,17747881.0,1283.0,69,R,17746442,17746748,308,989.3,531.0,3218,NA
22,2,continuous,19,1,trial,17746598.0,17747881.0,1283.0,69,R,17746804,17747068,266,523.0,539.2,3142,left
22,2,continuous,19,1,trial,17746598.0,17747881.0,1283.0,69,R,17747140,17747400,262,1395.6,505.3,2800,right
22,2,continuous,19,1,trial,17746598.0,17747881.0,1283.0,69,R,17747412,17747644,234,1353.1,501.1,2873,right
22,2,continuous,19,1,trial,17746598.0,17747881.0,1283.0,69,R,17747712,17747858,148,604.2,490.4,3190,left
22,2,continuous,19,1,postResponse,17746598.0,17747881.0,1283.0,69,R,17747880,17748216,338,504.5,454.8,3243,left
22,2,continuous,20,1,fixationCross,17749030.0,17751547.0,2517.0,70,R,17748316,17748408,94,499.2,453.5,3246,left
22,2,continuous,20,1,fixationCross,17749030.0,17751547.0,2517.0,70,R,17748490,17748718,230,1126.5,548.0,3197,NA
22,2,continuous,20,1,trial,17749030.0,17751547.0,2517.0,70,R,17748744,17749206,464,981.8,534.9,3283,NA
22,2,continuous,20,1,trial,17749030.0,17751547.0,2517.0,70,R,17749254,17749490,238,575.9,511.7,3206,left
22,2,continuous,20,1,trial,17749030.0,17751547.0,2517.0,70,R,17749520,17749736,218,357.1,583.0,2878,left
22,2,continuous,20,1,trial,17749030.0,17751547.0,2517.0,70,R,17749812,17750028,218,1319.6,548.7,2677,right
22,2,continuous,20,1,trial,17749030.0,17751547.0,2517.0,70,R,17750046,17750394,350,1384.1,534.2,2831,right
22,2,continuous,20,1,trial,17749030.0,17751547.0,2517.0,70,R,17750462,17750614,154,618.9,492.7,3206,left
22,2,continuous,20,1,trial,17749030.0,17751547.0,2517.0,70,R,17750632,17751088,458,557.0,509.3,3015,left
22,2,continuous,20,1,trial,17749030.0,17751547.0,2517.0,70,R,17751128,17751288,162,361.7,603.2,2927,left
22,2,continuous,20,1,trial,17749030.0,17751547.0,2517.0,70,R,17751330,17751466,138,496.2,915.2,2911,NA
22,2,continuous,20,1,trial,17749030.0,17751547.0,2517.0,70,R,17751492,17751584,94,552.2,934.1,2950,NA
22,2,continuous,20,1,postResponse,17749030.0,17751547.0,2517.0,70,R,17751652,17751882,232,1300.3,598.0,2970,right
22,2,continuous,21,8,fixationCross,17752647.0,17754314.0,1667.0,71,R,17751982,17752318,338,1294.9,599.8,3145,right
22,2,continuous,21,8,fixationCross,17752647.0,17754314.0,1667.0,71,R,17752352,17752518,168,1045.5,570.6,3153,NA
22,2,continuous,21,8,trial,17752647.0,17754314.0,1667.0,71,R,17752528,17752826,300,1005.3,579.7,3149,NA
22,2,continuous,21,8,trial,17752647.0,17754314.0,1667.0,71,R,17752878,17753094,218,503.5,551.5,3249,left
22,2,continuous,21,8,trial,17752647.0,17754314.0,1667.0,71,R,17753112,17753256,146,441.1,584.3,3102,left
22,2,continuous,21,8,trial,17752647.0,17754314.0,1667.0,71,R,17753330,17753514,186,1394.3,474.7,2939,right
22,2,continuous,21,8,trial,17752647.0,17754314.0,1667.0,71,R,17753530,17753770,242,1431.7,455.7,2978,right
22,2,continuous,21,8,trial,17752647.0,17754314.0,1667.0,71,R,17753788,17754098,312,1421.3,401.0,3138,right
22,2,continuous,21,8,trial,17752647.0,17754314.0,1667.0,71,R,17754178,17754496,320,467.4,542.9,3264,left
22,2,continuous,21,8,postResponse,17752647.0,17754314.0,1667.0,71,R,17754556,17754650,96,590.0,954.0,3138,NA
22,2,continuous,22,1,fixationCross,17755381.0,17758748.0,3367.0,72,R,17754724,17754758,36,588.8,958.1,3205,NA
22,2,continuous,22,1,fixationCross,17755381.0,17758748.0,3367.0,72,R,17754782,17755062,282,610.6,883.6,3476,NA
22,2,continuous,22,1,fixationCross,17755381.0,17758748.0,3367.0,72,R,17755110,17755230,122,911.5,602.4,3719,NA
22,2,continuous,22,1,trial,17755381.0,17758748.0,3367.0,72,R,17755250,17755528,280,989.3,560.8,3608,NA
22,2,continuous,22,1,trial,17755381.0,17758748.0,3367.0,72,R,17755576,17755928,354,635.7,593.4,3623,left
22,2,continuous,22,1,trial,17755381.0,17758748.0,3367.0,72,R,17755946,17756146,202,571.0,586.3,3327,left
22,2,continuous,22,1,trial,17755381.0,17758748.0,3367.0,72,R,17756218,17756720,504,1383.9,529.7,3131,right
22,2,continuous,22,1,trial,17755381.0,17758748.0,3367.0,72,R,17756786,17756966,182,692.6,626.9,3140,left
22,2,continuous,22,1,trial,17755381.0,17758748.0,3367.0,72,R,17756986,17758236,1252,551.1,608.2,3393,left
22,2,continuous,22,1,trial,17755381.0,17758748.0,3367.0,72,R,17758290,17758660,372,549.3,945.2,3499,NA
22,2,continuous,22,1,trial,17755381.0,17758748.0,3367.0,72,R,17758676,17759030,356,502.7,954.6,3519,NA
22,2,continuous,23,1,fixationCross,17759848.0,17763031.0,3183.0,73,R,17759156,17759524,370,1206.8,564.2,3421,right
22,2,continuous,23,1,trial,17759848.0,17763031.0,3183.0,73,R,17759556,17760016,462,987.4,520.3,3465,NA
22,2,continuous,23,1,trial,17759848.0,17763031.0,3183.0,73,R,17760064,17760232,170,585.3,509.9,3529,left
22,2,continuous,23,1,trial,17759848.0,17763031.0,3183.0,73,R,17760252,17760556,306,509.2,550.6,3225,left
22,2,continuous,23,1,trial,17759848.0,17763031.0,3183.0,73,R,17760630,17760782,154,1418.4,498.6,3005,right
22,2,continuous,23,1,trial,17759848.0,17763031.0,3183.0,73,R,17760804,17760924,122,1509.4,443.2,2983,right
22,2,continuous,23,1,trial,17759848.0,17763031.0,3183.0,73,R,17760942,17761442,502,1581.5,462.9,3078,right
22,2,continuous,23,1,trial,17759848.0,17763031.0,3183.0,73,R,17761522,17761736,216,579.7,587.4,3439,left
22,2,continuous,23,1,trial,17759848.0,17763031.0,3183.0,73,R,17761752,17761986,236,505.3,603.6,3350,left
22,2,continuous,23,1,trial,17759848.0,17763031.0,3183.0,73,R,17762036,17762220,186,661.1,913.2,3380,NA
22,2,continuous,23,1,trial,17759848.0,17763031.0,3183.0,73,R,17762244,17762392,150,551.5,960.0,3459,NA
22,2,continuous,23,1,trial,17759848.0,17763031.0,3183.0,73,R,17762416,17762718,304,666.9,952.5,3524,NA
22,2,continuous,23,1,trial,17759848.0,17763031.0,3183.0,73,R,17762740,17763002,264,507.0,947.7,3520,NA
22,2,continuous,23,1,trial,17759848.0,17763031.0,3183.0,73,R,17763046,17763304,260,621.5,551.4,3617,left
22,2,continuous,24,100,fixationCross,17764098.0,17769898.0,5800.0,74,R,17763468,17763792,326,1449.9,491.9,3319,right
22,2,continuous,24,100,trial,17764098.0,17769898.0,5800.0,74,R,17763840,17764274,436,1005.3,549.4,3735,NA
22,2,continuous,24,100,trial,17764098.0,17769898.0,5800.0,74,R,17764326,17764658,334,590.6,551.2,3637,left
22,2,continuous,24,100,trial,17764098.0,17769898.0,5800.0,74,R,17764678,17764838,162,459.6,579.9,3341,left
22,2,continuous,24,100,trial,17764098.0,17769898.0,5800.0,74,R,17764860,17764958,100,343.3,613.0,3280,left
22,2,continuous,24,100,trial,17764098.0,17769898.0,5800.0,74,R,17765036,17765830,796,1397.1,571.9,3339,right
22,2,continuous,24,100,trial,17764098.0,17769898.0,5800.0,74,R,17765848,17766162,316,1447.5,597.7,3658,right
22,2,continuous,24,100,trial,17764098.0,17769898.0,5800.0,74,R,17766176,17766418,244,1482.2,619.9,3713,right
22,2,continuous,24,100,trial,17764098.0,17769898.0,5800.0,74,R,17766444,17766560,118,1328.0,583.2,3755,right
22,2,continuous,24,100,trial,17764098.0,17769898.0,5800.0,74,R,17766638,17766776,140,437.6,576.0,3785,left
22,2,continuous,24,100,trial,17764098.0,17769898.0,5800.0,74,R,17766798,17766994,198,331.0,604.0,3543,left
22,2,continuous,24,100,trial,17764098.0,17769898.0,5800.0,74,R,17767028,17767164,138,496.7,572.6,3290,left
22,2,continuous,24,100,trial,17764098.0,17769898.0,5800.0,74,R,17767240,17767924,686,1452.9,530.4,3105,right
22,2,continuous,24,100,trial,17764098.0,17769898.0,5800.0,74,R,17767948,17768168,222,1379.6,585.7,3281,right
22,2,continuous,24,100,trial,17764098.0,17769898.0,5800.0,74,R,17768236,17768636,402,581.4,561.8,3317,left
22,2,continuous,24,100,trial,17764098.0,17769898.0,5800.0,74,R,17768656,17768968,314,490.5,569.1,3205,left
22,2,continuous,24,100,trial,17764098.0,17769898.0,5800.0,74,R,17768986,17769154,170,550.4,579.1,3205,left
22,2,continuous,24,100,trial,17764098.0,17769898.0,5800.0,74,R,17769232,17769572,342,1420.6,523.6,2945,right
22,2,continuous,24,100,trial,17764098.0,17769898.0,5800.0,74,R,17769644,17769820,178,1473.4,928.5,2907,NA
22,2,continuous,24,100,trial,17764098.0,17769898.0,5800.0,74,R,17769830,17770104,276,1481.3,962.9,2954,NA
22,2,continuous,25,7,fixationCross,17770981.0,17773115.0,2134.0,75,R,17770308,17770664,358,1144.6,516.8,3277,NA
22,2,continuous,25,7,trial,17770981.0,17773115.0,2134.0,75,R,17770690,17771130,442,966.5,534.6,3567,NA
22,2,continuous,25,7,trial,17770981.0,17773115.0,2134.0,75,R,17771180,17771320,142,578.5,514.9,3462,left
22,2,continuous,25,7,trial,17770981.0,17773115.0,2134.0,75,R,17771352,17771464,114,393.9,577.5,3107,left
22,2,continuous,25,7,trial,17770981.0,17773115.0,2134.0,75,R,17771486,17771630,146,307.3,632.2,2995,left
22,2,continuous,25,7,trial,17770981.0,17773115.0,2134.0,75,R,17771710,17771962,254,1422.5,486.2,2857,right
22,2,continuous,25,7,trial,17770981.0,17773115.0,2134.0,75,R,17771976,17772220,246,1388.8,466.2,2922,right
22,2,continuous,25,7,trial,17770981.0,17773115.0,2134.0,75,R,17772292,17772452,162,830.4,923.9,3069,likertHorizontal
22,2,continuous,25,7,trial,17770981.0,17773115.0,2134.0,75,R,17772484,17773394,912,565.0,959.7,3402,NA
22,2,continuous,25,7,postResponse,17770981.0,17773115.0,2134.0,75,R,17773416,17773448,34,541.8,864.1,3728,NA
22,2,continuous,26,7,fixationCross,17821549.0,17824998.0,3449.0,76,R,17820838,17821082,246,909.1,25.3,3801,NA
22,2,continuous,26,7,fixationCross,17821549.0,17824998.0,3449.0,76,R,17821134,17821222,90,844.9,285.4,4312,NA
22,2,continuous,26,7,fixationCross,17821549.0,17824998.0,3449.0,76,R,17821262,17821372,112,935.0,490.6,4391,NA
22,2,continuous,26,7,trial,17821549.0,17824998.0,3449.0,76,R,17821390,17821736,348,956.7,552.6,4349,NA
22,2,continuous,26,7,trial,17821549.0,17824998.0,3449.0,76,R,17821788,17822120,334,537.7,501.7,3917,left
22,2,continuous,26,7,trial,17821549.0,17824998.0,3449.0,76,R,17822170,17822278,110,532.1,950.3,3467,NA
22,2,continuous,26,7,trial,17821549.0,17824998.0,3449.0,76,R,17822296,17822318,24,510.3,1001.4,3485,NA
22,2,continuous,26,7,trial,17821549.0,17824998.0,3449.0,76,R,17822340,17822466,128,501.3,998.2,3510,NA
22,2,continuous,26,7,trial,17821549.0,17824998.0,3449.0,76,R,17822542,17822946,406,1377.0,579.2,3494,right
22,2,continuous,26,7,trial,17821549.0,17824998.0,3449.0,76,R,17823020,17823312,294,455.4,524.3,3728,left
22,2,continuous,26,7,trial,17821549.0,17824998.0,3449.0,76,R,17823364,17823522,160,642.4,893.5,3534,NA
22,2,continuous,26,7,trial,17821549.0,17824998.0,3449.0,76,R,17823544,17824362,820,534.7,955.4,3550,NA
22,2,continuous,26,7,trial,17821549.0,17824998.0,3449.0,76,R,17824414,17824488,76,579.1,574.6,3741,left
22,2,continuous,26,7,trial,17821549.0,17824998.0,3449.0,76,R,17824550,17824812,264,1295.0,552.8,3425,right
22,2,continuous,26,7,postResponse,17821549.0,17824998.0,3449.0,76,R,17824878,17825330,454,533.8,517.6,3444,left
22,2,continuous,27,5,fixationCross,17826115.0,17828715.0,2600.0,77,R,17825430,17825790,362,526.9,518.1,3445,left
22,2,continuous,27,5,fixationCross,17826115.0,17828715.0,2600.0,77,R,17825840,17826008,170,931.3,525.5,3434,NA
22,2,continuous,27,5,trial,17826115.0,17828715.0,2600.0,77,R,17826022,17826292,272,970.9,524.5,3455,NA
22,2,continuous,27,5,trial,17826115.0,17828715.0,2600.0,77,R,17826344,17826770,428,510.8,551.9,3351,left
22,2,continuous,27,5,trial,17826115.0,17828715.0,2600.0,77,R,17826846,17827066,222,1429.8,489.3,2992,right
22,2,continuous,27,5,trial,17826115.0,17828715.0,2600.0,77,R,17827084,17827260,178,1356.7,502.5,2965,right
22,2,continuous,27,5,trial,17826115.0,17828715.0,2600.0,77,R,17827332,17827508,178,532.2,565.5,3068,left
22,2,continuous,27,5,trial,17826115.0,17828715.0,2600.0,77,R,17827556,17827670,116,570.9,859.2,3032,NA
22,2,continuous,27,5,trial,17826115.0,17828715.0,2600.0,77,R,17827694,17828192,500,515.2,935.1,3295,NA
22,2,continuous,27,5,trial,17826115.0,17828715.0,2600.0,77,R,17828200,17828694,496,501.1,944.2,3332,NA
22,2,continuous,27,5,postResponse,17826115.0,17828715.0,2600.0,77,R,17828730,17829056,328,474.4,596.2,3524,left
22,2,continuous,28,1,fixationCross,17829798.0,17831132.0,1334.0,78,R,17829154,17829462,310,469.7,590.9,3530,left
22,2,continuous,28,1,fixationCross,17829798.0,17831132.0,1334.0,78,R,17829512,17829662,152,891.7,532.5,3455,NA
22,2,continuous,28,1,trial,17829798.0,17831132.0,1334.0,78,R,17829680,17829944,266,964.8,521.3,3417,NA
22,2,continuous,28,1,trial,17829798.0,17831132.0,1334.0,78,R,17829994,17830186,194,528.8,506.2,3450,left
22,2,continuous,28,1,trial,17829798.0,17831132.0,1334.0,78,R,17830204,17830420,218,449.2,497.2,3097,left
22,2,continuous,28,1,trial,17829798.0,17831132.0,1334.0,78,R,17830500,17830798,300,1434.6,523.3,2791,right
22,2,continuous,28,1,trial,17829798.0,17831132.0,1334.0,78,R,17830876,17830982,108,620.9,913.7,3101,NA
22,2,continuous,28,1,trial,17829798.0,17831132.0,1334.0,78,R,17831004,17831118,116,512.8,940.1,3198,NA
22,2,continuous,28,1,postResponse,17829798.0,17831132.0,1334.0,78,R,17831166,17831464,300,440.2,506.3,3404,left
22,2,continuous,29,1,trial,17832049.0,17834865.0,2816.0,79,R,17831574,17832198,626,946.1,544.9,3333,NA
22,2,continuous,29,1,trial,17832049.0,17834865.0,2816.0,79,R,17832248,17832494,248,508.3,533.5,3375,left
22,2,continuous,29,1,trial,17832049.0,17834865.0,2816.0,79,R,17832572,17832972,402,1471.3,526.6,2831,right
22,2,continuous,29,1,trial,17832049.0,17834865.0,2816.0,79,R,17833078,17833304,228,393.0,557.2,2934,left
22,2,continuous,29,1,trial,17832049.0,17834865.0,2816.0,79,R,17833324,17834004,682,464.5,547.8,3028,left
22,2,continuous,29,1,trial,17832049.0,17834865.0,2816.0,79,R,17834054,17834294,242,679.9,871.8,3108,NA
22,2,continuous,29,1,trial,17832049.0,17834865.0,2816.0,79,R,17834312,17834490,180,657.1,894.1,3233,NA
22,2,continuous,29,1,trial,17832049.0,17834865.0,2816.0,79,R,17834512,17834694,184,521.6,934.0,3328,NA
22,2,continuous,29,1,postResponse,17832049.0,17834865.0,2816.0,79,R,17834740,17835200,462,511.3,653.7,3484,left
22,2,continuous,30,100,fixationCross,17836015.0,17838582.0,2567.0,80,R,17835274,17835480,208,514.6,648.4,3409,left
22,2,continuous,30,100,fixationCross,17836015.0,17838582.0,2567.0,80,R,17835518,17835708,192,767.3,580.3,3342,NA
22,2,continuous,30,100,trial,17836015.0,17838582.0,2567.0,80,R,17835736,17836180,446,967.0,519.8,3246,NA
22,2,continuous,30,100,trial,17836015.0,17838582.0,2567.0,80,R,17836226,17836466,242,569.1,530.3,3162,left
22,2,continuous,30,100,trial,17836015.0,17838582.0,2567.0,80,R,17836490,17836684,196,556.6,452.4,2997,left
22,2,continuous,30,100,trial,17836015.0,17838582.0,2567.0,80,R,17836762,17837012,252,1416.2,494.9,2771,right
22,2,continuous,30,100,trial,17836015.0,17838582.0,2567.0,80,R,17837030,17837598,570,1440.8,551.2,2953,right
22,2,continuous,30,100,trial,17836015.0,17838582.0,2567.0,80,R,17837622,17837772,152,1321.6,587.8,3144,right
22,2,continuous,30,100,trial,17836015.0,17838582.0,2567.0,80,R,17837846,17838138,294,422.5,546.0,3359,left
22,2,continuous,30,100,trial,17836015.0,17838582.0,2567.0,80,R,17838158,17838312,156,380.2,553.1,3244,left
22,2,continuous,30,100,postResponse,17836015.0,17838582.0,2567.0,80,R,17838350,17838916,568,585.8,456.6,3144,left
22,2,continuous,31,95,fixationCross,17839699.0,17842765.0,3066.0,81,R,17839062,17839378,318,1223.0,534.3,3023,right
22,2,continuous,31,95,trial,17839699.0,17842765.0,3066.0,81,R,17839408,17839844,438,972.4,519.0,3266,NA
22,2,continuous,31,95,trial,17839699.0,17842765.0,3066.0,81,R,17839900,17840088,190,515.2,541.0,3326,left
22,2,continuous,31,95,trial,17839699.0,17842765.0,3066.0,81,R,17840110,17840250,142,437.0,496.4,3022,left
22,2,continuous,31,95,trial,17839699.0,17842765.0,3066.0,81,R,17840332,17840534,204,1470.1,551.6,2728,right
22,2,continuous,31,95,trial,17839699.0,17842765.0,3066.0,81,R,17840548,17840884,338,1446.4,594.2,2813,right
22,2,continuous,31,95,trial,17839699.0,17842765.0,3066.0,81,R,17840916,17841252,338,1298.7,459.5,3069,right
22,2,continuous,31,95,trial,17839699.0,17842765.0,3066.0,81,R,17841312,17841498,188,1335.1,876.9,3064,NA
22,2,continuous,31,95,trial,17839699.0,17842765.0,3066.0,81,R,17841514,17841678,166,1320.4,943.4,3085,NA
22,2,continuous,31,95,trial,17839699.0,17842765.0,3066.0,81,R,17841698,17842116,420,1408.2,963.9,3304,NA
22,2,continuous,31,95,trial,17839699.0,17842765.0,3066.0,81,R,17842188,17842424,238,560.9,564.1,3584,left
22,2,continuous,31,95,trial,17839699.0,17842765.0,3066.0,81,R,17842504,17842630,128,1356.8,922.4,3132,NA
22,2,continuous,31,95,trial,17839699.0,17842765.0,3066.0,81,R,17842646,17842836,192,1412.3,960.5,3079,NA
22,2,continuous,31,95,postResponse,17839699.0,17842765.0,3066.0,81,R,17842880,17843100,222,1355.0,572.4,3291,right
22,2,continuous,32,2,fixationCross,17843815.0,17846532.0,2717.0,82,R,17843200,17843512,314,1350.8,562.5,3417,right
22,2,continuous,32,2,fixationCross,17843815.0,17846532.0,2717.0,82,R,17843556,17843690,136,1012.0,533.4,3388,NA
22,2,continuous,32,2,trial,17843815.0,17846532.0,2717.0,82,R,17843702,17843962,262,969.1,529.8,3401,NA
22,2,continuous,32,2,trial,17843815.0,17846532.0,2717.0,82,R,17844014,17844382,370,534.0,534.7,3298,left
22,2,continuous,32,2,trial,17843815.0,17846532.0,2717.0,82,R,17844460,17844862,404,1496.6,486.2,2790,right
22,2,continuous,32,2,trial,17843815.0,17846532.0,2717.0,82,R,17844950,17845052,104,635.9,876.4,3171,NA
22,2,continuous,32,2,trial,17843815.0,17846532.0,2717.0,82,R,17845072,17845196,126,559.8,936.1,3227,NA
22,2,continuous,32,2,trial,17843815.0,17846532.0,2717.0,82,R,17845212,17845418,208,502.9,947.9,3279,NA
22,2,continuous,32,2,trial,17843815.0,17846532.0,2717.0,82,R,17845466,17845782,318,566.0,560.9,3328,left
22,2,continuous,32,2,trial,17843815.0,17846532.0,2717.0,82,R,17845808,17845926,120,682.9,475.7,3165,left
22,2,continuous,32,2,trial,17843815.0,17846532.0,2717.0,82,R,17845986,17846082,98,519.4,880.7,3090,NA
