participantNo,block,task,blockTrial,response,trialStage,trialStartTime,trialFinishTime,rt,trial,eye,fixStart,fixEnd,fixLength,fixPosX,fixPosY,dilation,aoi
38,1,binary,1,2,fixationCross,7789783.0,7792699.0,2916.0,1,R,7788984,7789230,248,617.7,644.7,6110,left
38,1,binary,1,2,fixationCross,7789783.0,7792699.0,2916.0,1,R,7789274,7789444,172,961.5,651.8,6269,NA
38,1,binary,1,2,fixationCross,7789783.0,7792699.0,2916.0,1,R,7789472,7789658,188,967.5,502.2,6351,NA
38,1,binary,1,2,trial,7789783.0,7792699.0,2916.0,1,R,7789668,7789926,260,972.1,527.4,6538,NA
38,1,binary,1,2,trial,7789783.0,7792699.0,2916.0,1,R,7789974,7790160,188,573.5,423.1,6610,left
38,1,binary,1,2,trial,7789783.0,7792699.0,2916.0,1,R,7790190,7790338,150,491.3,510.8,6383,left
38,1,binary,1,2,trial,7789783.0,7792699.0,2916.0,1,R,7790410,7790896,488,1409.5,487.2,5450,right
38,1,binary,1,2,trial,7789783.0,7792699.0,2916.0,1,R,7790960,7791148,190,479.4,480.7,5260,left
38,1,binary,1,2,trial,7789783.0,7792699.0,2916.0,1,R,7791212,7791546,336,1349.3,615.2,5260,right
38,1,binary,1,2,trial,7789783.0,7792699.0,2916.0,1,R,7791580,7791780,202,1377.3,477.2,5628,right
38,1,binary,1,2,trial,7789783.0,7792699.0,2916.0,1,R,7791844,7791994,152,1047.5,850.4,6176,likertHorizontal
38,1,binary,1,2,postResponse,7789783.0,7792699.0,2916.0,1,R,7792040,7793042,1004,1386.3,504.4,6539,right
38,1,binary,2,1,fixationCross,7793600.0,7796683.0,3083.0,2,R,7793260,7793518,260,942.4,609.3,6896,NA
38,1,binary,2,1,trial,7793600.0,7796683.0,3083.0,2,R,7793542,7793738,198,920.7,518.2,7005,NA
38,1,binary,2,1,trial,7793600.0,7796683.0,3083.0,2,R,7793784,7794006,224,552.7,442.4,6903,left
38,1,binary,2,1,trial,7793600.0,7796683.0,3083.0,2,R,7794018,7794090,74,524.3,456.0,6591,left
38,1,binary,2,1,trial,7793600.0,7796683.0,3083.0,2,R,7794126,7794238,114,366.4,541.9,6252,left
38,1,binary,2,1,trial,7793600.0,7796683.0,3083.0,2,R,7794306,7794540,236,1292.2,502.3,5673,right
38,1,binary,2,1,trial,7793600.0,7796683.0,3083.0,2,R,7794556,7794828,274,1340.9,464.4,5287,right
38,1,binary,2,1,trial,7793600.0,7796683.0,3083.0,2,R,7794896,7795084,190,500.7,486.9,5370,left
38,1,binary,2,1,trial,7793600.0,7796683.0,3083.0,2,R,7795118,7795256,140,366.0,541.0,5366,left
38,1,binary,2,1,trial,7793600.0,7796683.0,3083.0,2,R,7795290,7795654,366,543.3,403.6,5236,left
38,1,binary,2,1,trial,7793600.0,7796683.0,3083.0,2,R,7795694,7795996,304,359.8,538.7,5115,left
38,1,binary,2,1,trial,7793600.0,7796683.0,3083.0,2,R,7796032,7796460,430,553.7,509.2,5471,left
38,1,binary,2,1,trial,7793600.0,7796683.0,3083.0,2,R,7796480,7796900,422,466.1,520.8,5863,left
38,1,binary,2,1,postResponse,7793600.0,7796683.0,3083.0,2,R,7796946,7797032,88,903.1,469.3,6025,NA
38,1,binary,3,2,fixationCross,7797766.0,7799483.0,1717.0,3,R,7797106,7797296,192,903.7,474.6,6105,NA
38,1,binary,3,2,fixationCross,7797766.0,7799483.0,1717.0,3,R,7797318,7797466,150,816.0,429.9,6311,NA
38,1,binary,3,2,trial,7797766.0,7799483.0,1717.0,3,R,7797496,7797934,440,934.8,503.6,6599,NA
38,1,binary,3,2,trial,7797766.0,7799483.0,1717.0,3,R,7797982,7798184,204,527.2,498.4,6636,left
38,1,binary,3,2,trial,7797766.0,7799483.0,1717.0,3,R,7798260,7798704,446,1402.8,524.8,5688,right
38,1,binary,3,2,trial,7797766.0,7799483.0,1717.0,3,R,7798770,7799062,294,515.0,543.4,5311,left
38,1,binary,3,2,trial,7797766.0,7799483.0,1717.0,3,R,7799080,7799774,696,477.2,578.7,5296,left
38,1,binary,4,1,fixationCross,7800549.0,7802033.0,1484.0,4,R,7799922,7799960,40,720.8,481.0,5726,left
38,1,binary,4,1,fixationCross,7800549.0,7802033.0,1484.0,4,R,7800012,7800236,226,1203.8,463.1,5923,right
38,1,binary,4,1,trial,7800549.0,7802033.0,1484.0,4,R,7800276,7800700,426,928.7,499.9,6402,NA
38,1,binary,4,1,trial,7800549.0,7802033.0,1484.0,4,R,7800752,7800872,122,488.8,491.5,6530,left
38,1,binary,4,1,trial,7800549.0,7802033.0,1484.0,4,R,7800940,7801104,166,1378.9,495.3,5955,right
38,1,binary,4,1,trial,7800549.0,7802033.0,1484.0,4,R,7801122,7801284,164,1363.7,453.8,5503,right
38,1,binary,4,1,trial,7800549.0,7802033.0,1484.0,4,R,7801350,7801798,450,468.8,554.1,5157,left
38,1,binary,4,1,trial,7800549.0,7802033.0,1484.0,4,R,7801810,7802056,248,449.3,573.2,5235,left
38,1,binary,4,1,trial,7800549.0,7802033.0,1484.0,4,R,7802068,7802260,194,488.5,577.3,5423,left
38,1,binary,5,2,fixationCross,7803100.0,7804834.0,1734.0,5,R,7802464,7802774,312,797.8,437.0,5631,NA
38,1,binary,5,2,trial,7803100.0,7804834.0,1734.0,5,R,7802812,7803264,454,954.7,510.2,6164,NA
38,1,binary,5,2,trial,7803100.0,7804834.0,1734.0,5,R,7803316,7803632,318,498.2,502.5,6122,left
38,1,binary,5,2,trial,7803100.0,7804834.0,1734.0,5,R,7803700,7804016,318,1311.2,597.0,5143,right
38,1,binary,5,2,trial,7803100.0,7804834.0,1734.0,5,R,7804054,7804194,142,1471.5,532.1,4803,right
38,1,binary,5,2,trial,7803100.0,7804834.0,1734.0,5,R,7804230,7804604,376,1254.0,645.0,4773,right
38,1,binary,5,2,trial,7803100.0,7804834.0,1734.0,5,R,7804654,7804812,160,1398.8,989.7,4988,NA
38,1,binary,5,2,postResponse,7803100.0,7804834.0,1734.0,5,R,7804870,7805172,304,1403.9,537.3,5193,right
38,1,binary,6,2,fixationCross,7805916.0,7807599.0,1683.0,6,R,7805282,7805618,338,936.3,431.0,5765,NA
38,1,binary,6,2,trial,7805916.0,7807599.0,1683.0,6,R,7805642,7806066,426,916.9,495.1,6237,NA
38,1,binary,6,2,trial,7805916.0,7807599.0,1683.0,6,R,7806116,7806302,188,514.3,475.0,6303,left
38,1,binary,6,2,trial,7805916.0,7807599.0,1683.0,6,R,7806342,7806410,70,716.4,515.8,5947,left
38,1,binary,6,2,trial,7805916.0,7807599.0,1683.0,6,R,7806454,7806634,182,382.4,547.1,5526,left
38,1,binary,6,2,trial,7805916.0,7807599.0,1683.0,6,R,7806706,7806964,260,1389.9,569.7,4912,right
38,1,binary,6,2,trial,7805916.0,7807599.0,1683.0,6,R,7806976,7807546,572,1419.6,572.3,4548,right
38,1,binary,6,2,postResponse,7805916.0,7807599.0,1683.0,6,R,7807556,7807934,380,1436.7,533.1,4734,right
38,1,binary,7,2,fixationCross,7808883.0,7810450.0,1567.0,7,R,7808010,7808258,250,1179.8,495.0,5073,NA
38,1,binary,7,2,fixationCross,7808883.0,7810450.0,1567.0,7,R,7808472,7808594,124,840.7,509.0,5747,NA
38,1,binary,7,2,fixationCross,7808883.0,7810450.0,1567.0,7,R,7808614,7808840,228,915.2,511.1,5955,NA
38,1,binary,7,2,trial,7808883.0,7810450.0,1567.0,7,R,7808858,7809048,192,887.0,471.9,6092,NA
38,1,binary,7,2,trial,7808883.0,7810450.0,1567.0,7,R,7809096,7809260,166,535.4,464.7,6104,left
38,1,binary,7,2,trial,7808883.0,7810450.0,1567.0,7,R,7809280,7809464,186,519.4,555.9,5858,left
38,1,binary,7,2,trial,7808883.0,7810450.0,1567.0,7,R,7809532,7809766,236,1431.5,542.5,5386,right
38,1,binary,7,2,trial,7808883.0,7810450.0,1567.0,7,R,7809778,7810712,936,1400.3,546.4,5072,right
38,1,binary,8,1,fixationCross,7811366.0,7813016.0,1650.0,8,R,7810882,7811258,378,937.3,528.4,5938,NA
38,1,binary,8,1,trial,7811366.0,7813016.0,1650.0,8,R,7811270,7811506,238,900.1,517.9,6283,NA
38,1,binary,8,1,trial,7811366.0,7813016.0,1650.0,8,R,7811556,7811736,182,499.7,494.8,6379,left
38,1,binary,8,1,trial,7811366.0,7813016.0,1650.0,8,R,7811768,7811890,124,413.2,415.3,6016,left
38,1,binary,8,1,trial,7811366.0,7813016.0,1650.0,8,R,7811956,7812220,266,1345.4,513.1,5216,right
38,1,binary,8,1,trial,7811366.0,7813016.0,1650.0,8,R,7812242,7812364,124,1337.3,598.4,4896,right
38,1,binary,8,1,trial,7811366.0,7813016.0,1650.0,8,R,7812432,7812758,328,406.4,651.3,5381,left
38,1,binary,8,1,trial,7811366.0,7813016.0,1650.0,8,R,7812798,7813006,210,411.1,450.1,5552,left
38,1,binary,8,1,postResponse,7811366.0,7813016.0,1650.0,8,R,7813018,7813352,336,431.3,401.5,5361,left
38,1,binary,9,1,fixationCross,7814100.0,7816533.0,2433.0,9,R,7813628,7813786,160,742.8,461.1,5377,NA
38,1,binary,9,1,fixationCross,7814100.0,7816533.0,2433.0,9,R,7813820,7814014,196,895.0,530.2,5695,NA
38,1,binary,9,1,trial,7814100.0,7816533.0,2433.0,9,R,7814026,7814272,248,905.4,499.7,5965,NA
38,1,binary,9,1,trial,7814100.0,7816533.0,2433.0,9,R,7814322,7814540,220,525.5,438.8,6107,left
38,1,binary,9,1,trial,7814100.0,7816533.0,2433.0,9,R,7814560,7814730,172,429.9,443.7,5802,left
38,1,binary,9,1,trial,7814100.0,7816533.0,2433.0,9,R,7814798,7815026,230,1340.6,478.8,5242,right
38,1,binary,9,1,trial,7814100.0,7816533.0,2433.0,9,R,7815050,7815458,410,1347.6,556.9,5230,right
38,1,binary,9,1,trial,7814100.0,7816533.0,2433.0,9,R,7815524,7816752,1230,486.6,507.5,5675,left
38,1,binary,9,1,postResponse,7814100.0,7816533.0,2433.0,9,R,7816794,7816866,74,769.4,508.8,5801,NA
38,1,binary,10,1,fixationCross,7817616.0,7819399.0,1783.0,10,R,7816942,7817248,308,770.4,504.0,5978,NA
38,1,binary,10,1,fixationCross,7817616.0,7819399.0,1783.0,10,R,7817400,7817546,148,933.6,509.7,6269,NA
38,1,binary,10,1,trial,7817616.0,7819399.0,1783.0,10,R,7817564,7817800,238,895.3,491.8,6370,NA
38,1,binary,10,1,trial,7817616.0,7819399.0,1783.0,10,R,7817864,7818012,150,451.7,538.6,6393,left
38,1,binary,10,1,trial,7817616.0,7819399.0,1783.0,10,R,7818034,7818154,122,421.4,594.9,6133,left
38,1,binary,10,1,trial,7817616.0,7819399.0,1783.0,10,R,7818190,7818396,208,338.1,408.6,5776,left
38,1,binary,10,1,trial,7817616.0,7819399.0,1783.0,10,R,7818468,7818778,312,1315.2,549.1,5185,right
38,1,binary,10,1,trial,7817616.0,7819399.0,1783.0,10,R,7818796,7818900,106,1355.4,490.8,5093,right
38,1,binary,10,1,trial,7817616.0,7819399.0,1783.0,10,R,7818966,7819160,196,447.9,587.9,5397,left
38,1,binary,10,1,trial,7817616.0,7819399.0,1783.0,10,R,7819214,7819302,90,425.3,950.2,5657,NA
38,1,binary,10,1,trial,7817616.0,7819399.0,1783.0,10,R,7819384,7819660,278,1410.4,698.5,5657,right
38,1,binary,11,2,fixationCross,7820417.0,7821849.0,1432.0,11,R,7819836,7820112,278,824.1,448.7,6173,NA
38,1,binary,11,2,fixationCross,7820417.0,7821849.0,1432.0,11,R,7820142,7820384,244,925.8,482.2,6307,NA
38,1,binary,11,2,trial,7820417.0,7821849.0,1432.0,11,R,7820400,7820560,162,868.1,490.8,6409,NA
38,1,binary,11,2,trial,7820417.0,7821849.0,1432.0,11,R,7820622,7820800,180,484.6,575.0,6423,left
38,1,binary,11,2,trial,7820417.0,7821849.0,1432.0,11,R,7820858,7820906,50,1158.5,517.6,6005,NA
38,1,binary,11,2,trial,7820417.0,7821849.0,1432.0,11,R,7820940,7821218,280,1363.3,501.0,5485,right
38,1,binary,11,2,trial,7820417.0,7821849.0,1432.0,11,R,7821232,7821476,246,1350.4,473.6,5077,right
38,1,binary,11,2,trial,7820417.0,7821849.0,1432.0,11,R,7821544,7821830,288,428.0,633.2,4986,left
38,1,binary,11,2,postResponse,7820417.0,7821849.0,1432.0,11,R,7821898,7822184,288,1372.3,489.6,4985,right
38,1,binary,12,1,fixationCross,7822933.0,7825934.0,3001.0,12,R,7822468,7822632,166,829.7,487.0,5611,NA
38,1,binary,12,1,fixationCross,7822933.0,7825934.0,3001.0,12,R,7822648,7822908,262,885.5,505.9,5943,NA
38,1,binary,12,1,trial,7822933.0,7825934.0,3001.0,12,R,7822920,7823068,150,922.0,505.8,6108,NA
38,1,binary,12,1,trial,7822933.0,7825934.0,3001.0,12,R,7823116,7823394,280,527.3,479.8,6091,left
38,1,binary,12,1,trial,7822933.0,7825934.0,3001.0,12,R,7823422,7823772,352,436.0,523.5,5486,left
38,1,binary,12,1,trial,7822933.0,7825934.0,3001.0,12,R,7823842,7824114,274,1380.1,539.2,5000,right
38,1,binary,12,1,trial,7822933.0,7825934.0,3001.0,12,R,7824126,7824476,352,1345.9,552.7,5021,right
38,1,binary,12,1,trial,7822933.0,7825934.0,3001.0,12,R,7824554,7824980,428,443.2,877.8,5427,NA
38,1,binary,12,1,trial,7822933.0,7825934.0,3001.0,12,R,7825030,7825414,386,423.9,508.7,5579,left
38,1,binary,12,1,trial,7822933.0,7825934.0,3001.0,12,R,7825446,7825808,364,606.1,455.1,5575,left
38,1,binary,12,1,postResponse,7822933.0,7825934.0,3001.0,12,R,7825826,7826268,444,555.7,484.3,5461,left
38,1,binary,13,1,fixationCross,7827067.0,7828800.0,1733.0,13,R,7826370,7826576,208,912.3,488.6,5620,NA
38,1,binary,13,1,fixationCross,7827067.0,7828800.0,1733.0,13,R,7826616,7826800,186,697.9,447.6,5900,left
38,1,binary,13,1,trial,7827067.0,7828800.0,1733.0,13,R,7826838,7827204,368,894.0,491.1,6150,NA
38,1,binary,13,1,trial,7827067.0,7828800.0,1733.0,13,R,7827252,7827430,180,493.5,452.9,6350,left
38,1,binary,13,1,trial,7827067.0,7828800.0,1733.0,13,R,7827470,7827600,132,304.6,569.3,6037,left
38,1,binary,13,1,trial,7827067.0,7828800.0,1733.0,13,R,7827674,7827874,202,1318.4,490.2,5402,right
38,1,binary,13,1,trial,7827067.0,7828800.0,1733.0,13,R,7827896,7828310,416,1266.7,406.7,5117,right
38,1,binary,13,1,trial,7827067.0,7828800.0,1733.0,13,R,7828382,7828586,206,381.1,594.8,5303,left
38,1,binary,13,1,trial,7827067.0,7828800.0,1733.0,13,R,7828642,7828796,156,404.8,1028.7,5472,NA
38,1,binary,13,1,postResponse,7827067.0,7828800.0,1733.0,13,R,7828852,7829134,284,350.2,516.0,5505,left
38,1,binary,14,2,fixationCross,7829700.0,7831450.0,1750.0,14,R,7829234,7829376,144,351.4,510.6,5673,left
38,1,binary,14,2,fixationCross,7829700.0,7831450.0,1750.0,14,R,7829436,7829598,164,1005.8,477.5,5861,NA
38,1,binary,14,2,trial,7829700.0,7831450.0,1750.0,14,R,7829630,7829836,208,873.1,521.2,6089,NA
38,1,binary,14,2,trial,7829700.0,7831450.0,1750.0,14,R,7829898,7830456,560,436.0,502.2,6036,left
38,1,binary,14,2,trial,7829700.0,7831450.0,1750.0,14,R,7830480,7830660,182,515.2,485.9,5651,left
38,1,binary,14,2,trial,7829700.0,7831450.0,1750.0,14,R,7830730,7830928,200,1399.9,527.3,5421,right
38,1,binary,14,2,trial,7829700.0,7831450.0,1750.0,14,R,7830952,7831686,736,1305.2,464.9,5216,right
38,1,binary,15,1,fixationCross,7832349.0,7834500.0,2151.0,15,R,7831860,7832224,366,974.9,456.1,5391,NA
38,1,binary,15,1,trial,7832349.0,7834500.0,2151.0,15,R,7832250,7832482,234,886.6,506.7,5932,NA
38,1,binary,15,1,trial,7832349.0,7834500.0,2151.0,15,R,7832532,7832858,328,477.4,500.0,5930,left
38,1,binary,15,1,trial,7832349.0,7834500.0,2151.0,15,R,7832888,7833150,264,599.7,521.2,5299,left
38,1,binary,15,1,trial,7832349.0,7834500.0,2151.0,15,R,7833192,7833282,92,358.3,499.4,4958,left
38,1,binary,15,1,trial,7832349.0,7834500.0,2151.0,15,R,7833354,7833642,290,1382.7,517.7,4581,right
38,1,binary,15,1,trial,7832349.0,7834500.0,2151.0,15,R,7833662,7833750,90,1377.0,581.7,4479,right
38,1,binary,15,1,trial,7832349.0,7834500.0,2151.0,15,R,7833818,7834010,194,415.1,540.7,4740,left
38,1,binary,15,1,trial,7832349.0,7834500.0,2151.0,15,R,7834062,7834256,196,359.1,1019.7,4904,NA
38,1,binary,15,1,trial,7832349.0,7834500.0,2151.0,15,R,7834270,7834380,112,405.7,1011.2,5034,NA
38,1,binary,15,1,trial,7832349.0,7834500.0,2151.0,15,R,7834428,7834764,338,390.7,526.3,5295,left
38,1,binary,16,1,fixationCross,7835550.0,7837567.0,2017.0,16,R,7834934,7835252,320,743.4,532.9,5450,NA
38,1,binary,16,1,trial,7835550.0,7837567.0,2017.0,16,R,7835284,7835678,396,906.4,513.1,5845,NA
38,1,binary,16,1,trial,7835550.0,7837567.0,2017.0,16,R,7835728,7835982,256,506.6,479.5,5996,left
38,1,binary,16,1,trial,7835550.0,7837567.0,2017.0,16,R,7836000,7836202,204,439.3,493.9,5574,left
38,1,binary,16,1,trial,7835550.0,7837567.0,2017.0,16,R,7836270,7836502,234,1352.9,545.4,4935,right
38,1,binary,16,1,trial,7835550.0,7837567.0,2017.0,16,R,7836524,7836620,98,1446.9,574.1,4709,right
38,1,binary,16,1,trial,7835550.0,7837567.0,2017.0,16,R,7836694,7837080,388,400.0,500.3,4971,left
38,1,binary,16,1,trial,7835550.0,7837567.0,2017.0,16,R,7837112,7837824,714,367.3,610.7,5007,left
38,1,binary,16,1,postResponse,7835550.0,7837567.0,2017.0,16,R,7837852,7837900,50,540.7,562.0,5249,left
38,1,binary,17,2,fixationCross,7838733.0,7841066.0,2333.0,17,R,7837974,7838034,62,536.5,559.9,5357,left
38,1,binary,17,2,fixationCross,7838733.0,7841066.0,2333.0,17,R,7838076,7838274,200,810.7,489.9,5521,NA
38,1,binary,17,2,fixationCross,7838733.0,7841066.0,2333.0,17,R,7838308,7838404,98,643.0,464.4,5700,left
38,1,binary,17,2,fixationCross,7838733.0,7841066.0,2333.0,17,R,7838444,7838662,220,915.3,518.5,5793,NA
38,1,binary,17,2,trial,7838733.0,7841066.0,2333.0,17,R,7838838,7838908,72,871.6,509.0,5927,NA
38,1,binary,17,2,trial,7838733.0,7841066.0,2333.0,17,R,7838956,7839218,264,480.9,509.7,6007,left
38,1,binary,17,2,trial,7838733.0,7841066.0,2333.0,17,R,7839296,7839506,212,1452.0,505.1,5372,right
38,1,binary,17,2,trial,7838733.0,7841066.0,2333.0,17,R,7839526,7839952,428,1361.4,524.8,5143,right
38,1,binary,17,2,trial,7838733.0,7841066.0,2333.0,17,R,7840020,7840280,262,441.6,504.1,5251,left
38,1,binary,17,2,trial,7838733.0,7841066.0,2333.0,17,R,7840290,7840640,352,466.2,522.0,5189,left
38,1,binary,17,2,trial,7838733.0,7841066.0,2333.0,17,R,7840712,7840980,270,1411.5,554.7,5059,right
38,1,binary,17,2,postResponse,7838733.0,7841066.0,2333.0,17,R,7840998,7841398,402,1369.0,510.1,5190,right
38,1,binary,18,1,fixationCross,7842100.0,7843816.0,1716.0,18,R,7841632,7841636,6,781.2,561.6,5582,NA
38,1,binary,18,1,fixationCross,7842100.0,7843816.0,1716.0,18,R,7841654,7841806,154,775.9,583.7,5556,NA
38,1,binary,18,1,fixationCross,7842100.0,7843816.0,1716.0,18,R,7841836,7841990,156,941.5,553.2,5721,NA
38,1,binary,18,1,trial,7842100.0,7843816.0,1716.0,18,R,7842008,7842242,236,887.9,519.7,5937,NA
38,1,binary,18,1,trial,7842100.0,7843816.0,1716.0,18,R,7842290,7842442,154,490.6,526.7,6111,left
38,1,binary,18,1,trial,7842100.0,7843816.0,1716.0,18,R,7842466,7842704,240,602.2,547.0,5837,left
38,1,binary,18,1,trial,7842100.0,7843816.0,1716.0,18,R,7842750,7843002,254,294.0,450.0,5390,left
38,1,binary,18,1,trial,7842100.0,7843816.0,1716.0,18,R,7843038,7843150,114,482.0,514.3,5296,left
38,1,binary,18,1,trial,7842100.0,7843816.0,1716.0,18,R,7843216,7843446,232,1283.0,578.8,5059,right
38,1,binary,18,1,trial,7842100.0,7843816.0,1716.0,18,R,7843522,7843684,164,338.1,735.3,5208,NA
38,1,binary,18,1,trial,7842100.0,7843816.0,1716.0,18,R,7843728,7844038,312,309.4,482.6,5425,left
38,1,binary,18,1,postResponse,7842100.0,7843816.0,1716.0,18,R,7844076,7844152,78,601.2,494.2,5394,left
38,1,binary,19,1,fixationCross,7844900.0,7846849.0,1949.0,19,R,7844390,7844568,180,610.2,421.4,5560,left
38,1,binary,19,1,trial,7844900.0,7846849.0,1949.0,19,R,7844618,7844972,356,888.7,503.3,5936,NA
38,1,binary,19,1,trial,7844900.0,7846849.0,1949.0,19,R,7844988,7845078,92,945.0,483.7,6072,NA
38,1,binary,19,1,trial,7844900.0,7846849.0,1949.0,19,R,7845130,7845318,190,421.1,516.2,6166,left
38,1,binary,19,1,trial,7844900.0,7846849.0,1949.0,19,R,7845348,7845620,274,366.1,441.4,5715,left
38,1,binary,19,1,trial,7844900.0,7846849.0,1949.0,19,R,7845652,7845730,80,361.7,588.0,5371,left
38,1,binary,19,1,trial,7844900.0,7846849.0,1949.0,19,R,7845802,7846010,210,1371.7,569.0,5014,right
38,1,binary,19,1,trial,7844900.0,7846849.0,1949.0,19,R,7846096,7846256,162,309.1,863.5,5209,NA
38,1,binary,19,1,trial,7844900.0,7846849.0,1949.0,19,R,7846300,7846614,316,305.6,539.9,5181,left
38,1,binary,19,1,trial,7844900.0,7846849.0,1949.0,19,R,7846680,7846800,122,419.2,1058.8,5393,NA
38,1,binary,19,1,postResponse,7844900.0,7846849.0,1949.0,19,R,7846856,7847184,330,387.8,488.2,5370,left
38,1,binary,20,1,fixationCross,7848284.0,7850367.0,2083.0,20,R,7847310,7847648,340,649.8,453.9,5598,left
38,1,binary,20,1,fixationCross,7848284.0,7850367.0,2083.0,20,R,7847686,7848008,324,841.9,483.3,5969,NA
38,1,binary,20,1,fixationCross,7848284.0,7850367.0,2083.0,20,R,7848024,7848188,166,892.4,489.9,6120,NA
38,1,binary,20,1,trial,7848284.0,7850367.0,2083.0,20,R,7848206,7848420,216,936.8,521.6,6158,NA
38,1,binary,20,1,trial,7848284.0,7850367.0,2083.0,20,R,7848468,7848690,224,540.7,492.1,6164,left
38,1,binary,20,1,trial,7848284.0,7850367.0,2083.0,20,R,7848704,7848800,98,587.2,485.6,5906,left
38,1,binary,20,1,trial,7848284.0,7850367.0,2083.0,20,R,7848864,7849104,242,1415.8,492.8,5512,right
38,1,binary,20,1,trial,7848284.0,7850367.0,2083.0,20,R,7849134,7849286,154,1554.1,490.3,5296,right
38,1,binary,20,1,trial,7848284.0,7850367.0,2083.0,20,R,7849358,7849594,238,487.0,555.6,5429,left
38,1,binary,20,1,trial,7848284.0,7850367.0,2083.0,20,R,7849628,7849854,228,291.3,491.0,5357,left
38,1,binary,20,1,trial,7848284.0,7850367.0,2083.0,20,R,7849880,7850116,238,322.9,562.2,5364,left
38,1,binary,20,1,trial,7848284.0,7850367.0,2083.0,20,R,7850152,7850310,160,527.9,499.6,5428,left
38,1,binary,20,1,trial,7848284.0,7850367.0,2083.0,20,R,7850356,7850590,236,238.6,575.9,5328,left
38,1,binary,21,2,fixationCross,7851316.0,7854017.0,2701.0,21,R,7850786,7850790,6,691.5,436.7,5480,left
38,1,binary,21,2,fixationCross,7851316.0,7854017.0,2701.0,21,R,7850808,7850992,186,687.9,458.0,5439,left
38,1,binary,21,2,fixationCross,7851316.0,7854017.0,2701.0,21,R,7851032,7851212,182,996.1,531.3,5679,NA
38,1,binary,21,2,trial,7851316.0,7854017.0,2701.0,21,R,7851234,7851460,228,916.3,489.5,5895,NA
38,1,binary,21,2,trial,7851316.0,7854017.0,2701.0,21,R,7851510,7851686,178,541.4,458.4,5999,left
38,1,binary,21,2,trial,7851316.0,7854017.0,2701.0,21,R,7851740,7851764,26,1029.1,429.2,5743,NA
38,1,binary,21,2,trial,7851316.0,7854017.0,2701.0,21,R,7851818,7852066,250,1397.1,496.7,5434,right
38,1,binary,21,2,trial,7851316.0,7854017.0,2701.0,21,R,7852086,7852416,332,1325.9,526.2,5447,right
38,1,binary,21,2,trial,7851316.0,7854017.0,2701.0,21,R,7852426,7852520,96,1312.5,541.4,5566,right
38,1,binary,21,2,trial,7851316.0,7854017.0,2701.0,21,R,7852584,7852812,230,522.6,470.8,5895,left
38,1,binary,21,2,trial,7851316.0,7854017.0,2701.0,21,R,7852852,7853188,338,276.5,442.1,5850,left
38,1,binary,21,2,trial,7851316.0,7854017.0,2701.0,21,R,7853268,7853614,348,1289.8,492.5,5577,right
38,1,binary,21,2,trial,7851316.0,7854017.0,2701.0,21,R,7853672,7853790,120,1432.4,891.6,5640,NA
38,1,binary,21,2,trial,7851316.0,7854017.0,2701.0,21,R,7853820,7854004,186,1406.7,988.0,5813,NA
38,1,binary,21,2,trial,7851316.0,7854017.0,2701.0,21,R,7854060,7854292,234,1447.9,566.8,5746,right
38,1,binary,22,2,fixationCross,7854900.0,7856834.0,1934.0,22,R,7854518,7854804,288,968.4,498.8,6040,NA
38,1,binary,22,2,trial,7854900.0,7856834.0,1934.0,22,R,7854822,7855048,228,889.8,508.8,6203,NA
38,1,binary,22,2,trial,7854900.0,7856834.0,1934.0,22,R,7855098,7855566,470,452.2,496.7,5980,left
38,1,binary,22,2,trial,7854900.0,7856834.0,1934.0,22,R,7855608,7855718,112,370.8,739.2,5473,NA
38,1,binary,22,2,trial,7854900.0,7856834.0,1934.0,22,R,7855818,7856032,216,1338.5,558.2,5180,right
38,1,binary,22,2,trial,7854900.0,7856834.0,1934.0,22,R,7856058,7856486,430,1352.3,663.0,5112,right
38,1,binary,22,2,trial,7854900.0,7856834.0,1934.0,22,R,7856556,7856704,150,403.2,524.6,5259,left
38,1,binary,22,2,trial,7854900.0,7856834.0,1934.0,22,R,7856724,7856838,116,419.1,468.2,5194,left
38,1,binary,22,2,postResponse,7854900.0,7856834.0,1934.0,22,R,7856910,7857166,258,1409.6,604.5,4970,right
38,1,binary,23,1,fixationCross,7857950.0,7860350.0,2400.0,23,R,7857264,7857306,44,1405.4,598.9,4978,right
38,1,binary,23,1,fixationCross,7857950.0,7860350.0,2400.0,23,R,7857524,7857650,128,820.1,486.6,5547,NA
38,1,binary,23,1,trial,7857950.0,7860350.0,2400.0,23,R,7857672,7857964,294,901.8,495.1,5811,NA
38,1,binary,23,1,trial,7857950.0,7860350.0,2400.0,23,R,7857984,7858108,126,848.9,464.9,6018,NA
38,1,binary,23,1,trial,7857950.0,7860350.0,2400.0,23,R,7858166,7858392,228,478.9,442.5,5979,left
38,1,binary,23,1,trial,7857950.0,7860350.0,2400.0,23,R,7858404,7858564,162,430.5,422.9,5706,left
38,1,binary,23,1,trial,7857950.0,7860350.0,2400.0,23,R,7858600,7858688,90,473.0,580.9,5540,left
38,1,binary,23,1,trial,7857950.0,7860350.0,2400.0,23,R,7858752,7859014,264,1271.4,580.7,5285,right
38,1,binary,23,1,trial,7857950.0,7860350.0,2400.0,23,R,7859046,7859244,200,1424.4,612.7,5153,right
38,1,binary,23,1,trial,7857950.0,7860350.0,2400.0,23,R,7859266,7859570,306,1316.4,591.6,5153,right
38,1,binary,23,1,trial,7857950.0,7860350.0,2400.0,23,R,7859594,7859690,98,1235.4,511.4,5113,right
38,1,binary,23,1,trial,7857950.0,7860350.0,2400.0,23,R,7859752,7860010,260,481.7,478.6,5186,left
38,1,binary,23,1,trial,7857950.0,7860350.0,2400.0,23,R,7860050,7860272,224,400.9,427.4,5174,left
38,1,binary,23,1,trial,7857950.0,7860350.0,2400.0,23,R,7860282,7860402,122,417.4,412.4,5188,left
38,1,binary,23,1,postResponse,7857950.0,7860350.0,2400.0,23,R,7860444,7860686,244,474.5,682.3,5169,left
38,1,binary,24,1,fixationCross,7861467.0,7862817.0,1350.0,24,R,7860760,7860970,212,769.1,620.3,5412,NA
38,1,binary,24,1,fixationCross,7861467.0,7862817.0,1350.0,24,R,7861010,7861156,148,624.7,479.5,5708,left
38,1,binary,24,1,trial,7861467.0,7862817.0,1350.0,24,R,7861196,7861638,444,901.1,505.4,5994,NA
38,1,binary,24,1,trial,7861467.0,7862817.0,1350.0,24,R,7861688,7861860,174,489.2,497.5,6116,left
38,1,binary,24,1,trial,7861467.0,7862817.0,1350.0,24,R,7861884,7862000,118,579.8,462.6,5841,left
38,1,binary,24,1,trial,7861467.0,7862817.0,1350.0,24,R,7862066,7862386,322,1420.4,607.8,5281,right
38,1,binary,24,1,trial,7861467.0,7862817.0,1350.0,24,R,7862408,7862494,88,1346.2,565.7,5078,right
38,1,binary,24,1,trial,7861467.0,7862817.0,1350.0,24,R,7862562,7862860,300,444.4,483.5,5086,left
38,1,binary,24,1,trial,7861467.0,7862817.0,1350.0,24,R,7862882,7863130,250,539.5,464.5,5154,left
38,1,binary,25,1,fixationCross,7863900.0,7865467.0,1567.0,25,R,7863372,7863606,236,798.4,516.8,5685,NA
38,1,binary,25,1,fixationCross,7863900.0,7865467.0,1567.0,25,R,7863628,7863894,268,909.1,513.8,6012,NA
38,1,binary,25,1,trial,7863900.0,7865467.0,1567.0,25,R,7863908,7864046,140,856.6,485.2,6122,NA
38,1,binary,25,1,trial,7863900.0,7865467.0,1567.0,25,R,7864090,7864398,310,518.9,476.4,5958,left
38,1,binary,25,1,trial,7863900.0,7865467.0,1567.0,25,R,7864420,7864520,102,443.5,520.4,5493,left
38,1,binary,25,1,trial,7863900.0,7865467.0,1567.0,25,R,7864586,7864732,148,1361.0,582.3,5118,right
38,1,binary,25,1,trial,7863900.0,7865467.0,1567.0,25,R,7864802,7865418,618,418.3,535.2,5097,left
38,1,binary,25,1,trial,7863900.0,7865467.0,1567.0,25,R,7865446,7865756,312,567.3,490.6,5207,left
38,1,binary,26,2,fixationCross,7894117.0,7896850.0,2733.0,26,R,7893650,7893766,118,172.6,15.0,5476,NA
38,1,binary,26,2,fixationCross,7894117.0,7896850.0,2733.0,26,R,7893852,7894042,192,947.8,463.4,5524,NA
38,1,binary,26,2,trial,7894117.0,7896850.0,2733.0,26,R,7894062,7894358,298,933.2,518.3,5685,NA
38,1,binary,26,2,trial,7894117.0,7896850.0,2733.0,26,R,7894406,7894618,214,501.4,523.2,6082,left
38,1,binary,26,2,trial,7894117.0,7896850.0,2733.0,26,R,7894690,7895022,334,1395.6,541.8,5711,right
38,1,binary,26,2,trial,7894117.0,7896850.0,2733.0,26,R,7895052,7895340,290,1535.3,481.2,5301,right
38,1,binary,26,2,trial,7894117.0,7896850.0,2733.0,26,R,7895398,7895520,124,974.8,667.5,5403,NA
38,1,binary,26,2,trial,7894117.0,7896850.0,2733.0,26,R,7895574,7895752,180,456.4,454.4,5474,left
38,1,binary,26,2,trial,7894117.0,7896850.0,2733.0,26,R,7895780,7895942,164,447.0,564.7,5537,left
38,1,binary,26,2,trial,7894117.0,7896850.0,2733.0,26,R,7895998,7896148,152,1011.7,944.7,5484,likertHorizontal
38,1,binary,26,2,trial,7894117.0,7896850.0,2733.0,26,R,7896192,7896544,354,1374.5,988.1,5438,NA
38,1,binary,26,2,trial,7894117.0,7896850.0,2733.0,26,R,7896602,7896658,58,1433.1,561.6,5691,right
38,1,binary,26,2,trial,7894117.0,7896850.0,2733.0,26,R,7896740,7896938,200,491.1,518.4,6171,left
38,1,binary,26,2,trial,7894117.0,7896850.0,2733.0,26,R,7896962,7897022,62,410.9,525.5,6153,left
38,1,binary,27,1,fixationCross,7897917.0,7900118.0,2201.0,27,R,7897286,7897606,322,1173.0,571.9,5802,NA
38,1,binary,27,1,trial,7897917.0,7900118.0,2201.0,27,R,7897646,7898060,416,904.2,518.0,6243,NA
38,1,binary,27,1,trial,7897917.0,7900118.0,2201.0,27,R,7898130,7898266,138,464.2,499.3,6318,left
38,1,binary,27,1,trial,7897917.0,7900118.0,2201.0,27,R,7898290,7898398,110,543.8,510.6,6111,left
38,1,binary,27,1,trial,7897917.0,7900118.0,2201.0,27,R,7898462,7898652,192,1357.9,554.7,5584,right
38,1,binary,27,1,trial,7897917.0,7900118.0,2201.0,27,R,7898672,7898896,226,1337.7,490.5,5288,right
38,1,binary,27,1,trial,7897917.0,7900118.0,2201.0,27,R,7898928,7899086,160,1417.5,582.9,5088,right
38,1,binary,27,1,trial,7897917.0,7900118.0,2201.0,27,R,7899096,7899308,214,1401.6,562.1,5078,right
38,1,binary,27,1,trial,7897917.0,7900118.0,2201.0,27,R,7899376,7899614,240,476.3,530.8,5149,left
38,1,binary,27,1,trial,7897917.0,7900118.0,2201.0,27,R,7899638,7900158,522,431.5,418.6,5002,left
38,1,binary,27,1,trial,7897917.0,7900118.0,2201.0,27,R,7900192,7900354,164,428.2,557.5,4896,left
38,1,binary,28,1,fixationCross,7901167.0,7903285.0,2118.0,28,R,7900596,7900872,278,783.4,547.8,5281,NA
38,1,binary,28,1,trial,7901167.0,7903285.0,2118.0,28,R,7900896,7901326,432,908.3,509.9,5681,NA
38,1,binary,28,1,trial,7901167.0,7903285.0,2118.0,28,R,7901376,7901552,178,458.5,587.1,5795,left
38,1,binary,28,1,trial,7901167.0,7903285.0,2118.0,28,R,7901576,7901746,172,381.3,505.1,5559,left
38,1,binary,28,1,trial,7901167.0,7903285.0,2118.0,28,R,7901766,7901874,110,450.6,520.7,5321,left
38,1,binary,28,1,trial,7901167.0,7903285.0,2118.0,28,R,7901938,7902204,268,1303.7,522.4,4862,right
38,1,binary,28,1,trial,7901167.0,7903285.0,2118.0,28,R,7902220,7902462,244,1236.7,512.3,4783,right
38,1,binary,28,1,trial,7901167.0,7903285.0,2118.0,28,R,7902530,7903092,564,433.2,585.1,5009,left
38,1,binary,28,1,trial,7901167.0,7903285.0,2118.0,28,R,7903114,7903518,406,401.1,519.9,5263,left
38,1,binary,29,2,fixationCross,7904351.0,7906684.0,2333.0,29,R,7903720,7903766,48,524.1,462.9,5445,left
38,1,binary,29,2,fixationCross,7904351.0,7906684.0,2333.0,29,R,7903804,7904054,252,772.6,495.4,5625,NA
38,1,binary,29,2,fixationCross,7904351.0,7906684.0,2333.0,29,R,7904080,7904286,208,876.9,496.9,5813,NA
38,1,binary,29,2,trial,7904351.0,7906684.0,2333.0,29,R,7904300,7904500,202,918.2,496.8,5961,NA
38,1,binary,29,2,trial,7904351.0,7906684.0,2333.0,29,R,7904550,7904762,214,512.6,515.6,6131,left
38,1,binary,29,2,trial,7904351.0,7906684.0,2333.0,29,R,7904784,7904962,180,559.2,471.9,5763,left
38,1,binary,29,2,trial,7904351.0,7906684.0,2333.0,29,R,7905026,7905294,270,1369.7,549.8,5102,right
38,1,binary,29,2,trial,7904351.0,7906684.0,2333.0,29,R,7905304,7905530,228,1355.4,522.9,4984,right
38,1,binary,29,2,trial,7904351.0,7906684.0,2333.0,29,R,7905594,7905790,198,513.6,537.6,5121,left
38,1,binary,29,2,trial,7904351.0,7906684.0,2333.0,29,R,7905814,7906062,250,448.6,608.6,5014,left
38,1,binary,29,2,trial,7904351.0,7906684.0,2333.0,29,R,7906078,7906188,112,405.6,626.1,4902,left
38,1,binary,29,2,trial,7904351.0,7906684.0,2333.0,29,R,7906222,7906332,112,543.0,522.4,4910,left
38,1,binary,29,2,trial,7904351.0,7906684.0,2333.0,29,R,7906398,7906928,532,1383.7,493.4,4760,right
38,1,binary,30,1,fixationCross,7907768.0,7909184.0,1416.0,30,R,7907118,7907462,346,1108.3,456.4,5465,NA
38,1,binary,30,1,trial,7907768.0,7909184.0,1416.0,30,R,7907498,7907848,352,919.4,513.5,5993,NA
38,1,binary,30,1,trial,7907768.0,7909184.0,1416.0,30,R,7907868,7907928,62,849.1,484.4,6039,NA
38,1,binary,30,1,trial,7907768.0,7909184.0,1416.0,30,R,7907986,7908136,152,452.3,521.0,6024,left
38,1,binary,30,1,trial,7907768.0,7909184.0,1416.0,30,R,7908158,7908288,132,407.8,577.1,5746,left
38,1,binary,30,1,trial,7907768.0,7909184.0,1416.0,30,R,7908358,7908576,220,1356.5,563.7,5386,right
38,1,binary,30,1,trial,7907768.0,7909184.0,1416.0,30,R,7908596,7908800,206,1396.3,600.7,5016,right
38,1,binary,30,1,trial,7907768.0,7909184.0,1416.0,30,R,7908878,7909094,218,323.5,606.9,4922,left
38,1,binary,30,1,trial,7907768.0,7909184.0,1416.0,30,R,7909158,7909412,256,403.7,1057.1,4999,NA
38,1,binary,30,1,postResponse,7907768.0,7909184.0,1416.0,30,R,7909484,7909518,36,797.0,490.9,5200,NA
38,1,binary,31,2,fixationCross,7910351.0,7912184.0,1833.0,31,R,7909618,7909854,238,790.6,493.8,5482,NA
38,1,binary,31,2,fixationCross,7910351.0,7912184.0,1833.0,31,R,7909898,7910024,128,502.3,471.9,5726,left
38,1,binary,31,2,trial,7910351.0,7912184.0,1833.0,31,R,7910078,7910494,418,891.2,513.5,5889,NA
38,1,binary,31,2,trial,7910351.0,7912184.0,1833.0,31,R,7910544,7910710,168,473.9,494.0,5996,left
38,1,binary,31,2,trial,7910351.0,7912184.0,1833.0,31,R,7910726,7910860,136,513.6,491.7,5704,left
38,1,binary,31,2,trial,7910351.0,7912184.0,1833.0,31,R,7910924,7911304,382,1333.6,561.9,5074,right
38,1,binary,31,2,trial,7910351.0,7912184.0,1833.0,31,R,7911370,7911630,262,428.3,475.5,4862,left
38,1,binary,31,2,trial,7910351.0,7912184.0,1833.0,31,R,7911650,7911774,126,512.9,464.7,4784,left
38,1,binary,31,2,trial,7910351.0,7912184.0,1833.0,31,R,7911840,7912068,230,1375.9,621.3,4748,right
38,1,binary,31,2,trial,7910351.0,7912184.0,1833.0,31,R,7912090,7912470,382,1357.1,544.2,5140,right
38,1,binary,32,1,fixationCross,7913217.0,7914901.0,1684.0,32,R,7912678,7912916,240,1149.4,483.0,5510,NA
38,1,binary,32,1,trial,7913217.0,7914901.0,1684.0,32,R,7912958,7913356,400,889.9,515.6,5910,NA
38,1,binary,32,1,trial,7913217.0,7914901.0,1684.0,32,R,7913406,7913872,468,467.8,534.7,5651,left
38,1,binary,32,1,trial,7913217.0,7914901.0,1684.0,32,R,7913940,7914336,398,1335.9,554.0,4796,right
38,1,binary,32,1,trial,7913217.0,7914901.0,1684.0,32,R,7914402,7914722,322,450.7,555.9,4430,left
38,1,binary,32,1,trial,7913217.0,7914901.0,1684.0,32,R,7914778,7914916,140,369.6,970.4,4403,NA
38,1,binary,32,1,postResponse,7913217.0,7914901.0,1684.0,32,R,7914966,7915236,272,450.8,522.7,4729,left
38,1,binary,33,2,fixationCross,7915984.0,7917434.0,1450.0,33,R,7915310,7915348,40,449.3,514.9,5008,left
38,1,binary,33,2,fixationCross,7915984.0,7917434.0,1450.0,33,R,7915386,7915688,304,714.9,520.3,5347,left
38,1,binary,33,2,fixationCross,7915984.0,7917434.0,1450.0,33,R,7915722,7915972,252,884.5,509.3,5598,NA
38,1,binary,33,2,trial,7915984.0,7917434.0,1450.0,33,R,7915986,7916124,140,824.7,492.7,5732,NA
38,1,binary,33,2,trial,7915984.0,7917434.0,1450.0,33,R,7916170,7916388,220,489.4,486.1,5790,left
38,1,binary,33,2,trial,7915984.0,7917434.0,1450.0,33,R,7916410,7916556,148,413.8,488.9,5370,left
38,1,binary,33,2,trial,7915984.0,7917434.0,1450.0,33,R,7916576,7916784,210,456.3,526.9,5089,left
38,1,binary,33,2,trial,7915984.0,7917434.0,1450.0,33,R,7916852,7917346,496,1280.1,490.1,4954,right
38,1,binary,33,2,postResponse,7915984.0,7917434.0,1450.0,33,R,7917386,7917768,384,1447.8,669.6,5153,right
38,1,binary,34,1,fixationCross,7919984.0,7921784.0,1800.0,34,R,7917868,7918146,280,1153.2,414.0,5520,NA
38,1,binary,34,1,fixationCross,7919984.0,7921784.0,1800.0,34,R,7918194,7918394,202,809.4,451.5,5828,NA
38,1,binary,34,1,fixationCross,7919984.0,7921784.0,1800.0,34,R,7918410,7918540,132,845.5,493.4,5881,NA
38,1,binary,34,1,fixationCross,7919984.0,7921784.0,1800.0,34,R,7918674,7919560,888,857.6,496.3,5983,NA
38,1,binary,34,1,fixationCross,7919984.0,7921784.0,1800.0,34,R,7919594,7919722,130,690.5,486.7,6146,left
38,1,binary,34,1,trial,7919984.0,7921784.0,1800.0,34,R,7919754,7920064,312,872.2,500.1,6220,NA
38,1,binary,34,1,trial,7919984.0,7921784.0,1800.0,34,R,7920096,7920142,48,793.8,460.5,6275,NA
38,1,binary,34,1,trial,7919984.0,7921784.0,1800.0,34,R,7920188,7920360,174,457.1,481.9,6324,left
38,1,binary,34,1,trial,7919984.0,7921784.0,1800.0,34,R,7920390,7920496,108,379.1,501.9,5983,left
38,1,binary,34,1,trial,7919984.0,7921784.0,1800.0,34,R,7920566,7920826,262,1329.7,520.8,5332,right
38,1,binary,34,1,trial,7919984.0,7921784.0,1800.0,34,R,7920846,7921026,182,1386.2,452.8,4919,right
38,1,binary,34,1,trial,7919984.0,7921784.0,1800.0,34,R,7921048,7921172,126,1341.6,534.0,4819,right
38,1,binary,34,1,trial,7919984.0,7921784.0,1800.0,34,R,7921250,7921528,280,340.5,653.7,4893,left
38,1,binary,34,1,trial,7919984.0,7921784.0,1800.0,34,R,7921556,7921818,264,317.9,522.6,4863,left
38,1,binary,34,1,trial,7919984.0,7921784.0,1800.0,34,R,7921892,7922072,182,1371.9,538.7,4750,right
38,1,binary,35,1,fixationCross,7922901.0,7924368.0,1467.0,35,R,7922228,7922234,8,716.5,444.7,5242,left
38,1,binary,35,1,fixationCross,7922901.0,7924368.0,1467.0,35,R,7922252,7922572,322,712.8,474.1,5395,left
38,1,binary,35,1,trial,7922901.0,7924368.0,1467.0,35,R,7922604,7922942,340,888.1,477.2,5797,NA
38,1,binary,35,1,trial,7922901.0,7924368.0,1467.0,35,R,7922968,7923060,94,752.8,479.3,5991,NA
38,1,binary,35,1,trial,7922901.0,7924368.0,1467.0,35,R,7923108,7923284,178,395.9,538.1,5990,left
38,1,binary,35,1,trial,7922901.0,7924368.0,1467.0,35,R,7923304,7923378,76,411.5,594.6,5721,left
38,1,binary,35,1,trial,7922901.0,7924368.0,1467.0,35,R,7923450,7923692,244,1416.6,584.4,5063,right
38,1,binary,35,1,trial,7922901.0,7924368.0,1467.0,35,R,7923710,7923878,170,1371.5,616.0,4819,right
38,1,binary,35,1,trial,7922901.0,7924368.0,1467.0,35,R,7923946,7924338,394,417.2,608.9,4921,left
38,1,binary,35,1,trial,7922901.0,7924368.0,1467.0,35,R,7924390,7924492,104,405.2,1104.6,4931,NA
38,1,binary,35,1,trial,7922901.0,7924368.0,1467.0,35,R,7924520,7924682,164,402.8,1024.0,4863,NA
38,1,binary,36,2,fixationCross,7926067.0,7927401.0,1334.0,36,R,7924778,7925178,402,779.8,516.4,5108,NA
38,1,binary,36,2,fixationCross,7926067.0,7927401.0,1334.0,36,R,7925196,7925562,368,849.2,491.3,5634,NA
38,1,binary,36,2,fixationCross,7926067.0,7927401.0,1334.0,36,R,7925584,7925748,166,766.0,492.4,5905,NA
38,1,binary,36,2,trial,7926067.0,7927401.0,1334.0,36,R,7925776,7926210,436,888.4,505.4,6061,NA
38,1,binary,36,2,trial,7926067.0,7927401.0,1334.0,36,R,7926258,7926488,232,507.7,503.4,6143,left
38,1,binary,36,2,trial,7926067.0,7927401.0,1334.0,36,R,7926514,7926650,138,484.6,607.2,5688,left
38,1,binary,36,2,trial,7926067.0,7927401.0,1334.0,36,R,7926714,7926868,156,1287.3,516.2,5166,right
38,1,binary,36,2,trial,7926067.0,7927401.0,1334.0,36,R,7926890,7927652,764,1286.7,450.8,4983,right
38,1,binary,37,1,fixationCross,7928851.0,7930552.0,1701.0,37,R,7927894,7928070,178,801.9,424.5,5503,NA
38,1,binary,37,1,fixationCross,7928851.0,7930552.0,1701.0,37,R,7928100,7928240,142,673.8,447.4,5778,left
38,1,binary,37,1,fixationCross,7928851.0,7930552.0,1701.0,37,R,7928264,7928558,296,794.3,469.4,5978,NA
38,1,binary,37,1,trial,7928851.0,7930552.0,1701.0,37,R,7928586,7928866,282,897.0,505.0,6082,NA
38,1,binary,37,1,trial,7928851.0,7930552.0,1701.0,37,R,7928898,7929006,110,786.5,487.8,6158,NA
38,1,binary,37,1,trial,7928851.0,7930552.0,1701.0,37,R,7929054,7929276,224,444.7,591.5,6097,left
38,1,binary,37,1,trial,7928851.0,7930552.0,1701.0,37,R,7929294,7929454,162,370.8,586.3,5589,left
38,1,binary,37,1,trial,7928851.0,7930552.0,1701.0,37,R,7929526,7929806,282,1339.1,568.5,4796,right
38,1,binary,37,1,trial,7928851.0,7930552.0,1701.0,37,R,7929820,7929966,148,1374.6,579.2,4479,right
38,1,binary,37,1,trial,7928851.0,7930552.0,1701.0,37,R,7929988,7930098,112,1356.9,629.8,4387,right
38,1,binary,37,1,trial,7928851.0,7930552.0,1701.0,37,R,7930180,7930400,222,306.2,652.1,4446,left
38,1,binary,37,1,trial,7928851.0,7930552.0,1701.0,37,R,7930452,7930636,186,365.5,1019.2,4522,NA
38,1,binary,37,1,trial,7928851.0,7930552.0,1701.0,37,R,7930690,7930866,178,351.9,562.2,4594,left
38,1,binary,38,2,fixationCross,7931735.0,7934951.0,3216.0,38,R,7931068,7931416,350,673.1,518.6,5233,left
38,1,binary,38,2,fixationCross,7931735.0,7934951.0,3216.0,38,R,7931456,7931654,200,903.4,512.1,5633,NA
38,1,binary,38,2,trial,7931735.0,7934951.0,3216.0,38,R,7931674,7931874,202,831.2,515.8,5816,NA
38,1,binary,38,2,trial,7931735.0,7934951.0,3216.0,38,R,7931924,7932084,162,455.2,495.5,5918,left
38,1,binary,38,2,trial,7931735.0,7934951.0,3216.0,38,R,7932120,7932268,150,415.0,634.9,5693,left
38,1,binary,38,2,trial,7931735.0,7934951.0,3216.0,38,R,7932278,7932582,306,435.4,642.5,5439,left
38,1,binary,38,2,trial,7931735.0,7934951.0,3216.0,38,R,7932598,7932868,272,457.8,604.2,5238,left
38,1,binary,38,2,trial,7931735.0,7934951.0,3216.0,38,R,7932892,7933018,128,550.3,580.8,5234,left
38,1,binary,38,2,trial,7931735.0,7934951.0,3216.0,38,R,7933080,7933522,444,1314.6,524.6,5152,right
38,1,binary,38,2,trial,7931735.0,7934951.0,3216.0,38,R,7933588,7933886,300,520.4,565.6,5429,left
38,1,binary,38,2,trial,7931735.0,7934951.0,3216.0,38,R,7933950,7934184,236,1369.5,600.4,5178,right
38,1,binary,38,2,trial,7931735.0,7934951.0,3216.0,38,R,7934254,7934550,298,400.6,600.2,5410,left
38,1,binary,38,2,trial,7931735.0,7934951.0,3216.0,38,R,7934622,7934778,158,1440.9,628.2,5077,right
38,1,binary,38,2,trial,7931735.0,7934951.0,3216.0,38,R,7934802,7935202,402,1563.1,636.9,4999,right
38,1,binary,39,2,fixationCross,7935885.0,7938984.0,3099.0,39,R,7935378,7935380,4,1163.4,431.2,5228,NA
38,1,binary,39,2,fixationCross,7935885.0,7938984.0,3099.0,39,R,7935394,7935588,196,1153.0,468.8,5165,NA
38,1,binary,39,2,trial,7935885.0,7938984.0,3099.0,39,R,7935628,7935894,268,891.9,500.4,5544,NA
38,1,binary,39,2,trial,7935885.0,7938984.0,3099.0,39,R,7935904,7936028,126,893.9,530.5,5703,NA
38,1,binary,39,2,trial,7935885.0,7938984.0,3099.0,39,R,7936080,7936332,254,437.5,526.1,5792,left
38,1,binary,39,2,trial,7935885.0,7938984.0,3099.0,39,R,7936396,7936658,264,1208.9,528.5,5325,right
38,1,binary,39,2,trial,7935885.0,7938984.0,3099.0,39,R,7936680,7936822,144,1316.8,538.2,5265,right
38,1,binary,39,2,trial,7935885.0,7938984.0,3099.0,39,R,7936854,7937416,564,1455.1,570.1,5326,right
38,1,binary,39,2,trial,7935885.0,7938984.0,3099.0,39,R,7937468,7937520,54,1333.5,945.7,5388,NA
38,1,binary,39,2,trial,7935885.0,7938984.0,3099.0,39,R,7937596,7937850,256,397.8,539.2,5520,left
38,1,binary,39,2,trial,7935885.0,7938984.0,3099.0,39,R,7937868,7938010,144,453.2,523.1,5497,left
38,1,binary,39,2,trial,7935885.0,7938984.0,3099.0,39,R,7938082,7938520,440,1448.2,627.0,5225,right
38,1,binary,39,2,trial,7935885.0,7938984.0,3099.0,39,R,7938590,7938708,120,854.5,1000.1,5724,likertHorizontal
38,1,binary,39,2,trial,7935885.0,7938984.0,3099.0,39,R,7938734,7938920,188,919.6,939.0,5882,likertHorizontal
38,1,binary,39,2,postResponse,7935885.0,7938984.0,3099.0,39,R,7938968,7939316,350,1376.5,938.0,5975,NA
38,1,binary,40,1,fixationCross,7939901.0,7941618.0,1717.0,40,R,7939416,7939794,380,942.8,529.8,6309,NA
38,1,binary,40,1,trial,7939901.0,7941618.0,1717.0,40,R,7939808,7940046,240,896.4,523.5,6455,NA
38,1,binary,40,1,trial,7939901.0,7941618.0,1717.0,40,R,7940208,7940332,126,461.1,572.8,6400,left
38,1,binary,40,1,trial,7939901.0,7941618.0,1717.0,40,R,7940366,7940500,136,577.1,537.0,6196,left
38,1,binary,40,1,trial,7939901.0,7941618.0,1717.0,40,R,7940534,7940706,174,409.9,584.7,5883,left
38,1,binary,40,1,trial,7939901.0,7941618.0,1717.0,40,R,7940772,7941020,250,1348.3,630.4,5198,right
38,1,binary,40,1,trial,7939901.0,7941618.0,1717.0,40,R,7941056,7941134,80,1402.4,487.9,4991,right
38,1,binary,40,1,trial,7939901.0,7941618.0,1717.0,40,R,7941208,7941420,214,402.8,502.5,5037,left
38,1,binary,40,1,trial,7939901.0,7941618.0,1717.0,40,R,7941452,7941640,190,370.7,641.3,4980,left
38,1,binary,40,1,postResponse,7939901.0,7941618.0,1717.0,40,R,7941658,7941952,296,372.4,592.1,5002,left
38,1,binary,41,1,fixationCross,7942685.0,7944618.0,1933.0,41,R,7942044,7942366,324,691.1,470.5,5239,left
38,1,binary,41,1,trial,7942685.0,7944618.0,1933.0,41,R,7942400,7942738,340,884.3,515.5,5645,NA
38,1,binary,41,1,trial,7942685.0,7944618.0,1933.0,41,R,7942758,7942842,86,845.7,491.5,5851,NA
38,1,binary,41,1,trial,7942685.0,7944618.0,1933.0,41,R,7942892,7943110,220,426.8,507.6,5979,left
38,1,binary,41,1,trial,7942685.0,7944618.0,1933.0,41,R,7943190,7943408,220,1391.1,586.9,5434,right
38,1,binary,41,1,trial,7942685.0,7944618.0,1933.0,41,R,7943422,7943534,114,1346.7,600.3,5162,right
38,1,binary,41,1,trial,7942685.0,7944618.0,1933.0,41,R,7943566,7943744,180,1517.6,567.8,4945,right
38,1,binary,41,1,trial,7942685.0,7944618.0,1933.0,41,R,7943826,7944404,580,392.5,469.5,5120,left
38,1,binary,41,1,postResponse,7942685.0,7944618.0,1933.0,41,R,7944418,7944952,536,437.3,479.2,5302,left
38,1,binary,42,2,fixationCross,7945701.0,7947201.0,1500.0,42,R,7945026,7945312,288,654.4,433.7,5310,left
38,1,binary,42,2,fixationCross,7945701.0,7947201.0,1500.0,42,R,7945422,7945658,238,909.3,539.9,5583,NA
38,1,binary,42,2,trial,7945701.0,7947201.0,1500.0,42,R,7945670,7945838,170,876.8,510.2,5753,NA
38,1,binary,42,2,trial,7945701.0,7947201.0,1500.0,42,R,7945890,7946090,202,429.8,480.9,5966,left
38,1,binary,42,2,trial,7945701.0,7947201.0,1500.0,42,R,7946164,7946518,356,1358.7,508.7,5372,right
38,1,binary,42,2,trial,7945701.0,7947201.0,1500.0,42,R,7946534,7946702,170,1394.8,478.7,5154,right
38,1,binary,42,2,trial,7945701.0,7947201.0,1500.0,42,R,7946734,7947006,274,1560.2,529.1,4984,right
38,1,binary,42,2,trial,7945701.0,7947201.0,1500.0,42,R,7947052,7947132,82,1454.3,810.1,4983,NA
38,1,binary,42,2,postResponse,7945701.0,7947201.0,1500.0,42,R,7947182,7947536,356,1497.2,465.1,4903,right
38,1,binary,43,2,fixationCross,7948318.0,7949901.0,1583.0,43,R,7947696,7947990,296,797.6,420.2,5271,NA
38,1,binary,43,2,trial,7948318.0,7949901.0,1583.0,43,R,7948026,7948458,434,890.9,495.4,5722,NA
38,1,binary,43,2,trial,7948318.0,7949901.0,1583.0,43,R,7948506,7948722,218,532.5,466.2,5939,left
38,1,binary,43,2,trial,7948318.0,7949901.0,1583.0,43,R,7948736,7948910,176,495.0,487.9,5696,left
38,1,binary,43,2,trial,7948318.0,7949901.0,1583.0,43,R,7948976,7949310,336,1319.5,631.2,5295,right
38,1,binary,43,2,trial,7948318.0,7949901.0,1583.0,43,R,7949342,7949510,170,1564.1,595.0,4950,right
38,1,binary,43,2,trial,7948318.0,7949901.0,1583.0,43,R,7949530,7949774,246,1497.6,660.9,4700,right
38,1,binary,43,2,trial,7948318.0,7949901.0,1583.0,43,R,7949838,7949968,132,1645.9,628.9,4547,right
38,1,binary,43,2,postResponse,7948318.0,7949901.0,1583.0,43,R,7949992,7950234,244,1506.2,614.3,4677,right
38,1,binary,44,1,fixationCross,7951068.0,7952518.0,1450.0,44,R,7950334,7950500,168,1493.9,603.2,4977,right
38,1,binary,44,1,fixationCross,7951068.0,7952518.0,1450.0,44,R,7950548,7950754,208,1154.1,483.9,5389,NA
38,1,binary,44,1,fixationCross,7951068.0,7952518.0,1450.0,44,R,7950796,7951006,212,903.2,498.6,5672,NA
38,1,binary,44,1,trial,7951068.0,7952518.0,1450.0,44,R,7951038,7951208,172,754.0,485.2,5741,NA
38,1,binary,44,1,trial,7951068.0,7952518.0,1450.0,44,R,7951252,7951434,184,471.5,508.4,5801,left
38,1,binary,44,1,trial,7951068.0,7952518.0,1450.0,44,R,7951452,7951640,190,473.9,561.2,5605,left
38,1,binary,44,1,trial,7951068.0,7952518.0,1450.0,44,R,7951734,7951904,172,1389.9,504.8,5251,right
38,1,binary,44,1,trial,7951068.0,7952518.0,1450.0,44,R,7951924,7952044,122,1328.1,474.3,5164,right
38,1,binary,44,1,trial,7951068.0,7952518.0,1450.0,44,R,7952114,7952418,306,503.9,539.6,5091,left
38,1,binary,44,1,trial,7951068.0,7952518.0,1450.0,44,R,7952440,7952748,310,404.8,572.3,5152,left
38,1,binary,45,1,fixationCross,7953534.0,7954851.0,1317.0,45,R,7952956,7952968,14,676.9,444.3,5599,left
38,1,binary,45,1,fixationCross,7953534.0,7954851.0,1317.0,45,R,7952986,7953212,228,678.5,461.6,5571,left
38,1,binary,45,1,fixationCross,7953534.0,7954851.0,1317.0,45,R,7953250,7953402,154,877.5,514.9,5740,NA
38,1,binary,45,1,trial,7953534.0,7954851.0,1317.0,45,R,7953418,7953654,238,926.9,514.7,5828,NA
38,1,binary,45,1,trial,7953534.0,7954851.0,1317.0,45,R,7953704,7953844,142,517.4,491.5,5889,left
38,1,binary,45,1,trial,7953534.0,7954851.0,1317.0,45,R,7953868,7954078,212,375.8,457.4,5520,left
38,1,binary,45,1,trial,7953534.0,7954851.0,1317.0,45,R,7954146,7954456,312,1310.3,539.3,4833,right
38,1,binary,45,1,trial,7953534.0,7954851.0,1317.0,45,R,7954530,7954880,352,379.3,552.9,4849,left
38,1,binary,45,1,postResponse,7953534.0,7954851.0,1317.0,45,R,7954904,7955184,282,385.6,445.1,5101,left
38,1,binary,46,1,fixationCross,7956301.0,7957751.0,1450.0,46,R,7955266,7955670,406,706.1,485.1,5549,left
38,1,binary,46,1,fixationCross,7956301.0,7957751.0,1450.0,46,R,7955690,7956016,328,813.1,481.1,5875,NA
38,1,binary,46,1,fixationCross,7956301.0,7957751.0,1450.0,46,R,7956036,7956204,170,906.6,503.3,5969,NA
38,1,binary,46,1,trial,7956301.0,7957751.0,1450.0,46,R,7956250,7956460,212,628.1,472.8,6016,left
38,1,binary,46,1,trial,7956301.0,7957751.0,1450.0,46,R,7956494,7956694,202,440.8,494.4,6031,left
38,1,binary,46,1,trial,7956301.0,7957751.0,1450.0,46,R,7956762,7957000,240,1343.4,589.4,5426,right
38,1,binary,46,1,trial,7956301.0,7957751.0,1450.0,46,R,7957018,7957190,174,1334.0,636.6,5172,right
38,1,binary,46,1,trial,7956301.0,7957751.0,1450.0,46,R,7957256,7957498,244,457.5,525.8,4924,left
38,1,binary,46,1,trial,7956301.0,7957751.0,1450.0,46,R,7957518,7958022,506,446.3,456.7,4905,left
38,1,binary,47,1,fixationCross,7958968.0,7960435.0,1467.0,47,R,7958210,7958650,442,789.2,479.1,5724,NA
38,1,binary,47,1,fixationCross,7958968.0,7960435.0,1467.0,47,R,7958676,7958862,188,890.8,513.4,6030,NA
38,1,binary,47,1,trial,7958968.0,7960435.0,1467.0,47,R,7958908,7959140,234,564.5,469.8,6099,left
38,1,binary,47,1,trial,7958968.0,7960435.0,1467.0,47,R,7959168,7959382,216,486.2,568.1,6015,left
38,1,binary,47,1,trial,7958968.0,7960435.0,1467.0,47,R,7959448,7959654,208,1329.5,580.7,5237,right
38,1,binary,47,1,trial,7958968.0,7960435.0,1467.0,47,R,7959672,7959894,224,1303.3,519.4,4968,right
38,1,binary,47,1,trial,7958968.0,7960435.0,1467.0,47,R,7959956,7960362,408,502.8,577.7,5037,left
38,1,binary,47,1,trial,7958968.0,7960435.0,1467.0,47,R,7960376,7960712,338,457.7,582.4,5257,left
38,1,binary,48,1,fixationCross,7961568.0,7962802.0,1234.0,48,R,7960922,7961154,234,1181.8,542.8,5663,NA
38,1,binary,48,1,fixationCross,7961568.0,7962802.0,1234.0,48,R,7961200,7961328,130,805.9,542.9,6026,NA
38,1,binary,48,1,trial,7961568.0,7962802.0,1234.0,48,R,7961354,7961586,234,917.0,527.7,6158,NA
38,1,binary,48,1,trial,7961568.0,7962802.0,1234.0,48,R,7961602,7961706,106,875.2,517.9,6201,NA
38,1,binary,48,1,trial,7961568.0,7962802.0,1234.0,48,R,7961758,7962008,252,477.4,499.0,6129,left
38,1,binary,48,1,trial,7961568.0,7962802.0,1234.0,48,R,7962018,7962098,82,463.2,521.1,5661,left
38,1,binary,48,1,trial,7961568.0,7962802.0,1234.0,48,R,7962168,7962358,192,1398.2,602.7,4967,right
38,1,binary,48,1,trial,7961568.0,7962802.0,1234.0,48,R,7962374,7962470,98,1448.6,587.2,4699,right
38,1,binary,48,1,trial,7961568.0,7962802.0,1234.0,48,R,7962546,7962718,174,411.1,554.0,4801,left
38,1,binary,48,1,postResponse,7961568.0,7962802.0,1234.0,48,R,7962744,7963136,394,319.3,599.2,4901,left
38,1,binary,49,1,fixationCross,7963901.0,7965502.0,1601.0,49,R,7963210,7963266,58,324.3,587.3,5001,left
38,1,binary,49,1,fixationCross,7963901.0,7965502.0,1601.0,49,R,7963302,7963586,286,515.3,531.3,5312,left
38,1,binary,49,1,trial,7963901.0,7965502.0,1601.0,49,R,7963630,7963938,310,912.2,506.2,5720,NA
38,1,binary,49,1,trial,7963901.0,7965502.0,1601.0,49,R,7963976,7964048,74,733.0,466.6,5940,left
38,1,binary,49,1,trial,7963901.0,7965502.0,1601.0,49,R,7964092,7964342,252,425.4,504.6,5925,left
38,1,binary,49,1,trial,7963901.0,7965502.0,1601.0,49,R,7964358,7964478,122,436.4,461.0,5639,left
38,1,binary,49,1,trial,7963901.0,7965502.0,1601.0,49,R,7964550,7964672,124,1381.1,574.1,5239,right
38,1,binary,49,1,trial,7963901.0,7965502.0,1601.0,49,R,7964742,7965006,266,478.3,509.0,5226,left
38,1,binary,49,1,trial,7963901.0,7965502.0,1601.0,49,R,7965018,7965270,254,427.1,503.8,5175,left
38,1,binary,49,1,trial,7963901.0,7965502.0,1601.0,49,R,7965290,7965722,434,407.1,447.8,5009,left
38,1,binary,50,1,fixationCross,7967418.0,7969034.0,1616.0,50,R,7965910,7966128,220,1111.3,460.4,4955,NA
38,1,binary,50,1,fixationCross,7967418.0,7969034.0,1616.0,50,R,7966170,7967184,1016,841.8,475.9,5809,NA
38,1,binary,50,1,trial,7967418.0,7969034.0,1616.0,50,R,7967202,7967564,364,907.3,497.2,6072,NA
38,1,binary,50,1,trial,7967418.0,7969034.0,1616.0,50,R,7967612,7967826,216,492.8,489.7,6080,left
38,1,binary,50,1,trial,7967418.0,7969034.0,1616.0,50,R,7967862,7968062,202,387.0,638.9,5485,left
38,1,binary,50,1,trial,7967418.0,7969034.0,1616.0,50,R,7968132,7968382,252,1310.1,569.5,4904,right
38,1,binary,50,1,trial,7967418.0,7969034.0,1616.0,50,R,7968398,7968588,192,1253.6,560.6,4739,right
38,1,binary,50,1,trial,7967418.0,7969034.0,1616.0,50,R,7968680,7968930,252,304.5,768.6,5019,NA
38,1,binary,50,1,trial,7967418.0,7969034.0,1616.0,50,R,7968958,7969266,310,339.5,626.3,5120,left
38,2,continuous,1,50,fixationCross,8035269.0,8037786.0,2517.0,51,R,8034502,8034586,86,938.4,854.1,6169,likertHorizontal
38,2,continuous,1,50,fixationCross,8035269.0,8037786.0,2517.0,51,R,8034596,8034762,168,911.7,870.7,6141,likertHorizontal
38,2,continuous,1,50,fixationCross,8035269.0,8037786.0,2517.0,51,R,8034788,8034952,166,1021.5,861.9,6155,likertHorizontal
38,2,continuous,1,50,fixationCross,8035269.0,8037786.0,2517.0,51,R,8034998,8035182,186,956.2,532.9,6164,NA
38,2,continuous,1,50,trial,8035269.0,8037786.0,2517.0,51,R,8035194,8035340,148,929.3,535.6,6238,NA
38,2,continuous,1,50,trial,8035269.0,8037786.0,2517.0,51,R,8035370,8035516,148,1066.0,522.5,6294,NA
38,2,continuous,1,50,trial,8035269.0,8037786.0,2517.0,51,R,8035574,8035972,400,485.0,559.8,6022,left
38,2,continuous,1,50,trial,8035269.0,8037786.0,2517.0,51,R,8035996,8036272,278,356.1,603.2,5356,left
38,2,continuous,1,50,trial,8035269.0,8037786.0,2517.0,51,R,8036306,8036402,98,571.3,578.0,5191,left
38,2,continuous,1,50,trial,8035269.0,8037786.0,2517.0,51,R,8036466,8036686,222,1411.6,567.4,4944,right
38,2,continuous,1,50,trial,8035269.0,8037786.0,2517.0,51,R,8036710,8036892,184,1477.8,493.0,4864,right
38,2,continuous,1,50,trial,8035269.0,8037786.0,2517.0,51,R,8036964,8037122,160,767.0,993.7,5173,likertHorizontal
38,2,continuous,1,50,trial,8035269.0,8037786.0,2517.0,51,R,8037148,8037278,132,882.6,989.1,5276,likertHorizontal
38,2,continuous,1,50,trial,8035269.0,8037786.0,2517.0,51,R,8037328,8037534,208,446.5,1026.9,5426,NA
38,2,continuous,1,50,trial,8035269.0,8037786.0,2517.0,51,R,8037570,8037700,132,635.3,880.7,5498,NA
38,2,continuous,1,50,postResponse,8035269.0,8037786.0,2517.0,51,R,8037736,8038126,392,880.8,968.6,5670,likertHorizontal
38,2,continuous,1,50,postResponse,8035269.0,8037786.0,2517.0,51,R,8038170,8038216,48,1270.2,835.5,5779,NA
38,2,continuous,2,71,fixationCross,8038936.0,8042002.0,3066.0,52,R,8038290,8038408,120,1273.9,837.5,5957,NA
38,2,continuous,2,71,fixationCross,8038936.0,8042002.0,3066.0,52,R,8038450,8038608,160,1579.6,898.5,6089,NA
38,2,continuous,2,71,fixationCross,8038936.0,8042002.0,3066.0,52,R,8038676,8038882,208,929.8,573.2,6513,NA
38,2,continuous,2,71,trial,8038936.0,8042002.0,3066.0,52,R,8039010,8039138,130,915.2,543.2,6695,NA
38,2,continuous,2,71,trial,8038936.0,8042002.0,3066.0,52,R,8039382,8039408,28,694.9,958.3,6866,NA
38,2,continuous,2,71,trial,8038936.0,8042002.0,3066.0,52,R,8039436,8039722,288,824.3,991.5,6612,likertHorizontal
38,2,continuous,2,71,trial,8038936.0,8042002.0,3066.0,52,R,8039782,8039946,166,453.4,460.9,6273,left
38,2,continuous,2,71,trial,8038936.0,8042002.0,3066.0,52,R,8039964,8040070,108,480.7,514.7,6183,left
38,2,continuous,2,71,trial,8038936.0,8042002.0,3066.0,52,R,8040142,8040342,202,1488.3,555.1,5783,right
38,2,continuous,2,71,trial,8038936.0,8042002.0,3066.0,52,R,8040366,8040502,138,1433.8,585.2,5637,right
38,2,continuous,2,71,trial,8038936.0,8042002.0,3066.0,52,R,8040570,8040802,234,464.2,575.9,5574,left
38,2,continuous,2,71,trial,8038936.0,8042002.0,3066.0,52,R,8040834,8041054,222,450.0,689.9,5375,left
38,2,continuous,2,71,trial,8038936.0,8042002.0,3066.0,52,R,8041096,8041256,162,484.8,469.5,5442,left
38,2,continuous,2,71,trial,8038936.0,8042002.0,3066.0,52,R,8041316,8041554,240,1099.7,954.8,5588,likertHorizontal
38,2,continuous,2,71,trial,8038936.0,8042002.0,3066.0,52,R,8041596,8041754,160,1403.6,1043.8,5822,NA
38,2,continuous,2,71,trial,8038936.0,8042002.0,3066.0,52,R,8041790,8041904,116,1174.4,973.7,6043,likertHorizontal
38,2,continuous,2,71,postResponse,8038936.0,8042002.0,3066.0,52,R,8041952,8042336,386,1436.3,555.0,6000,right
38,2,continuous,3,77,fixationCross,8043069.0,8046236.0,3167.0,53,R,8042410,8042764,356,1138.6,537.1,6121,NA
38,2,continuous,3,77,trial,8043069.0,8046236.0,3167.0,53,R,8042802,8043208,408,946.5,545.8,6501,NA
38,2,continuous,3,77,trial,8043069.0,8046236.0,3167.0,53,R,8043262,8043416,156,494.1,522.9,6551,left
38,2,continuous,3,77,trial,8043069.0,8046236.0,3167.0,53,R,8043430,8043612,184,445.5,539.5,6199,left
38,2,continuous,3,77,trial,8043069.0,8046236.0,3167.0,53,R,8043706,8043870,166,1414.8,586.3,5574,right
38,2,continuous,3,77,trial,8043069.0,8046236.0,3167.0,53,R,8043884,8043990,108,1388.2,624.9,5392,right
38,2,continuous,3,77,trial,8043069.0,8046236.0,3167.0,53,R,8044058,8044440,384,433.9,552.3,5260,left
38,2,continuous,3,77,trial,8043069.0,8046236.0,3167.0,53,R,8044514,8044700,188,1432.1,557.0,5010,right
38,2,continuous,3,77,trial,8043069.0,8046236.0,3167.0,53,R,8044722,8045102,382,1404.6,625.0,4935,right
38,2,continuous,3,77,trial,8043069.0,8046236.0,3167.0,53,R,8045152,8045482,332,1183.0,963.1,5068,likertHorizontal
38,2,continuous,3,77,trial,8043069.0,8046236.0,3167.0,53,R,8045516,8045660,146,1353.0,1000.8,5175,NA
38,2,continuous,3,77,trial,8043069.0,8046236.0,3167.0,53,R,8045694,8045800,108,1171.2,967.2,5460,likertHorizontal
38,2,continuous,3,77,trial,8043069.0,8046236.0,3167.0,53,R,8045848,8046106,260,1475.6,644.3,5480,right
38,2,continuous,3,77,trial,8043069.0,8046236.0,3167.0,53,R,8046130,8046514,386,1365.2,603.0,5538,right
38,2,continuous,4,18,fixationCross,8047269.0,8049770.0,2501.0,54,R,8046716,8046970,256,830.4,509.1,5714,NA
38,2,continuous,4,18,fixationCross,8047269.0,8049770.0,2501.0,54,R,8046998,8047168,172,940.2,540.9,5949,NA
38,2,continuous,4,18,trial,8047269.0,8049770.0,2501.0,54,R,8047182,8047408,228,894.7,514.5,6107,NA
38,2,continuous,4,18,trial,8047269.0,8049770.0,2501.0,54,R,8047458,8047614,158,513.7,510.3,6179,left
38,2,continuous,4,18,trial,8047269.0,8049770.0,2501.0,54,R,8047640,8047770,132,487.6,573.4,5974,left
38,2,continuous,4,18,trial,8047269.0,8049770.0,2501.0,54,R,8047838,8048056,220,1389.3,566.7,5395,right
38,2,continuous,4,18,trial,8047269.0,8049770.0,2501.0,54,R,8048076,8048348,274,1429.3,510.0,5034,right
38,2,continuous,4,18,trial,8047269.0,8049770.0,2501.0,54,R,8048420,8048642,224,429.1,567.8,5074,left
38,2,continuous,4,18,trial,8047269.0,8049770.0,2501.0,54,R,8048692,8048848,158,638.0,936.0,5127,NA
38,2,continuous,4,18,trial,8047269.0,8049770.0,2501.0,54,R,8048896,8049108,214,415.4,679.3,5019,left
38,2,continuous,4,18,trial,8047269.0,8049770.0,2501.0,54,R,8049140,8049282,144,540.8,780.8,5103,NA
38,2,continuous,4,18,trial,8047269.0,8049770.0,2501.0,54,R,8049320,8049538,220,592.0,987.7,5368,NA
38,2,continuous,4,18,trial,8047269.0,8049770.0,2501.0,54,R,8049548,8049678,132,546.1,981.4,5447,NA
38,2,continuous,4,18,trial,8047269.0,8049770.0,2501.0,54,R,8049724,8050016,294,477.5,612.2,5508,left
38,2,continuous,4,18,postResponse,8047269.0,8049770.0,2501.0,54,R,8050058,8050104,48,794.4,538.1,5525,NA
38,2,continuous,5,82,fixationCross,8050869.0,8052635.0,1766.0,55,R,8050178,8050570,394,802.9,526.6,5645,NA
38,2,continuous,5,82,trial,8050869.0,8052635.0,1766.0,55,R,8050592,8051008,418,925.9,504.5,6151,NA
38,2,continuous,5,82,trial,8050869.0,8052635.0,1766.0,55,R,8051056,8051262,208,519.8,484.4,6299,left
38,2,continuous,5,82,trial,8050869.0,8052635.0,1766.0,55,R,8051292,8051504,214,475.9,400.7,5786,left
38,2,continuous,5,82,trial,8050869.0,8052635.0,1766.0,55,R,8051572,8051770,200,1345.4,541.9,5189,right
38,2,continuous,5,82,trial,8050869.0,8052635.0,1766.0,55,R,8051800,8052096,298,1290.9,636.7,5102,right
38,2,continuous,5,82,trial,8050869.0,8052635.0,1766.0,55,R,8052122,8052330,210,1324.6,784.8,5367,NA
38,2,continuous,5,82,trial,8050869.0,8052635.0,1766.0,55,R,8052366,8052930,566,1418.1,576.0,5474,right
38,2,continuous,6,73,fixationCross,8053719.0,8057269.0,3550.0,56,R,8053162,8053424,264,780.8,488.9,5875,NA
38,2,continuous,6,73,fixationCross,8053719.0,8057269.0,3550.0,56,R,8053452,8053670,220,924.9,524.9,6131,NA
38,2,continuous,6,73,trial,8053719.0,8057269.0,3550.0,56,R,8053692,8053862,172,809.4,488.7,6243,NA
38,2,continuous,6,73,trial,8053719.0,8057269.0,3550.0,56,R,8053906,8054182,278,492.2,519.7,6174,left
38,2,continuous,6,73,trial,8053719.0,8057269.0,3550.0,56,R,8054206,8054462,258,446.4,443.5,5551,left
38,2,continuous,6,73,trial,8053719.0,8057269.0,3550.0,56,R,8054534,8054780,248,1424.0,569.1,5069,right
38,2,continuous,6,73,trial,8053719.0,8057269.0,3550.0,56,R,8054802,8054866,66,1419.8,649.2,5065,right
38,2,continuous,6,73,trial,8053719.0,8057269.0,3550.0,56,R,8054938,8055298,362,417.3,521.5,5276,left
38,2,continuous,6,73,trial,8053719.0,8057269.0,3550.0,56,R,8055322,8055816,496,480.7,448.4,5000,left
38,2,continuous,6,73,trial,8053719.0,8057269.0,3550.0,56,R,8055888,8056220,334,1445.2,612.0,4507,right
38,2,continuous,6,73,trial,8053719.0,8057269.0,3550.0,56,R,8056270,8056414,146,1161.5,938.1,4796,likertHorizontal
38,2,continuous,6,73,trial,8053719.0,8057269.0,3550.0,56,R,8056440,8056608,170,1081.7,1001.4,4983,likertHorizontal
38,2,continuous,6,73,trial,8053719.0,8057269.0,3550.0,56,R,8056646,8056816,172,1348.4,1003.2,5121,NA
38,2,continuous,6,73,trial,8053719.0,8057269.0,3550.0,56,R,8056850,8057528,680,1126.3,963.8,5471,likertHorizontal
38,2,continuous,7,86,fixationCross,8058603.0,8061270.0,2667.0,57,R,8057692,8057710,20,838.4,402.9,5668,NA
38,2,continuous,7,86,fixationCross,8058603.0,8061270.0,2667.0,57,R,8057726,8058300,576,829.0,423.7,5771,NA
38,2,continuous,7,86,fixationCross,8058603.0,8061270.0,2667.0,57,R,8058330,8058548,220,918.9,490.1,5926,NA
38,2,continuous,7,86,trial,8058603.0,8061270.0,2667.0,57,R,8058570,8058746,178,879.1,533.0,6065,NA
38,2,continuous,7,86,trial,8058603.0,8061270.0,2667.0,57,R,8058796,8058978,184,443.0,525.2,6196,left
38,2,continuous,7,86,trial,8058603.0,8061270.0,2667.0,57,R,8058998,8059126,130,418.6,570.5,5961,left
38,2,continuous,7,86,trial,8058603.0,8061270.0,2667.0,57,R,8059200,8059672,474,1448.5,611.7,5124,right
38,2,continuous,7,86,trial,8058603.0,8061270.0,2667.0,57,R,8059730,8059980,252,1095.4,961.8,5244,likertHorizontal
38,2,continuous,7,86,trial,8058603.0,8061270.0,2667.0,57,R,8060018,8060174,158,1333.9,1011.3,5392,NA
38,2,continuous,7,86,trial,8058603.0,8061270.0,2667.0,57,R,8060212,8060490,280,1110.3,966.6,5615,likertHorizontal
38,2,continuous,7,86,trial,8058603.0,8061270.0,2667.0,57,R,8060508,8060708,202,1201.1,964.2,5760,NA
38,2,continuous,7,86,trial,8058603.0,8061270.0,2667.0,57,R,8060728,8060974,248,1274.6,969.9,5813,NA
38,2,continuous,7,86,trial,8058603.0,8061270.0,2667.0,57,R,8061016,8061186,172,1382.3,776.6,5782,NA
38,2,continuous,7,86,trial,8058603.0,8061270.0,2667.0,57,R,8061224,8061524,302,1450.7,590.8,5784,right
38,2,continuous,8,10,fixationCross,8062336.0,8064286.0,1950.0,58,R,8061684,8062034,352,638.4,542.3,6106,left
38,2,continuous,8,10,trial,8062336.0,8064286.0,1950.0,58,R,8062070,8062484,416,893.2,527.1,6252,NA
38,2,continuous,8,10,trial,8062336.0,8064286.0,1950.0,58,R,8062532,8062730,200,556.2,470.2,6330,left
38,2,continuous,8,10,trial,8062336.0,8064286.0,1950.0,58,R,8062746,8062910,166,498.9,471.0,6012,left
38,2,continuous,8,10,trial,8062336.0,8064286.0,1950.0,58,R,8062978,8063310,334,1412.1,527.9,5225,right
38,2,continuous,8,10,trial,8062336.0,8064286.0,1950.0,58,R,8063384,8063532,150,438.6,601.1,5166,left
38,2,continuous,8,10,trial,8062336.0,8064286.0,1950.0,58,R,8063580,8064024,446,523.9,994.9,5412,NA
38,2,continuous,8,10,trial,8062336.0,8064286.0,1950.0,58,R,8064078,8064520,444,396.2,553.5,5374,left
38,2,continuous,9,56,fixationCross,8065153.0,8068003.0,2850.0,59,R,8064760,8064850,92,1103.5,506.0,5145,NA
38,2,continuous,9,56,fixationCross,8065153.0,8068003.0,2850.0,59,R,8064890,8065114,226,877.4,531.8,5511,NA
38,2,continuous,9,56,trial,8065153.0,8068003.0,2850.0,59,R,8065128,8065290,164,923.6,547.6,5784,NA
38,2,continuous,9,56,trial,8065153.0,8068003.0,2850.0,59,R,8065338,8065518,182,531.1,550.2,5971,left
38,2,continuous,9,56,trial,8065153.0,8068003.0,2850.0,59,R,8065550,8065760,212,419.2,603.7,5575,left
38,2,continuous,9,56,trial,8065153.0,8068003.0,2850.0,59,R,8065778,8065970,194,463.3,586.8,5297,left
38,2,continuous,9,56,trial,8065153.0,8068003.0,2850.0,59,R,8066042,8066288,248,1363.0,587.9,4968,right
38,2,continuous,9,56,trial,8065153.0,8068003.0,2850.0,59,R,8066316,8066500,186,1506.6,537.0,4919,right
38,2,continuous,9,56,trial,8065153.0,8068003.0,2850.0,59,R,8066572,8066754,184,482.6,575.4,5172,left
38,2,continuous,9,56,trial,8065153.0,8068003.0,2850.0,59,R,8066774,8067186,414,419.8,618.5,4988,left
38,2,continuous,9,56,trial,8065153.0,8068003.0,2850.0,59,R,8067242,8067404,164,890.8,975.0,4953,likertHorizontal
38,2,continuous,9,56,trial,8065153.0,8068003.0,2850.0,59,R,8067422,8067900,480,954.9,999.7,5146,likertHorizontal
38,2,continuous,9,56,postResponse,8065153.0,8068003.0,2850.0,59,R,8067994,8068336,344,1450.9,535.1,5425,right
38,2,continuous,10,55,fixationCross,8069086.0,8072619.0,3533.0,60,R,8068486,8068778,294,765.3,565.5,5753,NA
38,2,continuous,10,55,trial,8069086.0,8072619.0,3533.0,60,R,8068808,8069220,414,900.0,524.7,6027,NA
38,2,continuous,10,55,trial,8069086.0,8072619.0,3533.0,60,R,8069268,8069456,190,503.3,506.9,6000,left
38,2,continuous,10,55,trial,8069086.0,8072619.0,3533.0,60,R,8069472,8069646,176,463.4,535.0,5598,left
38,2,continuous,10,55,trial,8069086.0,8072619.0,3533.0,60,R,8069692,8069718,28,828.3,541.0,5260,NA
38,2,continuous,10,55,trial,8069086.0,8072619.0,3533.0,60,R,8069768,8069926,160,1296.2,536.9,4947,right
38,2,continuous,10,55,trial,8069086.0,8072619.0,3533.0,60,R,8069946,8070344,400,1361.5,527.0,4921,right
38,2,continuous,10,55,trial,8069086.0,8072619.0,3533.0,60,R,8070376,8070554,180,1509.5,551.8,5081,right
38,2,continuous,10,55,trial,8069086.0,8072619.0,3533.0,60,R,8070618,8070728,112,823.9,994.7,5609,likertHorizontal
38,2,continuous,10,55,trial,8069086.0,8072619.0,3533.0,60,R,8070782,8071018,238,467.4,553.1,5592,left
38,2,continuous,10,55,trial,8069086.0,8072619.0,3533.0,60,R,8071028,8071312,286,497.2,562.4,5389,left
38,2,continuous,10,55,trial,8069086.0,8072619.0,3533.0,60,R,8071382,8071552,172,1417.5,618.3,5005,right
38,2,continuous,10,55,trial,8069086.0,8072619.0,3533.0,60,R,8071576,8071790,216,1513.2,568.3,4987,right
38,2,continuous,10,55,trial,8069086.0,8072619.0,3533.0,60,R,8071852,8072090,240,992.6,972.5,5398,likertHorizontal
38,2,continuous,10,55,trial,8069086.0,8072619.0,3533.0,60,R,8072114,8072292,180,933.5,998.4,5555,likertHorizontal
38,2,continuous,10,55,trial,8069086.0,8072619.0,3533.0,60,R,8072358,8072502,146,1439.8,457.7,5434,right
38,2,continuous,10,55,trial,8069086.0,8072619.0,3533.0,60,R,8072526,8072912,388,1382.6,514.3,5548,right
38,2,continuous,11,55,fixationCross,8073770.0,8077203.0,3433.0,61,R,8073112,8073468,358,721.4,465.4,5882,left
38,2,continuous,11,55,fixationCross,8073770.0,8077203.0,3433.0,61,R,8073504,8073748,246,918.7,526.5,6100,NA
38,2,continuous,11,55,trial,8073770.0,8077203.0,3433.0,61,R,8073788,8073934,148,718.5,448.8,6053,left
38,2,continuous,11,55,trial,8073770.0,8077203.0,3433.0,61,R,8073972,8074184,214,505.2,461.0,6046,left
38,2,continuous,11,55,trial,8073770.0,8077203.0,3433.0,61,R,8074220,8074408,190,359.1,570.0,5651,left
38,2,continuous,11,55,trial,8073770.0,8077203.0,3433.0,61,R,8074486,8074934,450,1456.4,551.7,5145,right
38,2,continuous,11,55,trial,8073770.0,8077203.0,3433.0,61,R,8075008,8075240,234,424.5,539.6,5376,left
38,2,continuous,11,55,trial,8073770.0,8077203.0,3433.0,61,R,8075298,8075482,186,857.0,972.1,5511,likertHorizontal
38,2,continuous,11,55,trial,8073770.0,8077203.0,3433.0,61,R,8075500,8075684,186,924.5,989.8,5603,likertHorizontal
38,2,continuous,11,55,trial,8073770.0,8077203.0,3433.0,61,R,8075742,8076100,360,1477.5,539.3,5621,right
38,2,continuous,11,55,trial,8073770.0,8077203.0,3433.0,61,R,8076116,8076372,258,1424.0,516.3,5751,right
38,2,continuous,11,55,trial,8073770.0,8077203.0,3433.0,61,R,8076474,8076976,504,977.4,990.8,5918,likertHorizontal
38,2,continuous,11,55,trial,8073770.0,8077203.0,3433.0,61,R,8076990,8077148,160,953.4,949.2,5832,likertHorizontal
38,2,continuous,11,55,postResponse,8073770.0,8077203.0,3433.0,61,R,8077206,8077536,332,1460.5,521.7,5702,right
38,2,continuous,12,71,fixationCross,8078687.0,8082119.0,3432.0,62,R,8077670,8077894,226,899.7,482.4,6032,NA
38,2,continuous,12,71,fixationCross,8078687.0,8082119.0,3432.0,62,R,8077930,8078166,238,728.0,485.4,6137,left
38,2,continuous,12,71,trial,8078687.0,8082119.0,3432.0,62,R,8078190,8078818,630,885.9,464.2,6365,NA
38,2,continuous,12,71,trial,8078687.0,8082119.0,3432.0,62,R,8078866,8079026,162,551.2,459.5,6533,left
38,2,continuous,12,71,trial,8078687.0,8082119.0,3432.0,62,R,8079050,8079346,298,435.6,402.0,5971,left
38,2,continuous,12,71,trial,8078687.0,8082119.0,3432.0,62,R,8079416,8079630,216,1368.9,515.9,5130,right
38,2,continuous,12,71,trial,8078687.0,8082119.0,3432.0,62,R,8079648,8079850,204,1411.4,523.8,5032,right
38,2,continuous,12,71,trial,8078687.0,8082119.0,3432.0,62,R,8079868,8080192,326,1401.6,576.0,5120,right
38,2,continuous,12,71,trial,8078687.0,8082119.0,3432.0,62,R,8080214,8080258,46,1402.6,494.9,5071,right
38,2,continuous,12,71,trial,8078687.0,8082119.0,3432.0,62,R,8080330,8080478,150,439.6,450.8,5118,left
38,2,continuous,12,71,trial,8078687.0,8082119.0,3432.0,62,R,8080492,8081084,594,398.9,435.0,4768,left
38,2,continuous,12,71,trial,8078687.0,8082119.0,3432.0,62,R,8081156,8081510,356,1395.3,563.6,4344,right
38,2,continuous,12,71,trial,8078687.0,8082119.0,3432.0,62,R,8081524,8081742,220,1412.1,532.1,4590,right
38,2,continuous,12,71,trial,8078687.0,8082119.0,3432.0,62,R,8081764,8082148,386,1382.6,595.9,4846,right
38,2,continuous,12,71,trial,8078687.0,8082119.0,3432.0,62,R,8082168,8082348,182,1394.8,539.9,4930,right
38,2,continuous,13,19,fixationCross,8083670.0,8087087.0,3417.0,63,R,8082570,8082578,10,580.3,430.1,5269,left
38,2,continuous,13,19,fixationCross,8083670.0,8087087.0,3417.0,63,R,8082600,8082898,300,569.0,470.5,5268,left
38,2,continuous,13,19,trial,8083670.0,8087087.0,3417.0,63,R,8082936,8083738,804,867.1,496.5,5730,NA
38,2,continuous,13,19,trial,8083670.0,8087087.0,3417.0,63,R,8083756,8083822,68,808.8,491.1,5906,NA
38,2,continuous,13,19,trial,8083670.0,8087087.0,3417.0,63,R,8083866,8084032,168,475.3,493.2,5938,left
38,2,continuous,13,19,trial,8083670.0,8087087.0,3417.0,63,R,8084050,8084314,266,500.6,456.8,5522,left
38,2,continuous,13,19,trial,8083670.0,8087087.0,3417.0,63,R,8084386,8084582,198,1377.6,532.0,4972,right
38,2,continuous,13,19,trial,8083670.0,8087087.0,3417.0,63,R,8084612,8084822,212,1528.0,563.7,4897,right
38,2,continuous,13,19,trial,8083670.0,8087087.0,3417.0,63,R,8084854,8084908,56,1340.8,571.0,5044,right
38,2,continuous,13,19,trial,8083670.0,8087087.0,3417.0,63,R,8084976,8085172,198,476.6,479.8,5304,left
38,2,continuous,13,19,trial,8083670.0,8087087.0,3417.0,63,R,8085186,8085320,136,485.2,446.5,5345,left
38,2,continuous,13,19,trial,8083670.0,8087087.0,3417.0,63,R,8085396,8085678,284,1512.1,572.5,5218,right
38,2,continuous,13,19,trial,8083670.0,8087087.0,3417.0,63,R,8085768,8085954,188,388.6,484.4,5427,left
38,2,continuous,13,19,trial,8083670.0,8087087.0,3417.0,63,R,8085978,8086178,202,481.1,504.7,5386,left
38,2,continuous,13,19,trial,8083670.0,8087087.0,3417.0,63,R,8086242,8086368,128,635.8,958.2,5411,NA
38,2,continuous,13,19,trial,8083670.0,8087087.0,3417.0,63,R,8086388,8086554,168,700.2,994.9,5452,NA
38,2,continuous,13,19,trial,8083670.0,8087087.0,3417.0,63,R,8086608,8086914,308,482.4,497.0,5482,left
38,2,continuous,13,19,trial,8083670.0,8087087.0,3417.0,63,R,8086956,8087300,346,492.5,404.7,5526,left
38,2,continuous,14,70,fixationCross,8088586.0,8091287.0,2701.0,64,R,8087516,8087952,438,776.2,448.3,5597,NA
38,2,continuous,14,70,fixationCross,8088586.0,8091287.0,2701.0,64,R,8087972,8088288,318,840.5,480.2,5848,NA
38,2,continuous,14,70,trial,8088586.0,8091287.0,2701.0,64,R,8088300,8088724,426,873.3,486.3,5950,NA
38,2,continuous,14,70,trial,8088586.0,8091287.0,2701.0,64,R,8088770,8089072,304,532.7,473.7,6039,left
38,2,continuous,14,70,trial,8088586.0,8091287.0,2701.0,64,R,8089088,8089238,152,488.5,521.2,5649,left
38,2,continuous,14,70,trial,8088586.0,8091287.0,2701.0,64,R,8089270,8089406,138,317.5,531.6,5438,left
38,2,continuous,14,70,trial,8088586.0,8091287.0,2701.0,64,R,8089482,8089716,236,1365.2,528.9,5135,right
38,2,continuous,14,70,trial,8088586.0,8091287.0,2701.0,64,R,8089736,8089938,204,1422.5,518.2,5051,right
38,2,continuous,14,70,trial,8088586.0,8091287.0,2701.0,64,R,8089976,8090346,372,1255.0,447.3,5137,right
38,2,continuous,14,70,trial,8088586.0,8091287.0,2701.0,64,R,8090394,8090582,190,1524.7,662.2,4891,right
38,2,continuous,14,70,trial,8088586.0,8091287.0,2701.0,64,R,8090634,8090828,196,1022.4,983.7,5235,likertHorizontal
38,2,continuous,14,70,trial,8088586.0,8091287.0,2701.0,64,R,8090884,8091046,164,1321.5,715.7,5159,right
38,2,continuous,14,70,trial,8088586.0,8091287.0,2701.0,64,R,8091110,8091518,410,488.5,576.0,5525,left
38,2,continuous,15,27,fixationCross,8092353.0,8094820.0,2467.0,65,R,8091692,8092046,356,972.7,429.3,5373,NA
38,2,continuous,15,27,fixationCross,8092353.0,8094820.0,2467.0,65,R,8092082,8092316,236,890.8,538.6,5863,NA
38,2,continuous,15,27,trial,8092353.0,8094820.0,2467.0,65,R,8092326,8092494,170,920.7,530.9,6091,NA
38,2,continuous,15,27,trial,8092353.0,8094820.0,2467.0,65,R,8092544,8092758,216,531.4,498.0,6202,left
38,2,continuous,15,27,trial,8092353.0,8094820.0,2467.0,65,R,8092794,8092938,146,437.2,591.4,5839,left
38,2,continuous,15,27,trial,8092353.0,8094820.0,2467.0,65,R,8093006,8093400,396,1368.5,569.3,5219,right
38,2,continuous,15,27,trial,8092353.0,8094820.0,2467.0,65,R,8093436,8093568,134,1345.7,422.5,5013,right
38,2,continuous,15,27,trial,8092353.0,8094820.0,2467.0,65,R,8093634,8093872,240,503.8,553.0,5092,left
38,2,continuous,15,27,trial,8092353.0,8094820.0,2467.0,65,R,8093904,8094162,260,409.2,652.6,5126,left
38,2,continuous,15,27,trial,8092353.0,8094820.0,2467.0,65,R,8094202,8094488,288,536.9,450.5,5114,left
38,2,continuous,15,27,trial,8092353.0,8094820.0,2467.0,65,R,8094548,8094666,120,612.0,1002.7,5170,NA
38,2,continuous,15,27,trial,8092353.0,8094820.0,2467.0,65,R,8094686,8094788,104,682.1,989.4,5197,NA
38,2,continuous,15,27,postResponse,8092353.0,8094820.0,2467.0,65,R,8094854,8095152,300,1405.7,541.3,5012,right
38,2,continuous,16,71,fixationCross,8095937.0,8097570.0,1633.0,66,R,8095252,8095374,124,1100.4,480.4,5317,NA
38,2,continuous,16,71,fixationCross,8095937.0,8097570.0,1633.0,66,R,8095420,8095636,218,775.4,462.0,5663,NA
38,2,continuous,16,71,fixationCross,8095937.0,8097570.0,1633.0,66,R,8095668,8095932,266,912.8,524.0,5855,NA
38,2,continuous,16,71,trial,8095937.0,8097570.0,1633.0,66,R,8095946,8096096,152,877.9,527.2,5950,NA
38,2,continuous,16,71,trial,8095937.0,8097570.0,1633.0,66,R,8096146,8096344,200,481.5,525.1,5868,left
38,2,continuous,16,71,trial,8095937.0,8097570.0,1633.0,66,R,8096366,8096524,160,369.6,484.6,5407,left
38,2,continuous,16,71,trial,8095937.0,8097570.0,1633.0,66,R,8096596,8096772,178,1380.2,522.5,4907,right
38,2,continuous,16,71,trial,8095937.0,8097570.0,1633.0,66,R,8096796,8097052,258,1267.8,501.1,4734,right
38,2,continuous,16,71,trial,8095937.0,8097570.0,1633.0,66,R,8097110,8097348,240,1110.5,939.5,4794,likertHorizontal
38,2,continuous,16,71,trial,8095937.0,8097570.0,1633.0,66,R,8097368,8097796,430,1098.2,997.4,4975,likertHorizontal
38,2,continuous,17,43,fixationCross,8098653.0,8103736.0,5083.0,67,R,8098010,8098026,18,705.9,574.5,5581,left
38,2,continuous,17,43,fixationCross,8098653.0,8103736.0,5083.0,67,R,8098038,8098330,294,702.9,615.0,5574,left
38,2,continuous,17,43,trial,8098653.0,8103736.0,5083.0,67,R,8098364,8098658,296,906.0,540.8,5772,NA
38,2,continuous,17,43,trial,8098653.0,8103736.0,5083.0,67,R,8098678,8098802,126,869.8,519.5,5780,NA
38,2,continuous,17,43,trial,8098653.0,8103736.0,5083.0,67,R,8098850,8099036,188,494.0,497.5,5794,left
38,2,continuous,17,43,trial,8098653.0,8103736.0,5083.0,67,R,8099058,8099228,172,416.3,434.0,5433,left
38,2,continuous,17,43,trial,8098653.0,8103736.0,5083.0,67,R,8099300,8099708,410,1391.9,517.0,4912,right
38,2,continuous,17,43,trial,8098653.0,8103736.0,5083.0,67,R,8099730,8099842,114,1271.9,520.9,4863,right
38,2,continuous,17,43,trial,8098653.0,8103736.0,5083.0,67,R,8099904,8100214,312,473.6,502.7,5023,left
38,2,continuous,17,43,trial,8098653.0,8103736.0,5083.0,67,R,8100236,8100870,636,385.1,437.2,5208,left
38,2,continuous,17,43,trial,8098653.0,8103736.0,5083.0,67,R,8100902,8101186,286,477.5,500.7,5482,left
38,2,continuous,17,43,trial,8098653.0,8103736.0,5083.0,67,R,8101202,8101340,140,417.5,513.2,5515,left
38,2,continuous,17,43,trial,8098653.0,8103736.0,5083.0,67,R,8101368,8101466,100,388.8,412.9,5475,left
38,2,continuous,17,43,trial,8098653.0,8103736.0,5083.0,67,R,8101534,8101894,362,1308.3,527.1,5218,right
38,2,continuous,17,43,trial,8098653.0,8103736.0,5083.0,67,R,8101950,8102080,132,936.5,950.6,5183,likertHorizontal
38,2,continuous,17,43,trial,8098653.0,8103736.0,5083.0,67,R,8102104,8102234,132,874.5,1015.2,5227,likertHorizontal
38,2,continuous,17,43,trial,8098653.0,8103736.0,5083.0,67,R,8102294,8102552,260,1398.5,575.5,5109,right
38,2,continuous,17,43,trial,8098653.0,8103736.0,5083.0,67,R,8102626,8103626,1002,837.1,999.6,5630,likertHorizontal
38,2,continuous,17,43,trial,8098653.0,8103736.0,5083.0,67,R,8103694,8104052,360,474.8,551.9,5753,left
38,2,continuous,18,37,fixationCross,8104753.0,8107570.0,2817.0,68,R,8104146,8104298,154,851.6,510.0,5621,NA
38,2,continuous,18,37,trial,8104753.0,8107570.0,2817.0,68,R,8104488,8104900,414,896.6,548.3,5867,NA
38,2,continuous,18,37,trial,8104753.0,8107570.0,2817.0,68,R,8104948,8105156,210,506.0,518.9,5917,left
38,2,continuous,18,37,trial,8104753.0,8107570.0,2817.0,68,R,8105180,8105358,180,475.3,474.8,5426,left
38,2,continuous,18,37,trial,8104753.0,8107570.0,2817.0,68,R,8105422,8105682,262,1329.3,521.8,4921,right
38,2,continuous,18,37,trial,8104753.0,8107570.0,2817.0,68,R,8105704,8105942,240,1429.1,534.7,4645,right
38,2,continuous,18,37,trial,8104753.0,8107570.0,2817.0,68,R,8105958,8106128,172,1352.7,526.7,4626,right
38,2,continuous,18,37,trial,8104753.0,8107570.0,2817.0,68,R,8106150,8106346,198,1238.1,488.1,4650,right
38,2,continuous,18,37,trial,8104753.0,8107570.0,2817.0,68,R,8106410,8106598,190,724.1,834.4,4789,NA
38,2,continuous,18,37,trial,8104753.0,8107570.0,2817.0,68,R,8106622,8106832,212,675.2,965.9,4881,NA
38,2,continuous,18,37,trial,8104753.0,8107570.0,2817.0,68,R,8106854,8107484,632,765.9,989.6,5275,likertHorizontal
38,2,continuous,18,37,trial,8104753.0,8107570.0,2817.0,68,R,8107544,8107830,288,496.4,463.3,5343,left
38,2,continuous,19,46,fixationCross,8108736.0,8111103.0,2367.0,69,R,8108018,8108234,218,932.1,413.9,5136,NA
38,2,continuous,19,46,fixationCross,8108736.0,8111103.0,2367.0,69,R,8108268,8108434,168,834.4,536.0,5381,NA
38,2,continuous,19,46,trial,8108736.0,8111103.0,2367.0,69,R,8108452,8108798,348,902.0,540.0,5615,NA
38,2,continuous,19,46,trial,8108736.0,8111103.0,2367.0,69,R,8108816,8108912,98,871.4,506.4,5842,NA
38,2,continuous,19,46,trial,8108736.0,8111103.0,2367.0,69,R,8108964,8109268,306,406.7,555.0,5793,left
38,2,continuous,19,46,trial,8108736.0,8111103.0,2367.0,69,R,8109350,8109516,168,1414.4,502.2,5080,right
38,2,continuous,19,46,trial,8108736.0,8111103.0,2367.0,69,R,8109534,8110000,468,1470.7,482.7,4908,right
38,2,continuous,19,46,trial,8108736.0,8111103.0,2367.0,69,R,8110076,8110342,268,424.0,592.2,5250,left
38,2,continuous,19,46,trial,8108736.0,8111103.0,2367.0,69,R,8110398,8110636,240,805.2,978.3,5143,likertHorizontal
38,2,continuous,19,46,trial,8108736.0,8111103.0,2367.0,69,R,8110654,8110888,236,853.4,995.4,5080,likertHorizontal
38,2,continuous,19,46,trial,8108736.0,8111103.0,2367.0,69,R,8110944,8111358,416,377.9,616.3,5182,left
38,2,continuous,19,46,postResponse,8108736.0,8111103.0,2367.0,69,R,8111408,8111438,32,865.9,518.7,5086,NA
38,2,continuous,20,40,fixationCross,8112203.0,8114637.0,2434.0,70,R,8111512,8111816,306,864.7,512.9,5077,NA
38,2,continuous,20,40,fixationCross,8112203.0,8114637.0,2434.0,70,R,8111834,8111970,138,812.3,498.8,5362,NA
38,2,continuous,20,40,trial,8112203.0,8114637.0,2434.0,70,R,8111988,8112276,290,877.6,515.1,5642,NA
38,2,continuous,20,40,trial,8112203.0,8114637.0,2434.0,70,R,8112296,8112364,70,790.8,512.3,5829,NA
38,2,continuous,20,40,trial,8112203.0,8114637.0,2434.0,70,R,8112412,8112624,214,437.9,527.3,5846,left
38,2,continuous,20,40,trial,8112203.0,8114637.0,2434.0,70,R,8112636,8112772,138,452.2,508.4,5543,left
38,2,continuous,20,40,trial,8112203.0,8114637.0,2434.0,70,R,8112842,8113046,206,1376.2,572.6,4962,right
38,2,continuous,20,40,trial,8112203.0,8114637.0,2434.0,70,R,8113070,8113318,250,1397.2,677.6,4793,right
38,2,continuous,20,40,trial,8112203.0,8114637.0,2434.0,70,R,8113330,8113450,122,1394.3,706.3,4823,right
38,2,continuous,20,40,trial,8112203.0,8114637.0,2434.0,70,R,8113522,8113740,220,413.9,614.9,4933,left
38,2,continuous,20,40,trial,8112203.0,8114637.0,2434.0,70,R,8113772,8114018,248,418.3,511.5,4794,left
38,2,continuous,20,40,trial,8112203.0,8114637.0,2434.0,70,R,8114038,8114280,244,370.8,452.9,4607,left
38,2,continuous,20,40,trial,8112203.0,8114637.0,2434.0,70,R,8114304,8114416,114,430.9,523.9,4548,left
38,2,continuous,20,40,trial,8112203.0,8114637.0,2434.0,70,R,8114456,8114822,368,153.5,521.9,4562,NA
38,2,continuous,21,16,fixationCross,8115770.0,8118004.0,2234.0,71,R,8115074,8115442,370,790.6,539.0,5004,NA
38,2,continuous,21,16,fixationCross,8115770.0,8118004.0,2234.0,71,R,8115464,8115722,260,890.0,550.9,5371,NA
38,2,continuous,21,16,trial,8115770.0,8118004.0,2234.0,71,R,8115740,8115908,170,837.5,526.1,5511,NA
38,2,continuous,21,16,trial,8115770.0,8118004.0,2234.0,71,R,8115956,8116130,176,478.6,544.1,5514,left
38,2,continuous,21,16,trial,8115770.0,8118004.0,2234.0,71,R,8116152,8116500,350,536.5,572.0,5058,left
38,2,continuous,21,16,trial,8115770.0,8118004.0,2234.0,71,R,8116564,8116904,342,1335.3,600.4,4607,right
38,2,continuous,21,16,trial,8115770.0,8118004.0,2234.0,71,R,8116976,8117080,106,532.3,686.0,4637,left
38,2,continuous,21,16,trial,8115770.0,8118004.0,2234.0,71,R,8117128,8117350,224,573.1,1004.0,4830,NA
38,2,continuous,21,16,trial,8115770.0,8118004.0,2234.0,71,R,8117374,8117540,168,582.2,923.1,5038,NA
38,2,continuous,21,16,trial,8115770.0,8118004.0,2234.0,71,R,8117590,8117782,194,507.6,562.6,5336,left
38,2,continuous,21,16,trial,8115770.0,8118004.0,2234.0,71,R,8117814,8117990,178,358.1,615.9,5476,left
38,2,continuous,21,16,trial,8115770.0,8118004.0,2234.0,71,R,8118002,8118246,246,388.8,599.0,5367,left
38,2,continuous,21,16,postResponse,8115770.0,8118004.0,2234.0,71,R,8118292,8118338,48,775.4,549.1,5164,NA
38,2,continuous,22,57,fixationCross,8119070.0,8120653.0,1583.0,72,R,8118438,8118766,330,758.7,537.6,5237,NA
38,2,continuous,22,57,trial,8119070.0,8120653.0,1583.0,72,R,8118796,8119220,426,894.3,540.7,5635,NA
38,2,continuous,22,57,trial,8119070.0,8120653.0,1583.0,72,R,8119268,8119586,320,483.9,487.3,5692,left
38,2,continuous,22,57,trial,8119070.0,8120653.0,1583.0,72,R,8119648,8119904,258,1285.8,553.7,4981,right
38,2,continuous,22,57,trial,8119070.0,8120653.0,1583.0,72,R,8119944,8120116,174,1563.8,470.4,4664,right
38,2,continuous,22,57,trial,8119070.0,8120653.0,1583.0,72,R,8120134,8120258,126,1585.6,430.1,4707,right
38,2,continuous,22,57,trial,8119070.0,8120653.0,1583.0,72,R,8120330,8120480,152,1000.6,1027.1,5004,likertHorizontal
38,2,continuous,22,57,trial,8119070.0,8120653.0,1583.0,72,R,8120494,8120910,418,960.7,991.8,5191,likertHorizontal
38,2,continuous,23,56,fixationCross,8121720.0,8124204.0,2484.0,73,R,8121150,8121432,284,842.0,559.7,5559,NA
38,2,continuous,23,56,fixationCross,8121720.0,8124204.0,2484.0,73,R,8121448,8121674,228,904.0,549.5,5669,NA
38,2,continuous,23,56,trial,8121720.0,8124204.0,2484.0,73,R,8121692,8121862,172,869.6,497.4,5753,NA
38,2,continuous,23,56,trial,8121720.0,8124204.0,2484.0,73,R,8121908,8122128,222,511.9,511.8,5730,left
38,2,continuous,23,56,trial,8121720.0,8124204.0,2484.0,73,R,8122198,8122434,238,1263.9,633.1,5142,right
38,2,continuous,23,56,trial,8121720.0,8124204.0,2484.0,73,R,8122460,8122644,186,1415.5,602.8,4930,right
38,2,continuous,23,56,trial,8121720.0,8124204.0,2484.0,73,R,8122660,8122892,234,1381.0,573.8,4768,right
38,2,continuous,23,56,trial,8121720.0,8124204.0,2484.0,73,R,8122946,8123100,156,978.8,897.4,4898,likertHorizontal
38,2,continuous,23,56,trial,8121720.0,8124204.0,2484.0,73,R,8123132,8123610,480,927.0,991.5,5027,likertHorizontal
38,2,continuous,23,56,trial,8121720.0,8124204.0,2484.0,73,R,8123662,8123896,236,659.5,695.0,5286,left
38,2,continuous,23,56,trial,8121720.0,8124204.0,2484.0,73,R,8123944,8124100,158,938.1,1012.6,5437,likertHorizontal
38,2,continuous,23,56,trial,8121720.0,8124204.0,2484.0,73,R,8124118,8124422,306,960.7,978.9,5388,likertHorizontal
38,2,continuous,23,56,postResponse,8121720.0,8124204.0,2484.0,73,R,8124494,8124538,46,1045.2,407.0,5113,NA
38,2,continuous,24,40,fixationCross,8125104.0,8127087.0,1983.0,74,R,8124638,8124744,108,1041.8,407.1,5135,NA
38,2,continuous,24,40,fixationCross,8125104.0,8127087.0,1983.0,74,R,8124786,8125022,238,920.5,510.9,5334,NA
38,2,continuous,24,40,trial,8125104.0,8127087.0,1983.0,74,R,8125040,8125240,202,880.9,549.5,5545,NA
38,2,continuous,24,40,trial,8125104.0,8127087.0,1983.0,74,R,8125290,8125502,214,453.4,510.5,5661,left
38,2,continuous,24,40,trial,8125104.0,8127087.0,1983.0,74,R,8125516,8125712,198,418.0,499.0,5345,left
38,2,continuous,24,40,trial,8125104.0,8127087.0,1983.0,74,R,8125782,8126224,444,1349.6,563.8,4894,right
38,2,continuous,24,40,trial,8125104.0,8127087.0,1983.0,74,R,8126292,8126568,278,505.5,532.9,5016,left
38,2,continuous,24,40,trial,8125104.0,8127087.0,1983.0,74,R,8126590,8126934,346,432.7,563.1,5001,left
38,2,continuous,24,40,trial,8125104.0,8127087.0,1983.0,74,R,8126990,8127350,362,776.3,1001.6,5092,likertHorizontal
38,2,continuous,25,65,fixationCross,8128437.0,8131071.0,2634.0,75,R,8127526,8127806,282,1091.2,491.5,5157,NA
38,2,continuous,25,65,fixationCross,8128437.0,8131071.0,2634.0,75,R,8127848,8128176,330,831.1,502.1,5553,NA
38,2,continuous,25,65,trial,8128437.0,8131071.0,2634.0,75,R,8128192,8128568,378,881.1,494.4,5684,NA
38,2,continuous,25,65,trial,8128437.0,8131071.0,2634.0,75,R,8128618,8128914,298,494.7,483.6,5659,left
38,2,continuous,25,65,trial,8128437.0,8131071.0,2634.0,75,R,8128946,8129074,130,593.2,523.1,5224,left
38,2,continuous,25,65,trial,8128437.0,8131071.0,2634.0,75,R,8129136,8129364,230,1344.3,541.8,4797,right
38,2,continuous,25,65,trial,8128437.0,8131071.0,2634.0,75,R,8129380,8129516,138,1383.2,565.7,4581,right
38,2,continuous,25,65,trial,8128437.0,8131071.0,2634.0,75,R,8129538,8129774,238,1324.1,626.0,4583,right
38,2,continuous,25,65,trial,8128437.0,8131071.0,2634.0,75,R,8129830,8130006,178,946.4,1007.8,4832,likertHorizontal
38,2,continuous,25,65,trial,8128437.0,8131071.0,2634.0,75,R,8130016,8130278,264,927.2,998.1,4905,likertHorizontal
38,2,continuous,25,65,trial,8128437.0,8131071.0,2634.0,75,R,8130292,8130528,238,983.6,987.5,5089,likertHorizontal
38,2,continuous,25,65,trial,8128437.0,8131071.0,2634.0,75,R,8130574,8130712,140,1168.0,835.0,5274,likertHorizontal
38,2,continuous,25,65,trial,8128437.0,8131071.0,2634.0,75,R,8130772,8130978,208,487.1,517.7,5470,left
38,2,continuous,25,65,trial,8128437.0,8131071.0,2634.0,75,R,8130992,8131118,128,524.2,521.9,5371,left
38,2,continuous,25,65,postResponse,8128437.0,8131071.0,2634.0,75,R,8131184,8131406,224,1375.6,594.9,4978,right
38,2,continuous,26,39,fixationCross,8157203.0,8159671.0,2468.0,76,R,8156575,8156739,166,872.5,310.8,6492,NA
38,2,continuous,26,39,fixationCross,8157203.0,8159671.0,2468.0,76,R,8156773,8156895,124,913.5,410.2,6425,NA
38,2,continuous,26,39,fixationCross,8157203.0,8159671.0,2468.0,76,R,8156923,8157115,194,945.0,517.1,6459,NA
38,2,continuous,26,39,trial,8157203.0,8159671.0,2468.0,76,R,8157129,8157423,296,913.1,531.6,6567,NA
38,2,continuous,26,39,trial,8157203.0,8159671.0,2468.0,76,R,8157471,8157695,226,544.8,518.5,6548,left
38,2,continuous,26,39,trial,8157203.0,8159671.0,2468.0,76,R,8157717,8157871,156,493.8,558.0,6154,left
38,2,continuous,26,39,trial,8157203.0,8159671.0,2468.0,76,R,8157887,8158021,136,475.4,598.3,5906,left
38,2,continuous,26,39,trial,8157203.0,8159671.0,2468.0,76,R,8158085,8158253,170,1332.3,513.4,5474,right
38,2,continuous,26,39,trial,8157203.0,8159671.0,2468.0,76,R,8158273,8158551,280,1350.1,459.5,5192,right
38,2,continuous,26,39,trial,8157203.0,8159671.0,2468.0,76,R,8158617,8158853,238,559.9,684.3,5185,left
38,2,continuous,26,39,trial,8157203.0,8159671.0,2468.0,76,R,8158897,8159119,224,750.2,979.2,5272,likertHorizontal
38,2,continuous,26,39,trial,8157203.0,8159671.0,2468.0,76,R,8159129,8159249,122,776.1,965.1,5341,likertHorizontal
38,2,continuous,26,39,trial,8157203.0,8159671.0,2468.0,76,R,8159305,8159517,214,458.9,497.7,5384,left
38,2,continuous,26,39,trial,8157203.0,8159671.0,2468.0,76,R,8159539,8159891,354,532.3,537.3,5300,left
38,2,continuous,27,59,fixationCross,8160754.0,8162921.0,2167.0,77,R,8160103,8160459,358,832.4,567.6,5195,NA
38,2,continuous,27,59,fixationCross,8160754.0,8162921.0,2167.0,77,R,8160477,8160697,222,917.8,559.6,5589,NA
38,2,continuous,27,59,trial,8160754.0,8162921.0,2167.0,77,R,8160717,8160889,174,894.8,504.9,5802,NA
38,2,continuous,27,59,trial,8160754.0,8162921.0,2167.0,77,R,8160939,8161125,188,473.6,474.3,5987,left
38,2,continuous,27,59,trial,8160754.0,8162921.0,2167.0,77,R,8161207,8161417,212,1434.0,505.3,5662,right
38,2,continuous,27,59,trial,8160754.0,8162921.0,2167.0,77,R,8161433,8161623,192,1477.2,525.2,5404,right
38,2,continuous,27,59,trial,8160754.0,8162921.0,2167.0,77,R,8161689,8161859,172,561.6,527.0,5399,left
38,2,continuous,27,59,trial,8160754.0,8162921.0,2167.0,77,R,8161875,8162059,186,498.0,529.9,5254,left
38,2,continuous,27,59,trial,8160754.0,8162921.0,2167.0,77,R,8162093,8162237,146,506.6,396.5,5225,left
38,2,continuous,27,59,trial,8160754.0,8162921.0,2167.0,77,R,8162301,8162457,158,965.7,880.3,5366,likertHorizontal
38,2,continuous,27,59,trial,8160754.0,8162921.0,2167.0,77,R,8162485,8162819,336,980.9,989.5,5479,likertHorizontal
38,2,continuous,27,59,trial,8160754.0,8162921.0,2167.0,77,R,8162867,8163157,292,1419.9,1042.6,5521,NA
38,2,continuous,28,75,fixationCross,8165088.0,8166888.0,1800.0,78,R,8163353,8163867,516,874.7,467.1,5759,NA
38,2,continuous,28,75,fixationCross,8165088.0,8166888.0,1800.0,78,R,8163881,8164393,514,825.4,444.7,6116,NA
38,2,continuous,28,75,fixationCross,8165088.0,8166888.0,1800.0,78,R,8164413,8164789,378,853.0,472.1,6295,NA
38,2,continuous,28,75,fixationCross,8165088.0,8166888.0,1800.0,78,R,8164813,8165025,214,919.8,502.8,6377,NA
38,2,continuous,28,75,trial,8165088.0,8166888.0,1800.0,78,R,8165035,8165229,196,901.0,515.7,6380,NA
38,2,continuous,28,75,trial,8165088.0,8166888.0,1800.0,78,R,8165279,8165449,172,502.2,446.3,6405,left
38,2,continuous,28,75,trial,8165088.0,8166888.0,1800.0,78,R,8165477,8165625,150,432.6,560.2,6072,left
38,2,continuous,28,75,trial,8165088.0,8166888.0,1800.0,78,R,8165693,8165989,298,1338.0,521.0,5576,right
38,2,continuous,28,75,trial,8165088.0,8166888.0,1800.0,78,R,8166001,8166145,146,1294.3,529.3,5455,right
38,2,continuous,28,75,trial,8165088.0,8166888.0,1800.0,78,R,8166171,8166283,114,1272.4,659.4,5320,right
38,2,continuous,28,75,trial,8165088.0,8166888.0,1800.0,78,R,8166331,8166731,402,1092.3,988.2,5397,likertHorizontal
38,2,continuous,28,75,trial,8165088.0,8166888.0,1800.0,78,R,8166755,8166855,102,1174.7,888.5,5476,likertHorizontal
38,2,continuous,28,75,postResponse,8165088.0,8166888.0,1800.0,78,R,8166919,8167221,304,431.3,584.4,5736,left
38,2,continuous,29,33,fixationCross,8168071.0,8169955.0,1884.0,79,R,8167301,8167465,166,665.1,486.6,5836,left
38,2,continuous,29,33,fixationCross,8168071.0,8169955.0,1884.0,79,R,8167675,8167785,112,1199.3,612.9,5978,right
38,2,continuous,29,33,trial,8168071.0,8169955.0,1884.0,79,R,8167829,8168217,390,928.9,544.0,6184,NA
38,2,continuous,29,33,trial,8168071.0,8169955.0,1884.0,79,R,8168269,8168489,222,477.1,492.5,6075,left
38,2,continuous,29,33,trial,8168071.0,8169955.0,1884.0,79,R,8168515,8168771,258,368.4,444.2,5504,left
38,2,continuous,29,33,trial,8168071.0,8169955.0,1884.0,79,R,8168805,8169029,226,364.3,602.8,5149,left
38,2,continuous,29,33,trial,8168071.0,8169955.0,1884.0,79,R,8169049,8169271,224,448.6,644.7,5021,left
38,2,continuous,29,33,trial,8168071.0,8169955.0,1884.0,79,R,8169291,8169489,200,409.2,710.9,5037,left
38,2,continuous,29,33,trial,8168071.0,8169955.0,1884.0,79,R,8169525,8169697,174,484.3,488.5,5081,left
38,2,continuous,29,33,trial,8168071.0,8169955.0,1884.0,79,R,8169725,8169983,260,347.8,425.0,5029,left
38,2,continuous,29,33,trial,8168071.0,8169955.0,1884.0,79,R,8170057,8170213,158,1386.4,559.0,4833,right
38,2,continuous,30,38,fixationCross,8171021.0,8172705.0,1684.0,80,R,8170371,8170717,348,1146.1,547.1,5124,NA
38,2,continuous,30,38,trial,8171021.0,8172705.0,1684.0,80,R,8170757,8171073,318,907.8,515.9,5694,NA
38,2,continuous,30,38,trial,8171021.0,8172705.0,1684.0,80,R,8171109,8171193,86,776.6,455.4,5909,NA
38,2,continuous,30,38,trial,8171021.0,8172705.0,1684.0,80,R,8171241,8171405,166,408.8,500.0,5912,left
38,2,continuous,30,38,trial,8171021.0,8172705.0,1684.0,80,R,8171423,8171521,100,343.3,468.8,5583,left
38,2,continuous,30,38,trial,8171021.0,8172705.0,1684.0,80,R,8171595,8171849,256,1402.3,532.8,4935,right
38,2,continuous,30,38,trial,8171021.0,8172705.0,1684.0,80,R,8171885,8172017,134,1309.8,416.1,4803,right
38,2,continuous,30,38,trial,8171021.0,8172705.0,1684.0,80,R,8172035,8172189,156,1232.7,418.4,4881,right
38,2,continuous,30,38,trial,8171021.0,8172705.0,1684.0,80,R,8172261,8172547,288,338.0,507.7,5117,left
38,2,continuous,30,38,trial,8171021.0,8172705.0,1684.0,80,R,8172559,8172907,350,311.0,486.8,5090,left
38,2,continuous,31,50,fixationCross,8173738.0,8175688.0,1950.0,81,R,8173119,8173289,172,969.4,745.5,5153,likertHorizontal
38,2,continuous,31,50,fixationCross,8173738.0,8175688.0,1950.0,81,R,8173337,8173577,242,871.5,486.6,5445,NA
38,2,continuous,31,50,trial,8173738.0,8175688.0,1950.0,81,R,8173601,8173783,184,908.7,552.1,5686,NA
38,2,continuous,31,50,trial,8173738.0,8175688.0,1950.0,81,R,8173833,8173979,148,511.6,519.4,5822,left
38,2,continuous,31,50,trial,8173738.0,8175688.0,1950.0,81,R,8174007,8174121,116,378.4,548.2,5784,left
38,2,continuous,31,50,trial,8173738.0,8175688.0,1950.0,81,R,8174151,8174245,96,513.8,546.6,5411,left
38,2,continuous,31,50,trial,8173738.0,8175688.0,1950.0,81,R,8174313,8174503,192,1423.2,550.1,4908,right
38,2,continuous,31,50,trial,8173738.0,8175688.0,1950.0,81,R,8174531,8174777,248,1284.5,596.4,4770,right
38,2,continuous,31,50,trial,8173738.0,8175688.0,1950.0,81,R,8174841,8175147,308,484.2,575.8,4860,left
38,2,continuous,31,50,trial,8173738.0,8175688.0,1950.0,81,R,8175201,8175325,126,863.0,983.0,5059,likertHorizontal
38,2,continuous,31,50,trial,8173738.0,8175688.0,1950.0,81,R,8175339,8175483,146,905.2,994.0,5163,likertHorizontal
38,2,continuous,31,50,trial,8173738.0,8175688.0,1950.0,81,R,8175541,8175869,330,469.7,545.7,5343,left
38,2,continuous,32,50,fixationCross,8177205.0,8179321.0,2116.0,82,R,8176097,8176239,144,1117.8,581.2,5434,NA
38,2,continuous,32,50,fixationCross,8177205.0,8179321.0,2116.0,82,R,8176283,8176589,308,832.0,463.7,5701,NA
38,2,continuous,32,50,fixationCross,8177205.0,8179321.0,2116.0,82,R,8176611,8176803,194,860.8,519.6,5879,NA
38,2,continuous,32,50,fixationCross,8177205.0,8179321.0,2116.0,82,R,8176845,8177047,204,614.9,468.5,6003,left
38,2,continuous,32,50,trial,8177205.0,8179321.0,2116.0,82,R,8177097,8177347,252,880.2,517.2,6000,NA
38,2,continuous,32,50,trial,8177205.0,8179321.0,2116.0,82,R,8177393,8177571,180,515.3,474.3,6096,left
38,2,continuous,32,50,trial,8177205.0,8179321.0,2116.0,82,R,8177605,8177739,136,376.2,555.5,5882,left
38,2,continuous,32,50,trial,8177205.0,8179321.0,2116.0,82,R,8177767,8177953,188,513.9,516.2,5599,left
38,2,continuous,32,50,trial,8177205.0,8179321.0,2116.0,82,R,8178021,8178343,324,1392.1,526.0,5197,right
38,2,continuous,32,50,trial,8177205.0,8179321.0,2116.0,82,R,8178361,8178477,118,1316.7,539.9,5246,right
38,2,continuous,32,50,trial,8177205.0,8179321.0,2116.0,82,R,8178541,8178769,230,547.6,573.9,5338,left
38,2,continuous,32,50,trial,8177205.0,8179321.0,2116.0,82,R,8178795,8179059,266,579.6,474.1,5180,left
38,2,continuous,32,50,trial,8177205.0,8179321.0,2116.0,82,R,8179119,8179513,396,883.1,970.6,5386,likertHorizontal
38,2,continuous,33,29,fixationCross,8180221.0,8181904.0,1683.0,83,R,8179731,8179871,142,850.8,458.7,5583,NA
38,2,continuous,33,29,fixationCross,8180221.0,8181904.0,1683.0,83,R,8179895,8180069,176,963.1,488.8,5748,NA
38,2,continuous,33,29,trial,8180221.0,8181904.0,1683.0,83,R,8180101,8180359,260,887.9,553.4,5904,NA
38,2,continuous,33,29,trial,8180221.0,8181904.0,1683.0,83,R,8180409,8180615,208,481.7,490.1,5970,left
38,2,continuous,33,29,trial,8180221.0,8181904.0,1683.0,83,R,8180637,8180775,140,414.5,492.4,5608,left
38,2,continuous,33,29,trial,8180221.0,8181904.0,1683.0,83,R,8180841,8181155,316,1330.3,521.3,5041,right
38,2,continuous,33,29,trial,8180221.0,8181904.0,1683.0,83,R,8181227,8181471,246,609.7,999.9,5232,NA
38,2,continuous,33,29,trial,8180221.0,8181904.0,1683.0,83,R,8181495,8181679,186,690.3,984.0,5333,NA
38,2,continuous,33,29,trial,8180221.0,8181904.0,1683.0,83,R,8181743,8182147,406,388.8,502.8,5382,left
38,2,continuous,33,29,postResponse,8180221.0,8181904.0,1683.0,83,R,8182203,8182245,44,833.8,478.3,5465,NA
38,2,continuous,34,64,fixationCross,8183004.0,8185204.0,2200.0,84,R,8182319,8182505,188,836.5,472.8,5548,NA
38,2,continuous,34,64,fixationCross,8183004.0,8185204.0,2200.0,84,R,8182535,8182703,170,718.5,520.6,5752,left
38,2,continuous,34,64,fixationCross,8183004.0,8185204.0,2200.0,84,R,8182733,8182997,266,873.5,523.1,5879,NA
38,2,continuous,34,64,trial,8183004.0,8185204.0,2200.0,84,R,8183009,8183125,118,901.5,493.2,5983,NA
38,2,continuous,34,64,trial,8183004.0,8185204.0,2200.0,84,R,8183177,8183641,466,456.7,484.2,5863,left
38,2,continuous,34,64,trial,8183004.0,8185204.0,2200.0,84,R,8183707,8184079,374,1333.7,639.3,5099,right
38,2,continuous,34,64,trial,8183004.0,8185204.0,2200.0,84,R,8184097,8184561,466,1300.0,598.8,5058,right
38,2,continuous,34,64,trial,8183004.0,8185204.0,2200.0,84,R,8184587,8184955,370,1401.7,532.1,5165,right
38,2,continuous,34,64,trial,8183004.0,8185204.0,2200.0,84,R,8184997,8185415,420,1204.0,639.6,5147,right
38,2,continuous,35,50,fixationCross,8187305.0,8189121.0,1816.0,85,R,8185663,8186023,362,759.5,562.5,5328,NA
38,2,continuous,35,50,fixationCross,8187305.0,8189121.0,1816.0,85,R,8186049,8186449,402,861.0,504.3,5776,NA
38,2,continuous,35,50,fixationCross,8187305.0,8189121.0,1816.0,85,R,8186471,8186637,168,776.4,473.3,5996,NA
38,2,continuous,35,50,fixationCross,8187305.0,8189121.0,1816.0,85,R,8186657,8186905,250,868.8,478.6,6056,NA
38,2,continuous,35,50,fixationCross,8187305.0,8189121.0,1816.0,85,R,8186929,8187057,130,761.1,466.3,6159,NA
38,2,continuous,35,50,fixationCross,8187305.0,8189121.0,1816.0,85,R,8187089,8187299,212,907.5,494.7,6148,NA
38,2,continuous,35,50,trial,8187305.0,8189121.0,1816.0,85,R,8187319,8187447,130,840.1,475.9,6140,NA
38,2,continuous,35,50,trial,8187305.0,8189121.0,1816.0,85,R,8187493,8187671,180,481.5,453.2,6130,left
38,2,continuous,35,50,trial,8187305.0,8189121.0,1816.0,85,R,8187691,8187823,134,390.3,474.6,5730,left
38,2,continuous,35,50,trial,8187305.0,8189121.0,1816.0,85,R,8187895,8188381,488,1383.2,531.0,4703,right
38,2,continuous,35,50,trial,8187305.0,8189121.0,1816.0,85,R,8188481,8188561,82,858.8,1043.1,5017,likertHorizontal
38,2,continuous,35,50,trial,8187305.0,8189121.0,1816.0,85,R,8188581,8189301,722,886.0,981.8,5193,likertHorizontal
38,2,continuous,36,50,fixationCross,8190454.0,8192055.0,1601.0,86,R,8189531,8189837,308,861.7,384.3,5653,NA
38,2,continuous,36,50,fixationCross,8190454.0,8192055.0,1601.0,86,R,8189861,8190129,270,812.4,457.8,5906,NA
38,2,continuous,36,50,trial,8190454.0,8192055.0,1601.0,86,R,8190147,8190589,444,882.5,486.9,5946,NA
38,2,continuous,36,50,trial,8190454.0,8192055.0,1601.0,86,R,8190641,8191075,436,478.3,529.6,5743,left
38,2,continuous,36,50,trial,8190454.0,8192055.0,1601.0,86,R,8191143,8191383,242,1392.4,556.6,5070,right
38,2,continuous,36,50,trial,8190454.0,8192055.0,1601.0,86,R,8191415,8191481,68,1241.0,539.6,5034,right
