participantNo,block,task,blockTrial,response,trialStage,trialStartTime,trialFinishTime,rt,trial,eye,fixStart,fixEnd,fixLength,fixPosX,fixPosY,dilation,aoi
56,1,binary,1,1,fixationCross,8785938.0,8790422.0,4484.0,1,R,8785201,8785607,408,908.0,427.3,4158,NA
56,1,binary,1,1,trial,8785938.0,8790422.0,4484.0,1,R,8785643,8786193,552,950.5,541.8,4173,NA
56,1,binary,1,1,trial,8785938.0,8790422.0,4484.0,1,R,8786249,8786497,250,584.4,529.2,3997,left
56,1,binary,1,1,trial,8785938.0,8790422.0,4484.0,1,R,8786557,8787035,480,1348.1,490.1,3746,right
56,1,binary,1,1,trial,8785938.0,8790422.0,4484.0,1,R,8787109,8787351,244,474.3,493.4,3699,left
56,1,binary,1,1,trial,8785938.0,8790422.0,4484.0,1,R,8787383,8787487,106,451.3,547.1,3692,left
56,1,binary,1,1,trial,8785938.0,8790422.0,4484.0,1,R,8787535,8787755,222,451.9,976.6,3768,NA
56,1,binary,1,1,trial,8785938.0,8790422.0,4484.0,1,R,8787785,8787959,176,507.5,993.9,3866,NA
56,1,binary,1,1,trial,8785938.0,8790422.0,4484.0,1,R,8788007,8788553,548,973.4,962.2,4110,likertHorizontal
56,1,binary,1,1,trial,8785938.0,8790422.0,4484.0,1,R,8788615,8789169,556,514.3,948.7,4413,NA
56,1,binary,1,1,trial,8785938.0,8790422.0,4484.0,1,R,8789217,8789369,154,444.0,684.7,4347,left
56,1,binary,1,1,postResponse,8785938.0,8790422.0,4484.0,1,R,8789393,8790787,1396,463.4,576.0,4014,left
56,1,binary,2,2,fixationCross,8791571.0,8793738.0,2167.0,2,R,8790889,8790987,100,466.4,582.3,4180,left
56,1,binary,2,2,fixationCross,8791571.0,8793738.0,2167.0,2,R,8791189,8791261,74,764.8,485.8,4206,NA
56,1,binary,2,2,trial,8791571.0,8793738.0,2167.0,2,R,8791303,8791609,308,961.8,546.1,4277,NA
56,1,binary,2,2,trial,8791571.0,8793738.0,2167.0,2,R,8791627,8791767,142,952.9,540.1,4389,NA
56,1,binary,2,2,trial,8791571.0,8793738.0,2167.0,2,R,8791825,8791979,156,553.3,476.0,4144,left
56,1,binary,2,2,trial,8791571.0,8793738.0,2167.0,2,R,8791993,8792143,152,527.9,454.6,3950,left
56,1,binary,2,2,trial,8791571.0,8793738.0,2167.0,2,R,8792209,8792365,158,1432.5,448.8,3647,right
56,1,binary,2,2,trial,8791571.0,8793738.0,2167.0,2,R,8792387,8792693,308,1478.3,450.7,3539,right
56,1,binary,2,2,trial,8791571.0,8793738.0,2167.0,2,R,8792741,8793031,292,1477.5,607.8,3578,right
56,1,binary,2,2,trial,8791571.0,8793738.0,2167.0,2,R,8793053,8793251,200,1463.5,640.2,3564,right
56,1,binary,2,2,trial,8791571.0,8793738.0,2167.0,2,R,8793277,8793679,404,1481.1,510.5,3567,right
56,1,binary,2,2,postResponse,8791571.0,8793738.0,2167.0,2,R,8793699,8794085,388,1476.3,459.3,3663,right
56,1,binary,3,2,fixationCross,8794771.0,8796622.0,1851.0,3,R,8794159,8794273,116,1470.3,462.2,3642,right
56,1,binary,3,2,fixationCross,8794771.0,8796622.0,1851.0,3,R,8794305,8794465,162,1202.2,457.1,3704,right
56,1,binary,3,2,trial,8794771.0,8796622.0,1851.0,3,R,8794507,8795151,646,964.3,525.8,3984,NA
56,1,binary,3,2,trial,8794771.0,8796622.0,1851.0,3,R,8795193,8795489,298,1371.3,558.1,3753,right
56,1,binary,3,2,trial,8794771.0,8796622.0,1851.0,3,R,8795563,8795819,258,469.0,554.2,3680,left
56,1,binary,3,2,trial,8794771.0,8796622.0,1851.0,3,R,8795841,8795935,96,511.1,532.3,3594,left
56,1,binary,3,2,postResponse,8794771.0,8796622.0,1851.0,3,R,8795999,8796961,964,1401.5,579.9,3478,right
56,1,binary,4,2,fixationCross,8797538.0,8799988.0,2450.0,4,R,8797061,8797237,178,1393.8,582.7,3616,right
56,1,binary,4,2,fixationCross,8797538.0,8799988.0,2450.0,4,R,8797291,8797419,130,995.9,505.1,3812,NA
56,1,binary,4,2,trial,8797538.0,8799988.0,2450.0,4,R,8797449,8797893,446,949.5,529.5,4001,NA
56,1,binary,4,2,trial,8797538.0,8799988.0,2450.0,4,R,8797917,8798075,160,798.4,519.2,3939,NA
56,1,binary,4,2,trial,8797538.0,8799988.0,2450.0,4,R,8798131,8798311,182,481.0,490.3,3867,left
56,1,binary,4,2,trial,8797538.0,8799988.0,2450.0,4,R,8798331,8798565,236,450.8,485.2,3811,left
56,1,binary,4,2,trial,8797538.0,8799988.0,2450.0,4,R,8798631,8798877,248,1414.9,507.8,3564,right
56,1,binary,4,2,trial,8797538.0,8799988.0,2450.0,4,R,8798907,8799001,96,1384.1,575.8,3600,right
56,1,binary,4,2,trial,8797538.0,8799988.0,2450.0,4,R,8799077,8799219,144,412.0,507.6,3798,left
56,1,binary,4,2,trial,8797538.0,8799988.0,2450.0,4,R,8799251,8799333,84,476.8,496.6,3807,left
56,1,binary,4,2,trial,8797538.0,8799988.0,2450.0,4,R,8799397,8799679,284,1420.4,539.0,3686,right
56,1,binary,4,2,postResponse,8797538.0,8799988.0,2450.0,4,R,8799713,8800345,634,1382.4,604.8,3758,right
56,1,binary,5,1,fixationCross,8801105.0,8802855.0,1750.0,5,R,8800421,8800539,120,1314.9,507.2,3711,right
56,1,binary,5,1,fixationCross,8801105.0,8802855.0,1750.0,5,R,8800707,8800791,86,1079.0,474.0,3806,NA
56,1,binary,5,1,trial,8801105.0,8802855.0,1750.0,5,R,8800825,8801333,510,950.9,538.4,4030,NA
56,1,binary,5,1,trial,8801105.0,8802855.0,1750.0,5,R,8801383,8801787,406,1378.6,502.6,3760,right
56,1,binary,5,1,trial,8801105.0,8802855.0,1750.0,5,R,8801867,8802271,406,396.8,441.8,3641,left
56,1,binary,5,1,trial,8801105.0,8802855.0,1750.0,5,R,8802309,8802503,196,528.4,536.3,3627,left
56,1,binary,5,1,trial,8801105.0,8802855.0,1750.0,5,R,8802557,8802753,198,410.7,730.0,3614,left
56,1,binary,5,1,postResponse,8801105.0,8802855.0,1750.0,5,R,8802795,8803191,398,377.0,461.4,3612,left
56,1,binary,6,1,fixationCross,8803938.0,8805555.0,1617.0,6,R,8803265,8803339,76,374.9,461.9,3564,left
56,1,binary,6,1,fixationCross,8803938.0,8805555.0,1617.0,6,R,8803523,8803623,102,1102.6,468.0,3529,NA
56,1,binary,6,1,trial,8803938.0,8805555.0,1617.0,6,R,8803657,8804097,442,959.1,528.9,3698,NA
56,1,binary,6,1,trial,8803938.0,8805555.0,1617.0,6,R,8804159,8804469,312,511.2,514.4,3735,left
56,1,binary,6,1,trial,8803938.0,8805555.0,1617.0,6,R,8804533,8804671,140,1406.1,486.6,3400,right
56,1,binary,6,1,trial,8803938.0,8805555.0,1617.0,6,R,8804693,8804867,176,1452.4,504.2,3283,right
56,1,binary,6,1,postResponse,8803938.0,8805555.0,1617.0,6,R,8804933,8805889,958,452.7,506.7,3426,left
56,1,binary,7,2,fixationCross,8806471.0,8808422.0,1951.0,7,R,8805965,8806025,62,450.4,508.7,3465,left
56,1,binary,7,2,fixationCross,8806471.0,8808422.0,1951.0,7,R,8806215,8806313,100,915.9,538.9,3548,NA
56,1,binary,7,2,trial,8806471.0,8808422.0,1951.0,7,R,8806343,8806675,334,960.8,533.7,3606,NA
56,1,binary,7,2,trial,8806471.0,8808422.0,1951.0,7,R,8806727,8807013,288,508.9,478.4,3647,left
56,1,binary,7,2,trial,8806471.0,8808422.0,1951.0,7,R,8807077,8807231,156,1388.3,492.8,3436,right
56,1,binary,7,2,trial,8806471.0,8808422.0,1951.0,7,R,8807251,8807445,196,1402.3,521.8,3361,right
56,1,binary,7,2,trial,8806471.0,8808422.0,1951.0,7,R,8807527,8807851,326,544.9,481.7,3430,left
56,1,binary,7,2,trial,8806471.0,8808422.0,1951.0,7,R,8807915,8808095,182,1453.7,460.9,3364,right
56,1,binary,7,2,postResponse,8806471.0,8808422.0,1951.0,7,R,8808119,8808755,638,1474.0,495.0,3390,right
56,1,binary,8,2,fixationCross,8809571.0,8811138.0,1567.0,8,R,8808831,8809015,186,1471.2,489.9,3366,right
56,1,binary,8,2,fixationCross,8809571.0,8811138.0,1567.0,8,R,8809197,8809299,104,835.1,484.5,3518,NA
56,1,binary,8,2,trial,8809571.0,8811138.0,1567.0,8,R,8809333,8809847,516,951.3,520.7,3609,NA
56,1,binary,8,2,trial,8809571.0,8811138.0,1567.0,8,R,8809883,8810049,168,1398.0,515.3,3539,right
56,1,binary,8,2,trial,8809571.0,8811138.0,1567.0,8,R,8810077,8810311,236,1571.6,489.9,3386,right
56,1,binary,8,2,trial,8809571.0,8811138.0,1567.0,8,R,8810389,8810611,224,437.6,545.2,3329,left
56,1,binary,8,2,postResponse,8809571.0,8811138.0,1567.0,8,R,8810677,8811471,796,1491.5,473.8,3267,right
56,1,binary,9,2,fixationCross,8812189.0,8813755.0,1566.0,9,R,8811741,8811883,144,1223.6,478.3,3595,right
56,1,binary,9,2,trial,8812189.0,8813755.0,1566.0,9,R,8811935,8812339,406,958.3,535.0,3828,NA
56,1,binary,9,2,trial,8812189.0,8813755.0,1566.0,9,R,8812405,8812575,172,503.7,491.6,3873,left
56,1,binary,9,2,trial,8812189.0,8813755.0,1566.0,9,R,8812593,8812919,328,473.8,481.7,3707,left
56,1,binary,9,2,trial,8812189.0,8813755.0,1566.0,9,R,8812987,8813121,136,1504.8,479.0,3497,right
56,1,binary,9,2,postResponse,8812189.0,8813755.0,1566.0,9,R,8813151,8814089,940,1584.8,464.0,3473,right
56,1,binary,10,2,fixationCross,8814838.0,8816605.0,1767.0,10,R,8814175,8814383,210,1223.3,461.4,3632,right
56,1,binary,10,2,fixationCross,8814838.0,8816605.0,1767.0,10,R,8814421,8814525,106,1089.2,528.7,3793,NA
56,1,binary,10,2,trial,8814838.0,8816605.0,1767.0,10,R,8814557,8814979,424,959.0,524.6,3930,NA
56,1,binary,10,2,trial,8814838.0,8816605.0,1767.0,10,R,8815045,8815193,150,455.3,437.3,3863,left
56,1,binary,10,2,trial,8814838.0,8816605.0,1767.0,10,R,8815219,8815381,164,402.6,449.0,3700,left
56,1,binary,10,2,trial,8814838.0,8816605.0,1767.0,10,R,8815439,8815553,116,1388.8,383.4,3442,right
56,1,binary,10,2,trial,8814838.0,8816605.0,1767.0,10,R,8815581,8815789,210,1438.2,363.5,3350,right
56,1,binary,10,2,trial,8814838.0,8816605.0,1767.0,10,R,8815821,8816011,192,1442.0,432.8,3375,right
56,1,binary,10,2,trial,8814838.0,8816605.0,1767.0,10,R,8816051,8816185,136,1454.1,567.4,3482,right
56,1,binary,10,2,trial,8814838.0,8816605.0,1767.0,10,R,8816211,8816559,350,1503.4,634.4,3620,right
56,1,binary,10,2,postResponse,8814838.0,8816605.0,1767.0,10,R,8816591,8816937,348,1407.2,392.5,3663,right
56,1,binary,11,1,fixationCross,8817689.0,8819538.0,1849.0,11,R,8817037,8817191,156,1403.1,386.5,3564,right
56,1,binary,11,1,fixationCross,8817689.0,8819538.0,1849.0,11,R,8817247,8817373,128,1037.9,419.1,3656,NA
56,1,binary,11,1,fixationCross,8817689.0,8819538.0,1849.0,11,R,8817411,8817557,148,928.7,519.3,3724,NA
56,1,binary,11,1,trial,8817689.0,8819538.0,1849.0,11,R,8817575,8817855,282,947.4,528.3,3808,NA
56,1,binary,11,1,trial,8817689.0,8819538.0,1849.0,11,R,8817909,8818027,120,501.9,497.7,3877,left
56,1,binary,11,1,trial,8817689.0,8819538.0,1849.0,11,R,8818051,8818309,260,409.3,437.7,3680,left
56,1,binary,11,1,trial,8817689.0,8819538.0,1849.0,11,R,8818375,8818735,362,1405.5,524.2,3405,right
56,1,binary,11,1,trial,8817689.0,8819538.0,1849.0,11,R,8818813,8818993,182,449.8,524.3,3528,left
56,1,binary,11,1,trial,8817689.0,8819538.0,1849.0,11,R,8819019,8819257,240,429.3,567.3,3549,left
56,1,binary,11,1,trial,8817689.0,8819538.0,1849.0,11,R,8819283,8819439,158,387.9,444.5,3549,left
56,1,binary,11,1,trial,8817689.0,8819538.0,1849.0,11,R,8819461,8819769,310,417.7,429.1,3520,left
56,1,binary,12,1,fixationCross,8820438.0,8822305.0,1867.0,12,R,8819979,8820145,168,1048.0,458.4,3459,NA
56,1,binary,12,1,fixationCross,8820438.0,8822305.0,1867.0,12,R,8820171,8820303,134,975.9,510.6,3509,NA
56,1,binary,12,1,trial,8820438.0,8822305.0,1867.0,12,R,8820321,8820593,274,956.9,527.9,3677,NA
56,1,binary,12,1,trial,8820438.0,8822305.0,1867.0,12,R,8820637,8820827,192,1368.5,460.6,3575,right
56,1,binary,12,1,trial,8820438.0,8822305.0,1867.0,12,R,8820851,8821007,158,1429.2,505.9,3481,right
56,1,binary,12,1,trial,8820438.0,8822305.0,1867.0,12,R,8821087,8821305,220,417.6,527.5,3438,left
56,1,binary,12,1,trial,8820438.0,8822305.0,1867.0,12,R,8821341,8821497,158,549.9,569.7,3408,left
56,1,binary,12,1,trial,8820438.0,8822305.0,1867.0,12,R,8821533,8821829,298,391.1,624.5,3467,left
56,1,binary,12,1,trial,8820438.0,8822305.0,1867.0,12,R,8821857,8822165,310,558.5,555.8,3519,left
56,1,binary,12,1,postResponse,8820438.0,8822305.0,1867.0,12,R,8822201,8822637,438,562.5,640.6,3539,left
56,1,binary,13,2,fixationCross,8823354.0,8824938.0,1584.0,13,R,8822713,8822731,20,562.4,643.0,3544,left
56,1,binary,13,2,fixationCross,8823354.0,8824938.0,1584.0,13,R,8822931,8823043,114,675.6,490.6,3586,left
56,1,binary,13,2,fixationCross,8823354.0,8824938.0,1584.0,13,R,8823087,8823205,120,966.4,524.4,3586,NA
56,1,binary,13,2,trial,8823354.0,8824938.0,1584.0,13,R,8823223,8823501,280,943.1,531.3,3688,NA
56,1,binary,13,2,trial,8823354.0,8824938.0,1584.0,13,R,8823539,8823753,216,1383.0,453.9,3577,right
56,1,binary,13,2,trial,8823354.0,8824938.0,1584.0,13,R,8823787,8823955,170,1351.7,551.2,3485,right
56,1,binary,13,2,trial,8823354.0,8824938.0,1584.0,13,R,8824029,8824277,250,508.5,542.0,3496,left
56,1,binary,13,2,trial,8823354.0,8824938.0,1584.0,13,R,8824311,8824399,90,622.0,526.5,3468,left
56,1,binary,13,2,postResponse,8823354.0,8824938.0,1584.0,13,R,8824459,8825277,820,1393.6,528.3,3358,right
56,1,binary,14,2,fixationCross,8825988.0,8827739.0,1751.0,14,R,8825353,8825447,96,1389.6,531.8,3440,right
56,1,binary,14,2,fixationCross,8825988.0,8827739.0,1751.0,14,R,8825473,8825663,192,1260.4,446.7,3504,right
56,1,binary,14,2,fixationCross,8825988.0,8827739.0,1751.0,14,R,8825707,8825829,124,941.3,527.9,3613,NA
56,1,binary,14,2,trial,8825988.0,8827739.0,1751.0,14,R,8825959,8826179,222,955.5,496.2,3773,NA
56,1,binary,14,2,trial,8825988.0,8827739.0,1751.0,14,R,8826241,8826397,158,587.5,508.6,3944,left
56,1,binary,14,2,trial,8825988.0,8827739.0,1751.0,14,R,8826433,8826723,292,440.8,564.1,3859,left
56,1,binary,14,2,trial,8825988.0,8827739.0,1751.0,14,R,8826755,8826883,130,480.3,598.3,3763,left
56,1,binary,14,2,trial,8825988.0,8827739.0,1751.0,14,R,8826953,8827255,304,1500.2,490.1,3550,right
56,1,binary,14,2,postResponse,8825988.0,8827739.0,1751.0,14,R,8827279,8828071,794,1354.8,452.0,3585,right
56,1,binary,15,1,fixationCross,8828788.0,8830572.0,1784.0,15,R,8828293,8828483,192,1169.7,455.2,3630,NA
56,1,binary,15,1,fixationCross,8828788.0,8830572.0,1784.0,15,R,8828523,8828657,136,925.2,521.9,3784,NA
56,1,binary,15,1,trial,8828788.0,8830572.0,1784.0,15,R,8828677,8828951,276,958.5,530.1,3931,NA
56,1,binary,15,1,trial,8828788.0,8830572.0,1784.0,15,R,8829015,8829171,158,485.8,532.8,3907,left
56,1,binary,15,1,trial,8828788.0,8830572.0,1784.0,15,R,8829203,8829369,168,471.8,585.1,3733,left
56,1,binary,15,1,trial,8828788.0,8830572.0,1784.0,15,R,8829389,8829609,222,486.7,599.3,3612,left
56,1,binary,15,1,trial,8828788.0,8830572.0,1784.0,15,R,8829653,8829831,180,248.6,550.3,3490,left
56,1,binary,15,1,trial,8828788.0,8830572.0,1784.0,15,R,8829859,8829925,68,276.7,598.5,3452,left
56,1,binary,15,1,trial,8828788.0,8830572.0,1784.0,15,R,8829997,8830215,220,1454.3,487.2,3323,right
56,1,binary,15,1,trial,8828788.0,8830572.0,1784.0,15,R,8830253,8830365,114,1616.4,542.1,3327,right
56,1,binary,15,1,postResponse,8828788.0,8830572.0,1784.0,15,R,8830439,8830907,470,389.6,547.4,3453,left
56,1,binary,16,1,fixationCross,8831488.0,8833055.0,1567.0,16,R,8830981,8831029,50,390.2,550.2,3425,left
56,1,binary,16,1,fixationCross,8831488.0,8833055.0,1567.0,16,R,8831211,8831323,114,1012.0,474.2,3448,NA
56,1,binary,16,1,trial,8831488.0,8833055.0,1567.0,16,R,8831353,8831631,280,954.8,526.1,3555,NA
56,1,binary,16,1,trial,8831488.0,8833055.0,1567.0,16,R,8831671,8831853,184,1324.2,457.1,3581,right
56,1,binary,16,1,trial,8831488.0,8833055.0,1567.0,16,R,8831925,8832173,250,508.9,478.5,3574,left
56,1,binary,16,1,trial,8831488.0,8833055.0,1567.0,16,R,8832209,8832387,180,375.9,561.1,3512,left
56,1,binary,16,1,trial,8831488.0,8833055.0,1567.0,16,R,8832405,8832537,134,359.7,576.1,3477,left
56,1,binary,16,1,trial,8831488.0,8833055.0,1567.0,16,R,8832577,8832951,376,541.5,477.8,3517,left
56,1,binary,16,1,postResponse,8831488.0,8833055.0,1567.0,16,R,8832975,8833389,416,428.6,432.3,3468,left
56,1,binary,17,1,fixationCross,8834122.0,8835672.0,1550.0,17,R,8833489,8833795,308,430.8,432.2,3474,left
56,1,binary,17,1,fixationCross,8834122.0,8835672.0,1550.0,17,R,8833847,8833977,132,901.3,530.3,3581,NA
56,1,binary,17,1,trial,8834122.0,8835672.0,1550.0,17,R,8834001,8834293,294,948.1,533.1,3664,NA
56,1,binary,17,1,trial,8834122.0,8835672.0,1550.0,17,R,8834357,8834563,208,507.4,500.5,3848,left
56,1,binary,17,1,trial,8834122.0,8835672.0,1550.0,17,R,8834601,8834703,104,426.3,612.0,3767,left
56,1,binary,17,1,trial,8834122.0,8835672.0,1550.0,17,R,8834769,8835103,336,1387.7,519.3,3569,right
56,1,binary,17,1,trial,8834122.0,8835672.0,1550.0,17,R,8835179,8835927,750,489.6,570.3,3658,left
56,1,binary,17,1,postResponse,8834122.0,8835672.0,1550.0,17,R,8835953,8836005,54,568.9,476.0,3504,left
56,1,binary,18,2,fixationCross,8836671.0,8838172.0,1501.0,18,R,8836261,8836383,124,855.3,477.1,3432,NA
56,1,binary,18,2,trial,8836671.0,8838172.0,1501.0,18,R,8836417,8836801,386,958.5,528.9,3568,NA
56,1,binary,18,2,trial,8836671.0,8838172.0,1501.0,18,R,8836837,8837119,284,1356.0,459.2,3490,right
56,1,binary,18,2,trial,8836671.0,8838172.0,1501.0,18,R,8837195,8837527,334,436.8,490.7,3389,left
56,1,binary,18,2,trial,8836671.0,8838172.0,1501.0,18,R,8837555,8837729,176,461.7,523.2,3332,left
56,1,binary,18,2,trial,8836671.0,8838172.0,1501.0,18,R,8837799,8838087,290,1485.0,540.5,3271,right
56,1,binary,18,2,postResponse,8836671.0,8838172.0,1501.0,18,R,8838109,8838505,398,1399.5,486.3,3185,right
56,1,binary,19,1,fixationCross,8839339.0,8840955.0,1616.0,19,R,8838605,8838723,120,1387.4,490.3,3214,right
56,1,binary,19,1,fixationCross,8839339.0,8840955.0,1616.0,19,R,8838925,8839051,128,1268.8,488.2,3414,right
56,1,binary,19,1,fixationCross,8839339.0,8840955.0,1616.0,19,R,8839093,8839209,118,979.4,512.8,3509,NA
56,1,binary,19,1,trial,8839339.0,8840955.0,1616.0,19,R,8839231,8839487,258,941.9,536.2,3743,NA
56,1,binary,19,1,trial,8839339.0,8840955.0,1616.0,19,R,8839539,8839665,128,585.9,442.4,3868,left
56,1,binary,19,1,trial,8839339.0,8840955.0,1616.0,19,R,8839699,8839947,250,657.5,428.3,3743,left
56,1,binary,19,1,trial,8839339.0,8840955.0,1616.0,19,R,8840021,8840321,302,1484.1,510.0,3478,right
56,1,binary,19,1,trial,8839339.0,8840955.0,1616.0,19,R,8840353,8840471,120,1470.9,574.1,3485,right
56,1,binary,19,1,postResponse,8839339.0,8840955.0,1616.0,19,R,8840553,8841289,738,407.4,484.6,3580,left
56,1,binary,20,2,fixationCross,8841955.0,8844138.0,2183.0,20,R,8841365,8841537,174,408.8,483.2,3592,left
56,1,binary,20,2,fixationCross,8841955.0,8844138.0,2183.0,20,R,8841685,8841769,86,882.0,492.1,3590,NA
56,1,binary,20,2,fixationCross,8841955.0,8844138.0,2183.0,20,R,8841805,8841919,116,979.4,528.5,3575,NA
56,1,binary,20,2,trial,8841955.0,8844138.0,2183.0,20,R,8841929,8842103,176,963.8,528.7,3661,NA
56,1,binary,20,2,trial,8841955.0,8844138.0,2183.0,20,R,8842155,8842315,162,1407.4,464.4,3766,right
56,1,binary,20,2,trial,8841955.0,8844138.0,2183.0,20,R,8842351,8842701,352,1406.0,530.1,3679,right
56,1,binary,20,2,trial,8841955.0,8844138.0,2183.0,20,R,8842739,8842923,186,1300.7,645.3,3571,right
56,1,binary,20,2,trial,8841955.0,8844138.0,2183.0,20,R,8842999,8843479,482,451.9,522.7,3583,left
56,1,binary,20,2,trial,8841955.0,8844138.0,2183.0,20,R,8843513,8843591,80,531.8,521.5,3515,left
56,1,binary,20,2,postResponse,8841955.0,8844138.0,2183.0,20,R,8843657,8844473,818,1463.5,547.2,3299,right
56,1,binary,21,2,fixationCross,8845239.0,8846656.0,1417.0,21,R,8844573,8844667,96,1454.7,545.6,3334,right
56,1,binary,21,2,fixationCross,8845239.0,8846656.0,1417.0,21,R,8844731,8844947,218,739.8,494.1,3702,NA
56,1,binary,21,2,fixationCross,8845239.0,8846656.0,1417.0,21,R,8844989,8845113,126,967.4,517.5,3900,NA
56,1,binary,21,2,trial,8845239.0,8846656.0,1417.0,21,R,8845131,8845385,256,952.5,531.3,3951,NA
56,1,binary,21,2,trial,8845239.0,8846656.0,1417.0,21,R,8845449,8845573,126,501.3,507.6,3946,left
56,1,binary,21,2,trial,8845239.0,8846656.0,1417.0,21,R,8845719,8845811,94,533.9,499.7,3689,left
56,1,binary,21,2,trial,8845239.0,8846656.0,1417.0,21,R,8845873,8846971,1100,1396.3,507.7,3326,right
56,1,binary,22,2,fixationCross,8847671.0,8849355.0,1684.0,22,R,8847215,8847387,174,856.6,495.2,3393,NA
56,1,binary,22,2,trial,8847671.0,8849355.0,1684.0,22,R,8847421,8847831,412,945.5,519.5,3597,NA
56,1,binary,22,2,trial,8847671.0,8849355.0,1684.0,22,R,8847893,8848109,218,498.9,495.9,3593,left
56,1,binary,22,2,trial,8847671.0,8849355.0,1684.0,22,R,8848141,8848477,338,551.0,506.1,3437,left
56,1,binary,22,2,trial,8847671.0,8849355.0,1684.0,22,R,8848513,8848613,102,549.2,623.7,3358,left
56,1,binary,22,2,trial,8847671.0,8849355.0,1684.0,22,R,8848677,8848911,236,1411.4,545.8,3261,right
56,1,binary,22,2,postResponse,8847671.0,8849355.0,1684.0,22,R,8848931,8849685,756,1434.5,528.1,3243,right
56,1,binary,23,1,fixationCross,8850439.0,8851972.0,1533.0,23,R,8850009,8850125,118,1202.2,483.6,3366,right
56,1,binary,23,1,fixationCross,8850439.0,8851972.0,1533.0,23,R,8850175,8850303,130,974.2,520.9,3402,NA
56,1,binary,23,1,trial,8850439.0,8851972.0,1533.0,23,R,8850313,8850599,288,954.4,532.6,3530,NA
56,1,binary,23,1,trial,8850439.0,8851972.0,1533.0,23,R,8850647,8850861,216,544.3,546.9,3538,left
56,1,binary,23,1,trial,8850439.0,8851972.0,1533.0,23,R,8850927,8851131,206,1493.7,499.7,3262,right
56,1,binary,23,1,trial,8850439.0,8851972.0,1533.0,23,R,8851141,8851391,252,1511.9,483.1,3184,right
56,1,binary,23,1,trial,8850439.0,8851972.0,1533.0,23,R,8851427,8851505,80,1373.0,576.5,3185,right
56,1,binary,23,1,trial,8850439.0,8851972.0,1533.0,23,R,8851563,8851965,404,471.3,532.0,3272,left
56,1,binary,23,1,postResponse,8850439.0,8851972.0,1533.0,23,R,8852003,8852305,304,340.9,402.3,3226,left
56,1,binary,24,1,fixationCross,8853138.0,8855106.0,1968.0,24,R,8852405,8852449,46,341.8,400.1,3241,left
56,1,binary,24,1,fixationCross,8853138.0,8855106.0,1968.0,24,R,8852509,8852691,184,842.1,560.9,3370,NA
56,1,binary,24,1,fixationCross,8853138.0,8855106.0,1968.0,24,R,8852871,8852951,82,1010.9,504.1,3477,NA
56,1,binary,24,1,trial,8853138.0,8855106.0,1968.0,24,R,8852975,8853283,310,959.1,532.6,3638,NA
56,1,binary,24,1,trial,8853138.0,8855106.0,1968.0,24,R,8853329,8853507,180,1326.7,493.3,3619,right
56,1,binary,24,1,trial,8853138.0,8855106.0,1968.0,24,R,8853539,8853589,52,1393.2,515.4,3497,right
56,1,binary,24,1,trial,8853138.0,8855106.0,1968.0,24,R,8853665,8853791,128,429.6,479.5,3521,left
56,1,binary,24,1,trial,8853138.0,8855106.0,1968.0,24,R,8853823,8854007,186,497.3,498.8,3475,left
56,1,binary,24,1,trial,8853138.0,8855106.0,1968.0,24,R,8854039,8854325,288,400.0,507.6,3413,left
56,1,binary,24,1,trial,8853138.0,8855106.0,1968.0,24,R,8854391,8854683,294,1364.3,495.6,3316,right
56,1,binary,24,1,trial,8853138.0,8855106.0,1968.0,24,R,8854707,8854965,260,1389.8,540.0,3422,right
56,1,binary,24,1,trial,8853138.0,8855106.0,1968.0,24,R,8854991,8855307,318,1362.2,622.4,3617,right
56,1,binary,25,2,fixationCross,8855989.0,8857522.0,1533.0,25,R,8855593,8855795,204,946.9,522.5,3619,NA
56,1,binary,25,2,fixationCross,8855989.0,8857522.0,1533.0,25,R,8855815,8855921,108,911.2,474.2,3702,NA
56,1,binary,25,2,trial,8855989.0,8857522.0,1533.0,25,R,8855957,8856209,254,960.4,535.6,3756,NA
56,1,binary,25,2,trial,8855989.0,8857522.0,1533.0,25,R,8856255,8856483,230,1348.8,440.9,3574,right
56,1,binary,25,2,trial,8855989.0,8857522.0,1533.0,25,R,8856507,8856649,144,1395.7,408.3,3402,right
56,1,binary,25,2,trial,8855989.0,8857522.0,1533.0,25,R,8856723,8856913,192,519.5,519.8,3355,left
56,1,binary,25,2,trial,8855989.0,8857522.0,1533.0,25,R,8856943,8857081,140,357.4,420.1,3306,left
56,1,binary,25,2,trial,8855989.0,8857522.0,1533.0,25,R,8857101,8857191,92,380.9,421.9,3304,left
56,1,binary,25,2,trial,8855989.0,8857522.0,1533.0,25,R,8857257,8857491,236,1414.2,408.7,3191,right
56,1,binary,25,2,postResponse,8855989.0,8857522.0,1533.0,25,R,8857515,8857857,344,1339.4,440.1,3227,right
56,1,binary,26,2,fixationCross,8882672.0,8884122.0,1450.0,26,R,8882087,8882177,92,245.7,31.9,3418,NA
56,1,binary,26,2,fixationCross,8882672.0,8884122.0,1450.0,26,R,8882253,8882331,80,1047.6,515.3,3402,NA
56,1,binary,26,2,fixationCross,8882672.0,8884122.0,1450.0,26,R,8882523,8882601,80,932.7,465.4,3458,NA
56,1,binary,26,2,trial,8882672.0,8884122.0,1450.0,26,R,8882633,8882889,258,946.0,526.8,3634,NA
56,1,binary,26,2,trial,8882672.0,8884122.0,1450.0,26,R,8882951,8883179,230,516.0,561.6,3821,left
56,1,binary,26,2,trial,8882672.0,8884122.0,1450.0,26,R,8883201,8883295,96,485.6,494.0,3690,left
56,1,binary,26,2,trial,8882672.0,8884122.0,1450.0,26,R,8883363,8883677,316,1466.5,507.9,3390,right
56,1,binary,26,2,postResponse,8882672.0,8884122.0,1450.0,26,R,8883711,8884461,752,1337.4,536.4,3484,right
56,1,binary,27,2,fixationCross,8885205.0,8886839.0,1634.0,27,R,8884723,8884889,168,817.8,458.4,3528,NA
56,1,binary,27,2,fixationCross,8885205.0,8886839.0,1634.0,27,R,8884927,8885055,130,927.0,512.9,3585,NA
56,1,binary,27,2,trial,8885205.0,8886839.0,1634.0,27,R,8885065,8885359,296,950.3,523.5,3685,NA
56,1,binary,27,2,trial,8885205.0,8886839.0,1634.0,27,R,8885421,8885637,218,555.4,509.1,3610,left
56,1,binary,27,2,trial,8885205.0,8886839.0,1634.0,27,R,8885701,8885931,232,1396.7,561.5,3337,right
56,1,binary,27,2,trial,8885205.0,8886839.0,1634.0,27,R,8885965,8886119,156,1469.8,610.0,3245,right
56,1,binary,27,2,trial,8885205.0,8886839.0,1634.0,27,R,8886141,8886331,192,1455.2,639.3,3256,right
56,1,binary,27,2,trial,8885205.0,8886839.0,1634.0,27,R,8886341,8886425,86,1462.7,628.5,3277,right
56,1,binary,27,2,postResponse,8885205.0,8886839.0,1634.0,27,R,8886453,8887171,720,1352.7,466.0,3290,right
56,1,binary,28,1,fixationCross,8887873.0,8889172.0,1299.0,28,R,8887247,8887357,112,1342.6,464.8,3278,right
56,1,binary,28,1,fixationCross,8887873.0,8889172.0,1299.0,28,R,8887389,8887567,180,1107.3,551.5,3386,NA
56,1,binary,28,1,fixationCross,8887873.0,8889172.0,1299.0,28,R,8887603,8887739,138,935.1,529.5,3486,NA
56,1,binary,28,1,trial,8887873.0,8889172.0,1299.0,28,R,8887757,8888013,258,952.0,530.2,3583,NA
56,1,binary,28,1,trial,8887873.0,8889172.0,1299.0,28,R,8888075,8888233,160,533.3,494.3,3644,left
56,1,binary,28,1,trial,8887873.0,8889172.0,1299.0,28,R,8888255,8888439,186,542.5,525.8,3522,left
56,1,binary,28,1,trial,8887873.0,8889172.0,1299.0,28,R,8888503,8888701,200,1489.9,555.6,3310,right
56,1,binary,28,1,trial,8887873.0,8889172.0,1299.0,28,R,8888733,8888857,126,1389.9,543.7,3275,right
56,1,binary,28,1,trial,8887873.0,8889172.0,1299.0,28,R,8888925,8889209,286,437.3,531.0,3321,left
56,1,binary,28,1,postResponse,8887873.0,8889172.0,1299.0,28,R,8889243,8889507,266,539.8,522.2,3264,left
56,1,binary,29,2,fixationCross,8890306.0,8891722.0,1416.0,29,R,8889607,8889861,256,543.1,522.8,3290,left
56,1,binary,29,2,fixationCross,8890306.0,8891722.0,1416.0,29,R,8890021,8890115,96,931.3,496.9,3342,NA
56,1,binary,29,2,trial,8890306.0,8891722.0,1416.0,29,R,8890143,8890507,366,966.9,539.8,3473,NA
56,1,binary,29,2,trial,8890306.0,8891722.0,1416.0,29,R,8890551,8890857,308,1337.2,556.6,3429,right
56,1,binary,29,2,trial,8890306.0,8891722.0,1416.0,29,R,8890891,8890957,68,1378.7,603.0,3336,right
56,1,binary,29,2,trial,8890306.0,8891722.0,1416.0,29,R,8891021,8891165,146,467.4,505.7,3367,left
56,1,binary,29,2,trial,8890306.0,8891722.0,1416.0,29,R,8891191,8891517,328,363.8,397.2,3274,left
56,1,binary,29,2,postResponse,8890306.0,8891722.0,1416.0,29,R,8891583,8892057,476,1409.9,575.3,3192,right
56,1,binary,30,1,fixationCross,8892789.0,8894323.0,1534.0,30,R,8892319,8892457,140,721.2,518.2,3438,left
56,1,binary,30,1,fixationCross,8892789.0,8894323.0,1534.0,30,R,8892495,8892605,112,921.2,541.4,3494,NA
56,1,binary,30,1,trial,8892789.0,8894323.0,1534.0,30,R,8892625,8892925,302,951.6,544.6,3723,NA
56,1,binary,30,1,trial,8892789.0,8894323.0,1534.0,30,R,8892991,8893133,144,490.9,491.7,3788,left
56,1,binary,30,1,trial,8892789.0,8894323.0,1534.0,30,R,8893155,8893533,380,507.1,501.8,3567,left
56,1,binary,30,1,trial,8892789.0,8894323.0,1534.0,30,R,8893597,8893845,250,1373.4,494.2,3369,right
56,1,binary,30,1,trial,8892789.0,8894323.0,1534.0,30,R,8893881,8893945,66,1364.3,595.9,3373,right
56,1,binary,30,1,trial,8892789.0,8894323.0,1534.0,30,R,8894015,8894345,332,525.9,499.5,3430,left
56,1,binary,30,1,postResponse,8892789.0,8894323.0,1534.0,30,R,8894363,8894657,296,504.5,499.6,3448,left
56,1,binary,31,2,fixationCross,8895372.0,8896905.0,1533.0,31,R,8894731,8894753,24,504.2,498.7,3442,left
56,1,binary,31,2,fixationCross,8895372.0,8896905.0,1533.0,31,R,8894943,8895047,106,795.6,484.8,3467,NA
56,1,binary,31,2,trial,8895372.0,8896905.0,1533.0,31,R,8895085,8895517,434,947.1,526.6,3507,NA
56,1,binary,31,2,trial,8895372.0,8896905.0,1533.0,31,R,8895581,8895981,402,471.5,484.1,3448,left
56,1,binary,31,2,trial,8895372.0,8896905.0,1533.0,31,R,8896043,8896383,342,1313.6,500.8,3181,right
56,1,binary,31,2,postResponse,8895372.0,8896905.0,1533.0,31,R,8896409,8897243,836,1460.6,536.4,3109,right
56,1,binary,32,1,fixationCross,8897923.0,8899389.0,1466.0,32,R,8897317,8897387,72,1448.8,533.7,3113,right
56,1,binary,32,1,fixationCross,8897923.0,8899389.0,1466.0,32,R,8897423,8897611,190,1272.1,485.2,3241,right
56,1,binary,32,1,fixationCross,8897923.0,8899389.0,1466.0,32,R,8897643,8897789,148,973.9,531.2,3364,NA
56,1,binary,32,1,trial,8897923.0,8899389.0,1466.0,32,R,8897809,8898055,248,948.3,532.9,3446,NA
56,1,binary,32,1,trial,8897923.0,8899389.0,1466.0,32,R,8898117,8898297,182,521.6,484.3,3544,left
56,1,binary,32,1,trial,8897923.0,8899389.0,1466.0,32,R,8898333,8898431,100,424.8,620.6,3512,left
56,1,binary,32,1,trial,8897923.0,8899389.0,1466.0,32,R,8898497,8898771,276,1405.3,530.6,3299,right
56,1,binary,32,1,trial,8897923.0,8899389.0,1466.0,32,R,8898803,8898857,56,1310.0,538.0,3293,right
56,1,binary,32,1,trial,8897923.0,8899389.0,1466.0,32,R,8898933,8899649,718,439.1,647.7,3455,left
56,1,binary,33,1,fixationCross,8900439.0,8902273.0,1834.0,33,R,8899889,8900111,224,554.2,478.1,3351,left
56,1,binary,33,1,fixationCross,8900439.0,8902273.0,1834.0,33,R,8900155,8900265,112,916.2,536.7,3453,NA
56,1,binary,33,1,trial,8900439.0,8902273.0,1834.0,33,R,8900293,8900633,342,954.5,535.4,3462,NA
56,1,binary,33,1,trial,8900439.0,8902273.0,1834.0,33,R,8900697,8900861,166,511.7,548.0,3463,left
56,1,binary,33,1,trial,8900439.0,8902273.0,1834.0,33,R,8900881,8901135,256,488.8,478.4,3364,left
56,1,binary,33,1,trial,8900439.0,8902273.0,1834.0,33,R,8901153,8901237,86,502.4,476.3,3291,left
56,1,binary,33,1,trial,8900439.0,8902273.0,1834.0,33,R,8901297,8901495,200,1336.7,493.7,3201,right
56,1,binary,33,1,trial,8900439.0,8902273.0,1834.0,33,R,8901535,8901655,122,1499.1,541.7,3254,right
56,1,binary,33,1,trial,8900439.0,8902273.0,1834.0,33,R,8901675,8901813,140,1513.2,531.5,3340,right
56,1,binary,33,1,postResponse,8900439.0,8902273.0,1834.0,33,R,8901891,8902621,732,498.2,556.9,3407,left
56,1,binary,34,2,fixationCross,8903356.0,8904706.0,1350.0,34,R,8902947,8903053,108,762.1,498.7,3438,NA
56,1,binary,34,2,trial,8903356.0,8904706.0,1350.0,34,R,8903089,8903543,456,964.7,533.8,3517,NA
56,1,binary,34,2,trial,8903356.0,8904706.0,1350.0,34,R,8903577,8903881,306,1318.3,446.3,3453,right
56,1,binary,34,2,trial,8903356.0,8904706.0,1350.0,34,R,8903957,8904299,344,418.2,568.3,3395,left
56,1,binary,34,2,trial,8903356.0,8904706.0,1350.0,34,R,8904335,8904439,106,513.5,625.1,3344,left
56,1,binary,34,2,postResponse,8903356.0,8904706.0,1350.0,34,R,8904501,8905041,542,1405.5,472.0,3157,right
56,1,binary,35,1,fixationCross,8905806.0,8907306.0,1500.0,35,R,8905141,8905327,188,1398.6,477.0,3338,right
56,1,binary,35,1,fixationCross,8905806.0,8907306.0,1500.0,35,R,8905361,8905491,132,1173.8,493.9,3502,NA
56,1,binary,35,1,fixationCross,8905806.0,8907306.0,1500.0,35,R,8905531,8905621,92,990.2,522.8,3574,NA
56,1,binary,35,1,trial,8905806.0,8907306.0,1500.0,35,R,8905641,8905953,314,963.6,540.2,3647,NA
56,1,binary,35,1,trial,8905806.0,8907306.0,1500.0,35,R,8906015,8906271,258,548.5,546.8,3758,left
56,1,binary,35,1,trial,8905806.0,8907306.0,1500.0,35,R,8906333,8906647,316,1406.1,527.8,3430,right
56,1,binary,35,1,trial,8905806.0,8907306.0,1500.0,35,R,8906697,8906787,92,1355.5,685.5,3384,right
56,1,binary,35,1,trial,8905806.0,8907306.0,1500.0,35,R,8906863,8907343,482,438.5,538.1,3395,left
56,1,binary,35,1,trial,8905806.0,8907306.0,1500.0,35,R,8907399,8907517,120,1368.9,470.7,3189,right
56,1,binary,36,2,fixationCross,8908422.0,8909906.0,1484.0,36,R,8907829,8908117,290,571.1,501.8,3407,left
56,1,binary,36,2,fixationCross,8908422.0,8909906.0,1484.0,36,R,8908173,8908271,100,914.5,532.4,3506,NA
56,1,binary,36,2,trial,8908422.0,8909906.0,1484.0,36,R,8908301,8908617,318,963.2,535.5,3417,NA
56,1,binary,36,2,trial,8908422.0,8909906.0,1484.0,36,R,8908679,8908935,258,486.9,528.7,3355,left
56,1,binary,36,2,trial,8908422.0,8909906.0,1484.0,36,R,8908961,8909131,172,496.9,464.1,3256,left
56,1,binary,36,2,trial,8908422.0,8909906.0,1484.0,36,R,8909165,8909253,90,515.7,548.2,3206,left
56,1,binary,36,2,postResponse,8908422.0,8909906.0,1484.0,36,R,8909319,8910239,922,1477.2,542.6,3353,right
56,1,binary,37,1,fixationCross,8910956.0,8912689.0,1733.0,37,R,8910315,8910403,90,1467.5,545.1,3638,right
56,1,binary,37,1,fixationCross,8910956.0,8912689.0,1733.0,37,R,8910443,8910641,200,1250.8,511.8,3707,right
56,1,binary,37,1,trial,8910956.0,8912689.0,1733.0,37,R,8910695,8911127,434,955.8,521.0,3793,NA
56,1,binary,37,1,trial,8910956.0,8912689.0,1733.0,37,R,8911185,8911405,222,554.0,537.5,3834,left
56,1,binary,37,1,trial,8910956.0,8912689.0,1733.0,37,R,8911427,8911643,218,509.9,445.8,3604,left
56,1,binary,37,1,trial,8910956.0,8912689.0,1733.0,37,R,8911707,8911873,168,1362.6,502.1,3337,right
56,1,binary,37,1,trial,8910956.0,8912689.0,1733.0,37,R,8911907,8912077,172,1511.2,452.4,3235,right
56,1,binary,37,1,trial,8910956.0,8912689.0,1733.0,37,R,8912127,8912319,194,1249.4,587.5,3223,right
56,1,binary,37,1,trial,8910956.0,8912689.0,1733.0,37,R,8912343,8912415,74,1286.0,617.8,3223,right
56,1,binary,37,1,postResponse,8910956.0,8912689.0,1733.0,37,R,8912487,8913021,536,524.9,461.4,3244,left
56,1,binary,38,1,fixationCross,8913822.0,8915323.0,1501.0,38,R,8913121,8913383,264,521.1,462.4,3241,left
56,1,binary,38,1,fixationCross,8913822.0,8915323.0,1501.0,38,R,8913443,8913559,118,1091.8,515.8,3283,NA
56,1,binary,38,1,trial,8913822.0,8915323.0,1501.0,38,R,8913593,8913987,396,963.9,530.6,3435,NA
56,1,binary,38,1,trial,8913822.0,8915323.0,1501.0,38,R,8914037,8914175,140,1405.1,480.9,3575,right
56,1,binary,38,1,trial,8913822.0,8915323.0,1501.0,38,R,8914197,8914403,208,1407.7,423.1,3444,right
56,1,binary,38,1,trial,8913822.0,8915323.0,1501.0,38,R,8914481,8914877,398,498.1,575.8,3389,left
56,1,binary,38,1,postResponse,8913822.0,8915323.0,1501.0,38,R,8914919,8915669,752,316.0,582.6,3210,left
56,1,binary,39,1,fixationCross,8916240.0,8917523.0,1283.0,39,R,8915943,8916077,136,892.6,464.8,3261,NA
56,1,binary,39,1,trial,8916240.0,8917523.0,1283.0,39,R,8916111,8916377,268,958.3,530.4,3417,NA
56,1,binary,39,1,trial,8916240.0,8917523.0,1283.0,39,R,8916417,8916553,138,1398.8,489.1,3500,right
56,1,binary,39,1,trial,8916240.0,8917523.0,1283.0,39,R,8916583,8917005,424,1392.0,526.5,3404,right
56,1,binary,39,1,trial,8916240.0,8917523.0,1283.0,39,R,8917081,8917249,170,494.1,501.5,3512,left
56,1,binary,39,1,postResponse,8916240.0,8917523.0,1283.0,39,R,8917285,8917857,574,603.5,481.3,3432,left
56,1,binary,40,2,fixationCross,8918639.0,8920157.0,1518.0,40,R,8917931,8918193,264,602.7,477.7,3509,left
56,1,binary,40,2,fixationCross,8918639.0,8920157.0,1518.0,40,R,8918221,8918345,126,829.6,522.2,3560,NA
56,1,binary,40,2,trial,8918639.0,8920157.0,1518.0,40,R,8918381,8918805,426,953.1,531.3,3523,NA
56,1,binary,40,2,trial,8918639.0,8920157.0,1518.0,40,R,8918903,8919205,304,528.2,471.3,3602,left
56,1,binary,40,2,trial,8918639.0,8920157.0,1518.0,40,R,8919243,8919367,126,336.2,561.3,3492,left
56,1,binary,40,2,trial,8918639.0,8920157.0,1518.0,40,R,8919439,8920439,1002,1483.2,554.1,3449,right
56,1,binary,41,1,fixationCross,8921190.0,8922640.0,1450.0,41,R,8920683,8920893,212,1379.1,450.9,3582,right
56,1,binary,41,1,fixationCross,8921190.0,8922640.0,1450.0,41,R,8920933,8921071,140,915.8,511.7,3734,NA
56,1,binary,41,1,trial,8921190.0,8922640.0,1450.0,41,R,8921101,8921329,230,953.8,533.4,3700,NA
56,1,binary,41,1,trial,8921190.0,8922640.0,1450.0,41,R,8921391,8921545,156,532.5,465.3,3586,left
56,1,binary,41,1,trial,8921190.0,8922640.0,1450.0,41,R,8921573,8921829,258,367.6,536.8,3432,left
56,1,binary,41,1,trial,8921190.0,8922640.0,1450.0,41,R,8921871,8922041,172,614.6,544.5,3289,left
56,1,binary,41,1,trial,8921190.0,8922640.0,1450.0,41,R,8922105,8922401,298,1482.8,506.2,3133,right
56,1,binary,41,1,postResponse,8921190.0,8922640.0,1450.0,41,R,8922479,8922973,496,471.7,524.6,3306,left
56,1,binary,42,2,fixationCross,8923672.0,8925073.0,1401.0,42,R,8923211,8923367,158,741.3,496.6,3520,NA
56,1,binary,42,2,trial,8923672.0,8925073.0,1401.0,42,R,8923417,8923817,402,954.9,526.9,3700,NA
56,1,binary,42,2,trial,8923672.0,8925073.0,1401.0,42,R,8923855,8924041,188,1382.5,515.1,3669,right
56,1,binary,42,2,trial,8923672.0,8925073.0,1401.0,42,R,8924077,8924189,114,1324.5,589.9,3570,right
56,1,binary,42,2,trial,8923672.0,8925073.0,1401.0,42,R,8924263,8924535,274,472.1,506.6,3463,left
56,1,binary,42,2,trial,8923672.0,8925073.0,1401.0,42,R,8924571,8924731,162,607.6,400.1,3322,left
56,1,binary,42,2,postResponse,8923672.0,8925073.0,1401.0,42,R,8924793,8925419,628,1424.5,523.2,3127,right
56,1,binary,43,1,fixationCross,8927206.0,8928707.0,1501.0,43,R,8925493,8925639,148,1416.0,524.7,3226,right
56,1,binary,43,1,fixationCross,8927206.0,8928707.0,1501.0,43,R,8925697,8926911,1216,841.6,458.8,3546,NA
56,1,binary,43,1,fixationCross,8927206.0,8928707.0,1501.0,43,R,8926945,8927055,112,934.8,494.0,3606,NA
56,1,binary,43,1,trial,8927206.0,8928707.0,1501.0,43,R,8927077,8927373,298,960.9,523.9,3654,NA
56,1,binary,43,1,trial,8927206.0,8928707.0,1501.0,43,R,8927439,8927635,198,505.5,439.3,3704,left
56,1,binary,43,1,trial,8927206.0,8928707.0,1501.0,43,R,8927667,8927883,218,407.1,411.0,3535,left
56,1,binary,43,1,trial,8927206.0,8928707.0,1501.0,43,R,8927921,8928129,210,368.3,538.3,3392,left
56,1,binary,43,1,trial,8927206.0,8928707.0,1501.0,43,R,8928165,8928295,132,613.0,451.5,3343,left
56,1,binary,43,1,trial,8927206.0,8928707.0,1501.0,43,R,8928341,8928533,194,313.8,676.7,3356,left
56,1,binary,43,1,trial,8927206.0,8928707.0,1501.0,43,R,8928557,8928741,186,353.3,630.8,3362,left
56,1,binary,43,1,postResponse,8927206.0,8928707.0,1501.0,43,R,8928767,8929051,286,358.8,451.5,3268,left
56,1,binary,44,1,fixationCross,8929806.0,8931323.0,1517.0,44,R,8929151,8929177,28,358.0,455.9,3257,left
56,1,binary,44,1,fixationCross,8929806.0,8931323.0,1517.0,44,R,8929385,8929515,132,789.3,478.1,3340,NA
56,1,binary,44,1,fixationCross,8929806.0,8931323.0,1517.0,44,R,8929553,8929715,164,944.2,512.9,3400,NA
56,1,binary,44,1,trial,8929806.0,8931323.0,1517.0,44,R,8929731,8929957,228,958.4,534.3,3610,NA
56,1,binary,44,1,trial,8929806.0,8931323.0,1517.0,44,R,8930013,8930175,164,1484.3,435.8,3570,right
56,1,binary,44,1,trial,8929806.0,8931323.0,1517.0,44,R,8930207,8930573,368,1551.1,379.2,3410,right
56,1,binary,44,1,postResponse,8929806.0,8931323.0,1517.0,44,R,8930653,8931669,1018,484.1,529.3,3300,left
56,1,binary,45,1,fixationCross,8932373.0,8933873.0,1500.0,45,R,8931901,8932073,174,853.9,491.8,3286,NA
56,1,binary,45,1,trial,8932373.0,8933873.0,1500.0,45,R,8932107,8932519,414,961.4,519.3,3489,NA
56,1,binary,45,1,trial,8932373.0,8933873.0,1500.0,45,R,8932563,8932737,176,1387.5,474.8,3405,right
56,1,binary,45,1,trial,8932373.0,8933873.0,1500.0,45,R,8932773,8932883,112,1362.8,572.0,3333,right
56,1,binary,45,1,trial,8932373.0,8933873.0,1500.0,45,R,8932961,8933245,286,402.8,438.4,3310,left
56,1,binary,45,1,trial,8932373.0,8933873.0,1500.0,45,R,8933281,8933503,224,448.1,514.9,3265,left
56,1,binary,45,1,trial,8932373.0,8933873.0,1500.0,45,R,8933523,8933893,372,390.7,474.3,3181,left
56,1,binary,45,1,postResponse,8932373.0,8933873.0,1500.0,45,R,8933923,8934227,306,350.6,541.3,3149,left
56,1,binary,46,1,fixationCross,8934806.0,8936640.0,1834.0,46,R,8934523,8934699,178,960.7,477.9,3321,NA
56,1,binary,46,1,trial,8934806.0,8936640.0,1834.0,46,R,8934721,8934949,230,970.8,507.6,3472,NA
56,1,binary,46,1,trial,8934806.0,8936640.0,1834.0,46,R,8935001,8935193,194,1412.9,465.6,3533,right
56,1,binary,46,1,trial,8934806.0,8936640.0,1834.0,46,R,8935229,8935343,116,1520.8,462.7,3478,right
56,1,binary,46,1,trial,8934806.0,8936640.0,1834.0,46,R,8935425,8935617,194,458.0,506.1,3543,left
56,1,binary,46,1,trial,8934806.0,8936640.0,1834.0,46,R,8935643,8935869,228,482.0,498.5,3447,left
56,1,binary,46,1,trial,8934806.0,8936640.0,1834.0,46,R,8935899,8936025,128,529.7,520.4,3335,left
56,1,binary,46,1,trial,8934806.0,8936640.0,1834.0,46,R,8936089,8936285,198,1472.0,431.3,3176,right
56,1,binary,46,1,trial,8934806.0,8936640.0,1834.0,46,R,8936317,8936431,116,1387.2,452.6,3211,right
56,1,binary,46,1,postResponse,8934806.0,8936640.0,1834.0,46,R,8936507,8936983,478,490.5,704.0,3666,left
56,1,binary,47,1,fixationCross,8937557.0,8939324.0,1767.0,47,R,8937195,8937429,236,898.3,464.8,3741,NA
56,1,binary,47,1,trial,8937557.0,8939324.0,1767.0,47,R,8937463,8937751,290,966.8,530.1,3794,NA
56,1,binary,47,1,trial,8937557.0,8939324.0,1767.0,47,R,8937815,8938045,232,481.8,507.7,3689,left
56,1,binary,47,1,trial,8937557.0,8939324.0,1767.0,47,R,8938109,8938703,596,1370.4,527.5,3326,right
56,1,binary,47,1,trial,8937557.0,8939324.0,1767.0,47,R,8938755,8938933,180,1429.8,657.5,3334,right
56,1,binary,47,1,postResponse,8937557.0,8939324.0,1767.0,47,R,8939003,8939655,654,428.9,484.7,3363,left
56,1,binary,48,1,fixationCross,8940406.0,8942390.0,1984.0,48,R,8939731,8939893,164,431.4,488.0,3187,left
56,1,binary,48,1,fixationCross,8940406.0,8942390.0,1984.0,48,R,8939937,8940095,160,814.4,517.4,3239,NA
56,1,binary,48,1,trial,8940406.0,8942390.0,1984.0,48,R,8940133,8940555,424,965.0,528.0,3346,NA
56,1,binary,48,1,trial,8940406.0,8942390.0,1984.0,48,R,8940597,8940929,334,1398.9,466.2,3394,right
56,1,binary,48,1,trial,8940406.0,8942390.0,1984.0,48,R,8941003,8941295,294,480.7,520.0,3366,left
56,1,binary,48,1,trial,8940406.0,8942390.0,1984.0,48,R,8941317,8941653,338,402.7,460.9,3296,left
56,1,binary,48,1,trial,8940406.0,8942390.0,1984.0,48,R,8941717,8941975,260,1500.1,431.2,3116,right
56,1,binary,48,1,trial,8940406.0,8942390.0,1984.0,48,R,8942007,8942119,114,1427.0,482.2,3135,right
56,1,binary,48,1,postResponse,8940406.0,8942390.0,1984.0,48,R,8942195,8942723,530,458.0,480.7,3317,left
56,1,binary,49,2,fixationCross,8943473.0,8945423.0,1950.0,49,R,8942823,8942861,40,460.9,486.8,3457,left
56,1,binary,49,2,fixationCross,8943473.0,8945423.0,1950.0,49,R,8942923,8943169,248,974.6,427.0,3533,NA
56,1,binary,49,2,fixationCross,8943473.0,8945423.0,1950.0,49,R,8943213,8943341,130,935.2,508.1,3586,NA
56,1,binary,49,2,trial,8943473.0,8945423.0,1950.0,49,R,8943363,8943625,264,959.3,526.2,3660,NA
56,1,binary,49,2,trial,8943473.0,8945423.0,1950.0,49,R,8943679,8944103,426,522.6,456.4,3660,left
56,1,binary,49,2,trial,8943473.0,8945423.0,1950.0,49,R,8944139,8944365,228,648.9,507.3,3451,left
56,1,binary,49,2,trial,8943473.0,8945423.0,1950.0,49,R,8944429,8944649,222,1478.3,489.1,3307,right
56,1,binary,49,2,trial,8943473.0,8945423.0,1950.0,49,R,8944677,8944731,56,1520.3,504.8,3285,right
56,1,binary,49,2,trial,8943473.0,8945423.0,1950.0,49,R,8944769,8945073,306,1313.6,381.7,3247,right
56,1,binary,49,2,trial,8943473.0,8945423.0,1950.0,49,R,8945099,8945249,152,1396.1,398.5,3231,right
56,1,binary,49,2,postResponse,8943473.0,8945423.0,1950.0,49,R,8945289,8945771,484,1471.1,542.7,3262,right
56,1,binary,50,2,fixationCross,8946490.0,8948673.0,2183.0,50,R,8946087,8946235,150,882.3,442.1,3315,NA
56,1,binary,50,2,trial,8946490.0,8948673.0,2183.0,50,R,8946261,8946607,348,937.2,501.3,3389,NA
56,1,binary,50,2,trial,8946490.0,8948673.0,2183.0,50,R,8946647,8946781,136,598.7,481.1,3459,left
56,1,binary,50,2,trial,8946490.0,8948673.0,2183.0,50,R,8946815,8946943,130,485.3,526.8,3419,left
56,1,binary,50,2,trial,8946490.0,8948673.0,2183.0,50,R,8947007,8947183,178,1384.4,526.8,3182,right
56,1,binary,50,2,trial,8946490.0,8948673.0,2183.0,50,R,8947213,8948213,1002,1459.7,528.2,3142,right
56,1,binary,50,2,trial,8946490.0,8948673.0,2183.0,50,R,8948269,8948615,348,1019.5,944.2,3576,likertHorizontal
56,1,binary,50,2,postResponse,8946490.0,8948673.0,2183.0,50,R,8948735,8949007,274,1391.3,429.2,3709,right
56,2,continuous,1,68,fixationCross,9007007.0,9009824.0,2817.0,51,R,9006225,9006519,296,910.7,863.0,4069,likertHorizontal
56,2,continuous,1,68,fixationCross,9007007.0,9009824.0,2817.0,51,R,9006545,9006609,66,877.2,857.2,4157,likertHorizontal
56,2,continuous,1,68,fixationCross,9007007.0,9009824.0,2817.0,51,R,9006643,9006757,116,956.8,434.9,4109,NA
56,2,continuous,1,68,trial,9007007.0,9009824.0,2817.0,51,R,9006805,9007175,372,969.0,534.8,4047,NA
56,2,continuous,1,68,trial,9007007.0,9009824.0,2817.0,51,R,9007237,9007489,254,575.5,515.0,3976,left
56,2,continuous,1,68,trial,9007007.0,9009824.0,2817.0,51,R,9007571,9007829,260,1378.6,551.3,3651,right
56,2,continuous,1,68,trial,9007007.0,9009824.0,2817.0,51,R,9007861,9007897,38,1409.6,614.5,3574,right
56,2,continuous,1,68,trial,9007007.0,9009824.0,2817.0,51,R,9007973,9008133,162,473.1,492.4,3680,left
56,2,continuous,1,68,trial,9007007.0,9009824.0,2817.0,51,R,9008165,9008285,122,306.1,601.1,3692,left
56,2,continuous,1,68,trial,9007007.0,9009824.0,2817.0,51,R,9008353,9008469,118,1396.5,550.5,3491,right
56,2,continuous,1,68,trial,9007007.0,9009824.0,2817.0,51,R,9008513,9008685,174,1073.1,887.2,3532,likertHorizontal
56,2,continuous,1,68,trial,9007007.0,9009824.0,2817.0,51,R,9008721,9009621,902,1349.2,565.9,3671,right
56,2,continuous,1,68,postResponse,9007007.0,9009824.0,2817.0,51,R,9009659,9010173,516,1489.3,552.3,3672,right
56,2,continuous,2,64,fixationCross,9010857.0,9013341.0,2484.0,52,R,9010277,9010445,170,1041.7,514.3,3726,NA
56,2,continuous,2,64,fixationCross,9010857.0,9013341.0,2484.0,52,R,9010611,9010703,94,873.8,503.1,3850,NA
56,2,continuous,2,64,trial,9010857.0,9013341.0,2484.0,52,R,9010737,9011033,298,970.0,537.7,3959,NA
56,2,continuous,2,64,trial,9010857.0,9013341.0,2484.0,52,R,9011095,9011317,224,573.2,522.4,3884,left
56,2,continuous,2,64,trial,9010857.0,9013341.0,2484.0,52,R,9011351,9011447,98,643.2,529.7,3679,left
56,2,continuous,2,64,trial,9010857.0,9013341.0,2484.0,52,R,9011509,9011663,156,1448.3,503.1,3446,right
56,2,continuous,2,64,trial,9010857.0,9013341.0,2484.0,52,R,9011697,9012005,310,1531.3,556.3,3366,right
56,2,continuous,2,64,trial,9010857.0,9013341.0,2484.0,52,R,9012083,9012699,618,538.1,535.1,3443,left
56,2,continuous,2,64,trial,9010857.0,9013341.0,2484.0,52,R,9012739,9012889,152,749.3,590.7,3557,NA
56,2,continuous,2,64,postResponse,9010857.0,9013341.0,2484.0,52,R,9012945,9013675,732,1348.2,546.8,3622,right
56,2,continuous,3,37,fixationCross,9014441.0,9016024.0,1583.0,53,R,9013749,9013979,232,1340.7,541.6,3657,right
56,2,continuous,3,37,fixationCross,9014441.0,9016024.0,1583.0,53,R,9014173,9014267,96,934.2,529.9,3685,NA
56,2,continuous,3,37,trial,9014441.0,9016024.0,1583.0,53,R,9014287,9014581,296,961.8,534.7,3694,NA
56,2,continuous,3,37,trial,9014441.0,9016024.0,1583.0,53,R,9014647,9015031,386,487.9,517.5,3552,left
56,2,continuous,3,37,trial,9014441.0,9016024.0,1583.0,53,R,9015095,9015373,280,1417.1,528.4,3247,right
56,2,continuous,3,37,trial,9014441.0,9016024.0,1583.0,53,R,9015397,9015541,146,1430.3,564.0,3210,right
56,2,continuous,3,37,trial,9014441.0,9016024.0,1583.0,53,R,9015619,9015857,240,423.6,555.0,3382,left
56,2,continuous,3,37,postResponse,9014441.0,9016024.0,1583.0,53,R,9015883,9016369,488,315.0,553.5,3282,left
56,2,continuous,4,13,fixationCross,9017008.0,9020207.0,3199.0,54,R,9016443,9016475,34,318.7,552.5,3250,left
56,2,continuous,4,13,fixationCross,9017008.0,9020207.0,3199.0,54,R,9016503,9016705,204,626.9,540.4,3313,left
56,2,continuous,4,13,fixationCross,9017008.0,9020207.0,3199.0,54,R,9016753,9016867,116,975.9,555.6,3377,NA
56,2,continuous,4,13,trial,9017008.0,9020207.0,3199.0,54,R,9016887,9017217,332,954.9,539.2,3521,NA
56,2,continuous,4,13,trial,9017008.0,9020207.0,3199.0,54,R,9017265,9017443,180,1348.9,538.8,3482,right
56,2,continuous,4,13,trial,9017008.0,9020207.0,3199.0,54,R,9017481,9018189,710,1526.1,520.6,3400,right
56,2,continuous,4,13,trial,9017008.0,9020207.0,3199.0,54,R,9018269,9018429,162,532.0,529.4,3547,left
56,2,continuous,4,13,trial,9017008.0,9020207.0,3199.0,54,R,9018459,9018733,276,561.2,515.8,3544,left
56,2,continuous,4,13,trial,9017008.0,9020207.0,3199.0,54,R,9018765,9018851,88,493.7,542.1,3539,left
56,2,continuous,4,13,trial,9017008.0,9020207.0,3199.0,54,R,9018891,9019345,456,658.1,643.0,3599,left
56,2,continuous,4,13,trial,9017008.0,9020207.0,3199.0,54,R,9019377,9019497,122,466.1,953.0,3780,NA
56,2,continuous,4,13,trial,9017008.0,9020207.0,3199.0,54,R,9019567,9020033,468,1455.9,520.9,3733,right
56,2,continuous,4,13,postResponse,9017008.0,9020207.0,3199.0,54,R,9020109,9020539,432,598.8,555.5,3804,left
56,2,continuous,5,98,fixationCross,9021140.0,9022991.0,1851.0,55,R,9020639,9020687,50,600.5,548.8,3749,left
56,2,continuous,5,98,fixationCross,9021140.0,9022991.0,1851.0,55,R,9020741,9021055,316,906.3,503.6,3692,NA
56,2,continuous,5,98,trial,9021140.0,9022991.0,1851.0,55,R,9021087,9021305,220,964.6,529.4,3668,NA
56,2,continuous,5,98,trial,9021140.0,9022991.0,1851.0,55,R,9021335,9021485,152,1196.5,490.2,3613,right
56,2,continuous,5,98,trial,9021140.0,9022991.0,1851.0,55,R,9021521,9021825,306,1322.9,475.5,3501,right
56,2,continuous,5,98,trial,9021140.0,9022991.0,1851.0,55,R,9021899,9022451,554,497.1,479.6,3513,left
56,2,continuous,5,98,postResponse,9021140.0,9022991.0,1851.0,55,R,9022515,9023325,812,1420.0,523.8,3505,right
56,2,continuous,6,81,fixationCross,9025274.0,9027308.0,2034.0,56,R,9023425,9023585,162,1413.7,525.5,3664,right
56,2,continuous,6,81,fixationCross,9025274.0,9027308.0,2034.0,56,R,9023637,9025025,1390,801.8,487.7,3701,NA
56,2,continuous,6,81,trial,9025274.0,9027308.0,2034.0,56,R,9025059,9025451,394,928.9,499.1,3690,NA
56,2,continuous,6,81,trial,9025274.0,9027308.0,2034.0,56,R,9025493,9025763,272,617.7,504.6,3692,left
56,2,continuous,6,81,trial,9025274.0,9027308.0,2034.0,56,R,9025789,9025887,100,485.9,511.3,3548,left
56,2,continuous,6,81,trial,9025274.0,9027308.0,2034.0,56,R,9025953,9026339,388,1396.3,489.2,3340,right
56,2,continuous,6,81,postResponse,9025274.0,9027308.0,2034.0,56,R,9026373,9027641,1270,1466.9,556.6,3334,right
56,2,continuous,7,86,fixationCross,9028341.0,9030858.0,2517.0,57,R,9027909,9028025,118,814.2,443.8,3483,NA
56,2,continuous,7,86,trial,9028341.0,9030858.0,2517.0,57,R,9028063,9028469,408,958.4,539.9,3708,NA
56,2,continuous,7,86,trial,9028341.0,9030858.0,2517.0,57,R,9028531,9028725,196,538.9,497.3,3733,left
56,2,continuous,7,86,trial,9028341.0,9030858.0,2517.0,57,R,9028747,9028881,136,551.7,451.2,3544,left
56,2,continuous,7,86,trial,9028341.0,9030858.0,2517.0,57,R,9028945,9029141,198,1429.2,570.4,3283,right
56,2,continuous,7,86,trial,9028341.0,9030858.0,2517.0,57,R,9029173,9029303,132,1469.1,636.7,3226,right
56,2,continuous,7,86,trial,9028341.0,9030858.0,2517.0,57,R,9029313,9029559,248,1475.6,659.3,3260,right
56,2,continuous,7,86,trial,9028341.0,9030858.0,2517.0,57,R,9029613,9029819,208,1003.3,893.3,3397,likertHorizontal
56,2,continuous,7,86,trial,9028341.0,9030858.0,2517.0,57,R,9029857,9030353,498,1294.8,618.8,3411,right
56,2,continuous,7,86,postResponse,9028341.0,9030858.0,2517.0,57,R,9030377,9031191,816,1369.4,529.3,3449,right
56,2,continuous,8,87,fixationCross,9032057.0,9034857.0,2800.0,58,R,9031265,9031489,226,1364.7,533.8,3596,right
56,2,continuous,8,87,fixationCross,9032057.0,9034857.0,2800.0,58,R,9031655,9031745,92,748.2,488.2,3747,NA
56,2,continuous,8,87,fixationCross,9032057.0,9034857.0,2800.0,58,R,9031785,9031953,170,945.0,536.7,3749,NA
56,2,continuous,8,87,trial,9032057.0,9034857.0,2800.0,58,R,9031973,9032197,226,965.7,544.4,3872,NA
56,2,continuous,8,87,trial,9032057.0,9034857.0,2800.0,58,R,9032263,9032419,158,502.2,512.9,3860,left
56,2,continuous,8,87,trial,9032057.0,9034857.0,2800.0,58,R,9032455,9032595,142,453.0,586.3,3714,left
56,2,continuous,8,87,trial,9032057.0,9034857.0,2800.0,58,R,9032633,9032807,176,564.8,641.4,3646,left
56,2,continuous,8,87,trial,9032057.0,9034857.0,2800.0,58,R,9032861,9033029,170,1417.9,517.8,3434,right
56,2,continuous,8,87,trial,9032057.0,9034857.0,2800.0,58,R,9033065,9033393,330,1496.6,582.8,3364,right
56,2,continuous,8,87,trial,9032057.0,9034857.0,2800.0,58,R,9033451,9033603,154,951.6,920.2,3417,likertHorizontal
56,2,continuous,8,87,trial,9032057.0,9034857.0,2800.0,58,R,9033655,9033893,240,1230.3,707.0,3397,right
56,2,continuous,8,87,trial,9032057.0,9034857.0,2800.0,58,R,9033923,9034331,410,1488.2,575.7,3464,right
56,2,continuous,8,87,trial,9032057.0,9034857.0,2800.0,58,R,9034391,9034797,408,1334.4,960.4,3678,NA
56,2,continuous,8,87,postResponse,9032057.0,9034857.0,2800.0,58,R,9034851,9035191,342,490.4,556.7,3734,left
56,2,continuous,9,85,fixationCross,9035958.0,9038991.0,3033.0,59,R,9035265,9035285,22,486.2,559.6,3718,left
56,2,continuous,9,85,fixationCross,9035958.0,9038991.0,3033.0,59,R,9035493,9035629,138,713.5,522.8,3667,left
56,2,continuous,9,85,trial,9035958.0,9038991.0,3033.0,59,R,9035669,9036099,432,952.1,539.4,3655,NA
56,2,continuous,9,85,trial,9035958.0,9038991.0,3033.0,59,R,9036167,9036445,280,457.6,483.3,3490,left
56,2,continuous,9,85,trial,9035958.0,9038991.0,3033.0,59,R,9036477,9036589,114,427.3,532.5,3330,left
56,2,continuous,9,85,trial,9035958.0,9038991.0,3033.0,59,R,9036655,9036939,286,1430.4,517.2,3155,right
56,2,continuous,9,85,trial,9035958.0,9038991.0,3033.0,59,R,9036961,9037093,134,1439.0,466.5,3162,right
56,2,continuous,9,85,trial,9035958.0,9038991.0,3033.0,59,R,9037159,9037627,470,467.6,493.6,3202,left
56,2,continuous,9,85,trial,9035958.0,9038991.0,3033.0,59,R,9037691,9037887,198,1371.1,561.1,3093,right
56,2,continuous,9,85,trial,9035958.0,9038991.0,3033.0,59,R,9037923,9038123,202,1066.1,909.6,3216,likertHorizontal
56,2,continuous,9,85,trial,9035958.0,9038991.0,3033.0,59,R,9038173,9038843,672,1307.1,584.7,3303,right
56,2,continuous,9,85,postResponse,9035958.0,9038991.0,3033.0,59,R,9038869,9039325,458,1452.0,462.0,3227,right
56,2,continuous,10,1,fixationCross,9040141.0,9042008.0,1867.0,60,R,9039399,9039537,140,1450.1,461.1,3175,right
56,2,continuous,10,1,fixationCross,9040141.0,9042008.0,1867.0,60,R,9039743,9039843,102,1211.4,510.5,3308,right
56,2,continuous,10,1,fixationCross,9040141.0,9042008.0,1867.0,60,R,9039885,9040037,154,936.6,530.3,3407,NA
56,2,continuous,10,1,trial,9040141.0,9042008.0,1867.0,60,R,9040057,9040269,214,962.4,534.6,3576,NA
56,2,continuous,10,1,trial,9040141.0,9042008.0,1867.0,60,R,9040333,9040517,186,536.5,502.3,3603,left
56,2,continuous,10,1,trial,9040141.0,9042008.0,1867.0,60,R,9040551,9040699,150,449.8,522.9,3478,left
56,2,continuous,10,1,trial,9040141.0,9042008.0,1867.0,60,R,9040765,9040941,178,1432.8,472.7,3240,right
56,2,continuous,10,1,trial,9040141.0,9042008.0,1867.0,60,R,9040963,9041279,318,1448.0,423.2,3191,right
56,2,continuous,10,1,trial,9040141.0,9042008.0,1867.0,60,R,9041359,9041837,480,435.2,530.4,3352,left
56,2,continuous,10,1,trial,9040141.0,9042008.0,1867.0,60,R,9041871,9042057,188,473.4,924.1,3553,NA
56,2,continuous,10,1,trial,9040141.0,9042008.0,1867.0,60,R,9042081,9042211,132,459.4,955.3,3566,NA
56,2,continuous,10,1,postResponse,9040141.0,9042008.0,1867.0,60,R,9042273,9042339,68,473.5,379.9,3530,left
56,2,continuous,11,31,fixationCross,9043075.0,9045541.0,2466.0,61,R,9042413,9042597,186,473.3,378.8,3525,left
56,2,continuous,11,31,fixationCross,9043075.0,9045541.0,2466.0,61,R,9042647,9042687,42,895.1,517.5,3589,NA
56,2,continuous,11,31,fixationCross,9043075.0,9045541.0,2466.0,61,R,9042739,9042849,112,1106.6,534.4,3571,NA
56,2,continuous,11,31,fixationCross,9043075.0,9045541.0,2466.0,61,R,9042885,9043019,136,950.7,533.8,3626,NA
56,2,continuous,11,31,trial,9043075.0,9045541.0,2466.0,61,R,9043037,9043219,184,970.1,542.0,3716,NA
56,2,continuous,11,31,trial,9043075.0,9045541.0,2466.0,61,R,9043271,9043511,242,1334.3,479.9,3676,right
56,2,continuous,11,31,trial,9043075.0,9045541.0,2466.0,61,R,9043587,9043789,204,569.3,511.4,3620,left
56,2,continuous,11,31,trial,9043075.0,9045541.0,2466.0,61,R,9043821,9044089,270,436.3,533.7,3559,left
56,2,continuous,11,31,trial,9043075.0,9045541.0,2466.0,61,R,9044143,9044279,138,655.1,610.9,3485,left
56,2,continuous,11,31,trial,9043075.0,9045541.0,2466.0,61,R,9044331,9044891,562,1335.4,533.2,3393,right
56,2,continuous,11,31,trial,9043075.0,9045541.0,2466.0,61,R,9044925,9045067,144,1405.7,586.0,3404,right
56,2,continuous,11,31,trial,9043075.0,9045541.0,2466.0,61,R,9045137,9045539,404,845.5,860.9,3465,likertHorizontal
56,2,continuous,11,31,postResponse,9043075.0,9045541.0,2466.0,61,R,9045581,9045875,296,641.2,472.3,3450,left
56,2,continuous,12,46,fixationCross,9046441.0,9048674.0,2233.0,62,R,9045975,9046131,158,638.8,468.8,3461,left
56,2,continuous,12,46,fixationCross,9046441.0,9048674.0,2233.0,62,R,9046183,9046329,148,960.4,478.7,3450,NA
56,2,continuous,12,46,trial,9046441.0,9048674.0,2233.0,62,R,9046363,9046599,238,960.3,540.2,3494,NA
56,2,continuous,12,46,trial,9046441.0,9048674.0,2233.0,62,R,9046653,9046819,168,1260.3,474.9,3469,right
56,2,continuous,12,46,trial,9046441.0,9048674.0,2233.0,62,R,9046891,9047113,224,511.3,484.9,3424,left
56,2,continuous,12,46,trial,9046441.0,9048674.0,2233.0,62,R,9047125,9047565,442,506.3,459.1,3329,left
56,2,continuous,12,46,trial,9046441.0,9048674.0,2233.0,62,R,9047631,9048003,374,1400.7,504.8,3205,right
56,2,continuous,12,46,trial,9046441.0,9048674.0,2233.0,62,R,9048073,9048409,338,828.8,905.8,3366,likertHorizontal
56,2,continuous,12,46,trial,9046441.0,9048674.0,2233.0,62,R,9048443,9048975,534,916.9,959.9,3464,likertHorizontal
56,2,continuous,13,91,fixationCross,9049741.0,9051742.0,2001.0,63,R,9049129,9049435,308,1004.2,416.1,3534,NA
56,2,continuous,13,91,trial,9049741.0,9051742.0,2001.0,63,R,9049483,9049805,324,947.4,533.9,3649,NA
56,2,continuous,13,91,trial,9049741.0,9051742.0,2001.0,63,R,9049839,9049893,56,830.5,477.9,3625,NA
56,2,continuous,13,91,trial,9049741.0,9051742.0,2001.0,63,R,9049939,9050137,200,522.9,497.9,3560,left
56,2,continuous,13,91,trial,9049741.0,9051742.0,2001.0,63,R,9050171,9050407,238,519.1,558.1,3469,left
56,2,continuous,13,91,trial,9049741.0,9051742.0,2001.0,63,R,9050471,9050689,220,1367.1,511.0,3332,right
56,2,continuous,13,91,trial,9049741.0,9051742.0,2001.0,63,R,9050719,9051201,484,1415.8,495.7,3376,right
56,2,continuous,13,91,postResponse,9049741.0,9051742.0,2001.0,63,R,9051235,9052075,842,1514.9,591.6,3356,right
56,2,continuous,14,23,fixationCross,9053374.0,9055809.0,2435.0,64,R,9052149,9052397,250,1506.4,590.4,3339,right
56,2,continuous,14,23,fixationCross,9053374.0,9055809.0,2435.0,64,R,9052443,9052679,238,1189.0,495.8,3438,right
56,2,continuous,14,23,fixationCross,9053374.0,9055809.0,2435.0,64,R,9052837,9053051,216,810.7,504.5,3531,NA
56,2,continuous,14,23,fixationCross,9053374.0,9055809.0,2435.0,64,R,9053087,9053327,242,969.3,534.1,3549,NA
56,2,continuous,14,23,trial,9053374.0,9055809.0,2435.0,64,R,9053345,9053527,184,961.1,544.0,3535,NA
56,2,continuous,14,23,trial,9053374.0,9055809.0,2435.0,64,R,9053591,9053867,278,508.6,468.7,3423,left
56,2,continuous,14,23,trial,9053374.0,9055809.0,2435.0,64,R,9053899,9053973,76,564.7,492.5,3310,left
56,2,continuous,14,23,trial,9053374.0,9055809.0,2435.0,64,R,9054037,9054223,188,1435.8,491.2,3139,right
56,2,continuous,14,23,trial,9053374.0,9055809.0,2435.0,64,R,9054249,9054505,258,1480.5,399.5,3115,right
56,2,continuous,14,23,trial,9053374.0,9055809.0,2435.0,64,R,9054553,9054743,192,1428.9,544.9,3139,right
56,2,continuous,14,23,trial,9053374.0,9055809.0,2435.0,64,R,9054819,9055017,200,677.8,460.9,3187,left
56,2,continuous,14,23,postResponse,9053374.0,9055809.0,2435.0,64,R,9055051,9056141,1092,549.0,532.8,3244,left
56,2,continuous,15,1,fixationCross,9056891.0,9058825.0,1934.0,65,R,9056215,9056271,58,551.5,534.9,3287,left
56,2,continuous,15,1,fixationCross,9056891.0,9058825.0,1934.0,65,R,9056503,9056585,84,1094.9,474.7,3300,NA
56,2,continuous,15,1,fixationCross,9056891.0,9058825.0,1934.0,65,R,9056623,9056751,130,945.4,534.4,3334,NA
56,2,continuous,15,1,trial,9056891.0,9058825.0,1934.0,65,R,9056773,9057065,294,974.7,540.1,3453,NA
56,2,continuous,15,1,trial,9056891.0,9058825.0,1934.0,65,R,9057115,9057265,152,1371.1,455.1,3356,right
56,2,continuous,15,1,trial,9056891.0,9058825.0,1934.0,65,R,9057283,9057481,200,1350.8,425.8,3292,right
56,2,continuous,15,1,trial,9056891.0,9058825.0,1934.0,65,R,9057545,9057771,228,474.9,496.1,3245,left
56,2,continuous,15,1,trial,9056891.0,9058825.0,1934.0,65,R,9057795,9057919,126,489.1,461.1,3184,left
56,2,continuous,15,1,trial,9056891.0,9058825.0,1934.0,65,R,9057947,9058289,344,529.5,457.8,3137,left
56,2,continuous,15,1,trial,9056891.0,9058825.0,1934.0,65,R,9058313,9058653,342,596.3,478.8,3184,left
56,2,continuous,15,1,trial,9056891.0,9058825.0,1934.0,65,R,9058693,9058833,142,526.8,637.6,3301,left
56,2,continuous,15,1,postResponse,9056891.0,9058825.0,1934.0,65,R,9058861,9059157,298,555.8,597.4,3411,left
56,2,continuous,16,7,fixationCross,9059824.0,9062091.0,2267.0,66,R,9059477,9059577,102,1058.9,482.8,3533,NA
56,2,continuous,16,7,trial,9059824.0,9062091.0,2267.0,66,R,9059613,9059829,218,957.7,534.6,3592,NA
56,2,continuous,16,7,trial,9059824.0,9062091.0,2267.0,66,R,9059847,9059991,146,975.8,531.9,3652,NA
56,2,continuous,16,7,trial,9059824.0,9062091.0,2267.0,66,R,9060043,9060183,142,1457.2,453.0,3467,right
56,2,continuous,16,7,trial,9059824.0,9062091.0,2267.0,66,R,9060257,9060577,322,543.6,530.8,3458,left
56,2,continuous,16,7,trial,9059824.0,9062091.0,2267.0,66,R,9060603,9061053,452,452.5,438.1,3317,left
56,2,continuous,16,7,trial,9059824.0,9062091.0,2267.0,66,R,9061121,9061571,452,1409.3,445.4,3191,right
56,2,continuous,16,7,postResponse,9059824.0,9062091.0,2267.0,66,R,9061647,9062425,780,488.9,528.4,3347,left
56,2,continuous,17,71,fixationCross,9063025.0,9065375.0,2350.0,67,R,9062703,9062829,128,877.9,484.4,3371,NA
56,2,continuous,17,71,trial,9063025.0,9065375.0,2350.0,67,R,9062865,9063167,304,976.8,545.0,3461,NA
56,2,continuous,17,71,trial,9063025.0,9065375.0,2350.0,67,R,9063201,9063357,158,1306.6,469.2,3425,right
56,2,continuous,17,71,trial,9063025.0,9065375.0,2350.0,67,R,9063397,9063511,116,1469.8,447.3,3350,right
56,2,continuous,17,71,trial,9063025.0,9065375.0,2350.0,67,R,9063545,9063879,336,1554.3,484.2,3335,right
56,2,continuous,17,71,trial,9063025.0,9065375.0,2350.0,67,R,9063889,9064083,196,1570.5,494.4,3350,right
56,2,continuous,17,71,trial,9063025.0,9065375.0,2350.0,67,R,9064115,9064225,112,1486.6,521.9,3386,right
56,2,continuous,17,71,trial,9063025.0,9065375.0,2350.0,67,R,9064305,9064441,138,518.1,465.2,3461,left
56,2,continuous,17,71,trial,9063025.0,9065375.0,2350.0,67,R,9064481,9064719,240,359.8,466.5,3491,left
56,2,continuous,17,71,trial,9063025.0,9065375.0,2350.0,67,R,9064773,9064901,130,655.0,440.4,3523,left
56,2,continuous,17,71,trial,9063025.0,9065375.0,2350.0,67,R,9064911,9064985,76,633.2,448.2,3500,left
56,2,continuous,17,71,trial,9063025.0,9065375.0,2350.0,67,R,9065045,9065195,152,1413.6,504.3,3381,right
56,2,continuous,17,71,postResponse,9063025.0,9065375.0,2350.0,67,R,9065231,9065707,478,1554.0,502.4,3370,right
56,2,continuous,18,7,fixationCross,9066308.0,9068191.0,1883.0,68,R,9065783,9066009,228,1547.4,497.9,3304,right
56,2,continuous,18,7,fixationCross,9066308.0,9068191.0,1883.0,68,R,9066069,9066189,122,887.0,498.1,3415,NA
56,2,continuous,18,7,trial,9066308.0,9068191.0,1883.0,68,R,9066225,9066475,252,977.4,529.5,3419,NA
56,2,continuous,18,7,trial,9066308.0,9068191.0,1883.0,68,R,9066541,9066735,196,478.8,502.1,3512,left
56,2,continuous,18,7,trial,9066308.0,9068191.0,1883.0,68,R,9066755,9066947,194,458.7,472.1,3451,left
56,2,continuous,18,7,trial,9066308.0,9068191.0,1883.0,68,R,9067011,9067295,286,1420.4,498.5,3253,right
56,2,continuous,18,7,trial,9066308.0,9068191.0,1883.0,68,R,9067333,9067609,278,1559.1,534.7,3229,right
56,2,continuous,18,7,postResponse,9066308.0,9068191.0,1883.0,68,R,9067687,9068525,840,522.6,504.2,3324,left
56,2,continuous,19,66,fixationCross,9069241.0,9072158.0,2917.0,69,R,9068599,9068769,172,525.9,504.0,3376,left
56,2,continuous,19,66,fixationCross,9069241.0,9072158.0,2917.0,69,R,9068821,9068975,156,1136.6,537.4,3322,NA
56,2,continuous,19,66,fixationCross,9069241.0,9072158.0,2917.0,69,R,9069009,9069143,136,999.3,523.4,3343,NA
56,2,continuous,19,66,trial,9069241.0,9072158.0,2917.0,69,R,9069161,9069371,212,979.0,536.5,3446,NA
56,2,continuous,19,66,trial,9069241.0,9072158.0,2917.0,69,R,9069417,9069655,240,1308.3,483.3,3517,right
56,2,continuous,19,66,trial,9069241.0,9072158.0,2917.0,69,R,9069731,9069921,192,476.1,517.7,3445,left
56,2,continuous,19,66,trial,9069241.0,9072158.0,2917.0,69,R,9069945,9070107,164,400.1,444.8,3329,left
56,2,continuous,19,66,trial,9069241.0,9072158.0,2917.0,69,R,9070129,9070689,562,409.8,409.2,3268,left
56,2,continuous,19,66,trial,9069241.0,9072158.0,2917.0,69,R,9070739,9070853,116,847.6,583.5,3298,NA
56,2,continuous,19,66,trial,9069241.0,9072158.0,2917.0,69,R,9070909,9071075,168,889.9,933.0,3367,likertHorizontal
56,2,continuous,19,66,trial,9069241.0,9072158.0,2917.0,69,R,9071133,9071375,244,1349.0,518.8,3415,right
56,2,continuous,19,66,trial,9069241.0,9072158.0,2917.0,69,R,9071453,9071807,356,416.4,469.4,3405,left
56,2,continuous,19,66,trial,9069241.0,9072158.0,2917.0,69,R,9071867,9072011,146,1032.1,885.2,3428,likertHorizontal
56,2,continuous,19,66,trial,9069241.0,9072158.0,2917.0,69,R,9072047,9072409,364,1083.7,962.3,3444,likertHorizontal
56,2,continuous,20,32,fixationCross,9073141.0,9076741.0,3600.0,70,R,9072621,9072879,260,1020.7,454.6,3460,NA
56,2,continuous,20,32,fixationCross,9073141.0,9076741.0,3600.0,70,R,9072925,9073059,136,938.2,545.8,3594,NA
56,2,continuous,20,32,trial,9073141.0,9076741.0,3600.0,70,R,9073079,9073285,208,962.7,550.0,3596,NA
56,2,continuous,20,32,trial,9073141.0,9076741.0,3600.0,70,R,9073349,9073613,266,503.5,496.4,3476,left
56,2,continuous,20,32,trial,9073141.0,9076741.0,3600.0,70,R,9073639,9073817,180,587.1,514.8,3336,left
56,2,continuous,20,32,trial,9073141.0,9076741.0,3600.0,70,R,9073845,9074083,240,420.3,529.6,3271,left
56,2,continuous,20,32,trial,9073141.0,9076741.0,3600.0,70,R,9074103,9074211,110,419.8,489.6,3236,left
56,2,continuous,20,32,trial,9073141.0,9076741.0,3600.0,70,R,9074249,9074433,186,612.5,490.2,3216,left
56,2,continuous,20,32,trial,9073141.0,9076741.0,3600.0,70,R,9074453,9074711,260,667.9,476.8,3173,left
56,2,continuous,20,32,trial,9073141.0,9076741.0,3600.0,70,R,9074771,9075213,444,1402.7,489.1,3097,right
56,2,continuous,20,32,trial,9073141.0,9076741.0,3600.0,70,R,9075241,9075361,122,1357.2,512.5,3173,right
56,2,continuous,20,32,trial,9073141.0,9076741.0,3600.0,70,R,9075431,9075841,412,583.6,505.1,3292,left
56,2,continuous,20,32,trial,9073141.0,9076741.0,3600.0,70,R,9075877,9076093,218,626.3,605.8,3392,left
56,2,continuous,20,32,trial,9073141.0,9076741.0,3600.0,70,R,9076115,9076319,206,570.5,576.4,3416,left
56,2,continuous,20,32,trial,9073141.0,9076741.0,3600.0,70,R,9076353,9076569,218,266.5,530.5,3351,left
56,2,continuous,20,32,trial,9073141.0,9076741.0,3600.0,70,R,9076603,9076971,370,355.3,523.5,3311,left
56,2,continuous,21,18,fixationCross,9077758.0,9080192.0,2434.0,71,R,9077201,9077451,252,666.3,484.9,3183,left
56,2,continuous,21,18,fixationCross,9077758.0,9080192.0,2434.0,71,R,9077501,9077607,108,939.6,512.3,3327,NA
56,2,continuous,21,18,trial,9077758.0,9080192.0,2434.0,71,R,9077629,9077897,270,960.7,532.2,3371,NA
56,2,continuous,21,18,trial,9077758.0,9080192.0,2434.0,71,R,9077955,9078101,148,486.5,509.8,3410,left
56,2,continuous,21,18,trial,9077758.0,9080192.0,2434.0,71,R,9078137,9078257,122,476.3,602.7,3357,left
56,2,continuous,21,18,trial,9077758.0,9080192.0,2434.0,71,R,9078297,9078503,208,643.2,569.6,3283,left
56,2,continuous,21,18,trial,9077758.0,9080192.0,2434.0,71,R,9078555,9078811,258,352.3,573.5,3222,left
56,2,continuous,21,18,trial,9077758.0,9080192.0,2434.0,71,R,9078849,9078937,90,553.3,569.2,3214,left
56,2,continuous,21,18,trial,9077758.0,9080192.0,2434.0,71,R,9078999,9079345,348,1342.3,507.9,3106,right
56,2,continuous,21,18,trial,9077758.0,9080192.0,2434.0,71,R,9079417,9080147,732,608.8,581.2,3215,left
56,2,continuous,21,18,postResponse,9077758.0,9080192.0,2434.0,71,R,9080177,9080521,346,410.2,596.7,3149,left
56,2,continuous,22,83,fixationCross,9081242.0,9083525.0,2283.0,72,R,9080787,9080937,152,649.6,509.8,3157,left
56,2,continuous,22,83,trial,9081242.0,9083525.0,2283.0,72,R,9080989,9081415,428,953.6,530.6,3357,NA
56,2,continuous,22,83,trial,9081242.0,9083525.0,2283.0,72,R,9081463,9081641,180,591.3,477.7,3474,left
56,2,continuous,22,83,trial,9081242.0,9083525.0,2283.0,72,R,9081671,9081849,180,638.0,482.7,3396,left
56,2,continuous,22,83,trial,9081242.0,9083525.0,2283.0,72,R,9081913,9082231,320,1457.1,465.1,3196,right
56,2,continuous,22,83,trial,9081242.0,9083525.0,2283.0,72,R,9082263,9082447,186,1389.7,512.5,3296,right
56,2,continuous,22,83,trial,9081242.0,9083525.0,2283.0,72,R,9082465,9083075,612,1397.4,494.8,3379,right
56,2,continuous,22,83,trial,9081242.0,9083525.0,2283.0,72,R,9083101,9083437,338,1333.3,391.3,3389,right
56,2,continuous,22,83,postResponse,9081242.0,9083525.0,2283.0,72,R,9083643,9083843,202,1343.1,432.8,3408,right
56,2,continuous,23,69,fixationCross,9084559.0,9087309.0,2750.0,73,R,9083995,9084259,266,800.1,485.6,3785,NA
56,2,continuous,23,69,fixationCross,9084559.0,9087309.0,2750.0,73,R,9084297,9084469,174,970.4,527.6,3835,NA
56,2,continuous,23,69,trial,9084559.0,9087309.0,2750.0,73,R,9084487,9084703,218,963.4,540.8,3728,NA
56,2,continuous,23,69,trial,9084559.0,9087309.0,2750.0,73,R,9084765,9084971,208,540.9,466.6,3602,left
56,2,continuous,23,69,trial,9084559.0,9087309.0,2750.0,73,R,9085007,9085211,206,397.6,500.6,3421,left
56,2,continuous,23,69,trial,9084559.0,9087309.0,2750.0,73,R,9085277,9085535,260,1365.7,546.1,3284,right
56,2,continuous,23,69,trial,9084559.0,9087309.0,2750.0,73,R,9085563,9085739,178,1404.9,580.8,3296,right
56,2,continuous,23,69,trial,9084559.0,9087309.0,2750.0,73,R,9085771,9085993,224,1314.8,469.0,3408,right
56,2,continuous,23,69,trial,9084559.0,9087309.0,2750.0,73,R,9086023,9086157,136,1279.8,504.8,3392,right
56,2,continuous,23,69,trial,9084559.0,9087309.0,2750.0,73,R,9086229,9086447,220,530.7,494.1,3458,left
56,2,continuous,23,69,trial,9084559.0,9087309.0,2750.0,73,R,9086495,9086729,236,477.9,640.2,3510,left
56,2,continuous,23,69,trial,9084559.0,9087309.0,2750.0,73,R,9086797,9087261,466,1407.3,546.3,3398,right
56,2,continuous,23,69,postResponse,9084559.0,9087309.0,2750.0,73,R,9087289,9087641,354,1396.0,571.5,3377,right
56,2,continuous,24,13,fixationCross,9088358.0,9090774.0,2416.0,74,R,9087715,9087877,164,1390.6,566.7,3361,right
56,2,continuous,24,13,fixationCross,9088358.0,9090774.0,2416.0,74,R,9087929,9088041,114,1148.0,452.4,3452,NA
56,2,continuous,24,13,trial,9088358.0,9090774.0,2416.0,74,R,9088081,9088491,412,971.2,536.7,3545,NA
56,2,continuous,24,13,trial,9088358.0,9090774.0,2416.0,74,R,9088557,9088639,84,542.4,508.5,3667,left
56,2,continuous,24,13,trial,9088358.0,9090774.0,2416.0,74,R,9088665,9088815,152,459.6,430.9,3554,left
56,2,continuous,24,13,trial,9088358.0,9090774.0,2416.0,74,R,9088865,9088973,110,566.1,533.4,3445,left
56,2,continuous,24,13,trial,9088358.0,9090774.0,2416.0,74,R,9088993,9089153,162,589.3,563.6,3405,left
56,2,continuous,24,13,trial,9088358.0,9090774.0,2416.0,74,R,9089217,9089375,160,1454.5,507.0,3203,right
56,2,continuous,24,13,trial,9088358.0,9090774.0,2416.0,74,R,9089407,9089699,294,1523.9,553.9,3129,right
56,2,continuous,24,13,trial,9088358.0,9090774.0,2416.0,74,R,9089769,9089957,190,508.8,569.7,3221,left
56,2,continuous,24,13,trial,9088358.0,9090774.0,2416.0,74,R,9089983,9090125,144,381.8,585.2,3192,left
56,2,continuous,24,13,trial,9088358.0,9090774.0,2416.0,74,R,9090151,9090639,490,483.2,542.7,3218,left
56,2,continuous,24,13,postResponse,9088358.0,9090774.0,2416.0,74,R,9090663,9091107,446,417.3,454.2,3173,left
56,2,continuous,25,100,fixationCross,9091875.0,9094975.0,3100.0,75,R,9091207,9091245,40,417.1,457.6,3093,left
56,2,continuous,25,100,fixationCross,9091875.0,9094975.0,3100.0,75,R,9091453,9091565,114,648.9,503.7,3136,left
56,2,continuous,25,100,trial,9091875.0,9094975.0,3100.0,75,R,9091593,9092019,428,967.1,538.2,3224,NA
56,2,continuous,25,100,trial,9091875.0,9094975.0,3100.0,75,R,9092063,9092447,386,1428.2,459.3,3130,right
56,2,continuous,25,100,trial,9091875.0,9094975.0,3100.0,75,R,9092485,9092823,340,1433.2,568.8,3037,right
56,2,continuous,25,100,trial,9091875.0,9094975.0,3100.0,75,R,9092891,9093073,184,470.5,472.5,3111,left
56,2,continuous,25,100,trial,9091875.0,9094975.0,3100.0,75,R,9093099,9093287,190,391.8,481.8,3116,left
56,2,continuous,25,100,trial,9091875.0,9094975.0,3100.0,75,R,9093327,9093577,252,574.8,457.9,3199,left
56,2,continuous,25,100,trial,9091875.0,9094975.0,3100.0,75,R,9093645,9093779,136,1481.8,461.5,3195,right
56,2,continuous,25,100,trial,9091875.0,9094975.0,3100.0,75,R,9093803,9094461,660,1424.0,456.3,3268,right
56,2,continuous,25,100,trial,9091875.0,9094975.0,3100.0,75,R,9094525,9095231,708,627.6,464.8,3412,left
56,2,continuous,26,82,fixationCross,9117125.0,9119542.0,2417.0,76,R,9116309,9116535,228,638.4,84.9,3603,NA
56,2,continuous,26,82,fixationCross,9117125.0,9119542.0,2417.0,76,R,9116581,9116709,130,944.9,402.0,3509,NA
56,2,continuous,26,82,trial,9117125.0,9119542.0,2417.0,76,R,9116943,9117291,350,970.1,528.8,3575,NA
56,2,continuous,26,82,trial,9117125.0,9119542.0,2417.0,76,R,9117357,9117707,352,498.9,509.1,3474,left
56,2,continuous,26,82,trial,9117125.0,9119542.0,2417.0,76,R,9117773,9118029,258,1370.8,571.9,3080,right
56,2,continuous,26,82,trial,9117125.0,9119542.0,2417.0,76,R,9118061,9118393,334,1398.6,629.3,2976,right
56,2,continuous,26,82,trial,9117125.0,9119542.0,2417.0,76,R,9118441,9118617,178,1073.7,922.3,3003,likertHorizontal
56,2,continuous,26,82,trial,9117125.0,9119542.0,2417.0,76,R,9118649,9118843,196,1352.1,928.4,2923,NA
56,2,continuous,26,82,trial,9117125.0,9119542.0,2417.0,76,R,9118887,9119817,932,1473.8,612.1,3106,right
56,2,continuous,27,6,fixationCross,9120609.0,9122442.0,1833.0,77,R,9120067,9120299,234,789.4,436.2,3149,NA
56,2,continuous,27,6,trial,9120609.0,9122442.0,1833.0,77,R,9120339,9120741,404,952.9,530.2,3315,NA
56,2,continuous,27,6,trial,9120609.0,9122442.0,1833.0,77,R,9120793,9121135,344,495.7,503.9,3345,left
56,2,continuous,27,6,trial,9120609.0,9122442.0,1833.0,77,R,9121157,9121273,118,495.1,537.1,3258,left
56,2,continuous,27,6,trial,9120609.0,9122442.0,1833.0,77,R,9121339,9121723,386,1520.5,483.1,3066,right
56,2,continuous,27,6,trial,9120609.0,9122442.0,1833.0,77,R,9121791,9122251,462,469.5,525.2,3191,left
56,2,continuous,27,6,postResponse,9120609.0,9122442.0,1833.0,77,R,9122299,9122775,478,504.6,643.1,3281,left
56,2,continuous,28,92,fixationCross,9123459.0,9125376.0,1917.0,78,R,9123031,9123157,128,644.8,461.9,3314,left
56,2,continuous,28,92,fixationCross,9123459.0,9125376.0,1917.0,78,R,9123209,9123307,100,934.2,529.7,3329,NA
56,2,continuous,28,92,trial,9123459.0,9125376.0,1917.0,78,R,9123327,9123633,308,963.6,540.6,3470,NA
56,2,continuous,28,92,trial,9123459.0,9125376.0,1917.0,78,R,9123691,9124021,332,482.1,499.0,3431,left
56,2,continuous,28,92,trial,9123459.0,9125376.0,1917.0,78,R,9124087,9124287,202,1377.2,535.3,3156,right
56,2,continuous,28,92,trial,9123459.0,9125376.0,1917.0,78,R,9124313,9124741,430,1449.8,525.2,3045,right
56,2,continuous,28,92,trial,9123459.0,9125376.0,1917.0,78,R,9124763,9125643,882,1475.3,589.1,3134,right
56,2,continuous,29,90,fixationCross,9126409.0,9128408.0,1999.0,79,R,9125903,9126107,206,1360.9,504.4,3281,right
56,2,continuous,29,90,fixationCross,9126409.0,9128408.0,1999.0,79,R,9126167,9126329,164,953.4,531.2,3507,NA
56,2,continuous,29,90,trial,9126409.0,9128408.0,1999.0,79,R,9126345,9126551,208,967.6,536.3,3495,NA
56,2,continuous,29,90,trial,9126409.0,9128408.0,1999.0,79,R,9126617,9126717,102,441.4,507.6,3467,left
56,2,continuous,29,90,trial,9126409.0,9128408.0,1999.0,79,R,9126749,9127079,332,487.4,491.0,3297,left
56,2,continuous,29,90,trial,9126409.0,9128408.0,1999.0,79,R,9127099,9127253,156,506.5,470.3,3151,left
56,2,continuous,29,90,trial,9126409.0,9128408.0,1999.0,79,R,9127317,9127577,262,1455.6,462.6,3038,right
56,2,continuous,29,90,postResponse,9126409.0,9128408.0,1999.0,79,R,9127585,9128743,1160,1434.7,458.8,3164,right
56,2,continuous,30,2,fixationCross,9129492.0,9131242.0,1750.0,80,R,9128841,9128873,34,1421.3,456.4,3300,right
56,2,continuous,30,2,fixationCross,9129492.0,9131242.0,1750.0,80,R,9128921,9129177,258,823.0,470.2,3511,NA
56,2,continuous,30,2,fixationCross,9129492.0,9131242.0,1750.0,80,R,9129227,9129341,116,979.6,530.8,3540,NA
56,2,continuous,30,2,trial,9129492.0,9131242.0,1750.0,80,R,9129359,9129629,272,963.9,542.2,3586,NA
56,2,continuous,30,2,trial,9129492.0,9131242.0,1750.0,80,R,9129691,9129931,242,545.9,501.2,3624,left
56,2,continuous,30,2,trial,9129492.0,9131242.0,1750.0,80,R,9129967,9130137,172,466.5,563.8,3534,left
56,2,continuous,30,2,trial,9129492.0,9131242.0,1750.0,80,R,9130205,9130319,116,1456.6,521.8,3336,right
56,2,continuous,30,2,trial,9129492.0,9131242.0,1750.0,80,R,9130353,9130699,348,1566.4,537.6,3257,right
56,2,continuous,30,2,trial,9129492.0,9131242.0,1750.0,80,R,9130781,9131549,770,462.3,572.7,3354,left
56,2,continuous,31,78,fixationCross,9132109.0,9133742.0,1633.0,81,R,9131809,9131971,164,883.9,491.8,3310,NA
56,2,continuous,31,78,trial,9132109.0,9133742.0,1633.0,81,R,9132005,9132305,302,970.8,532.5,3374,NA
56,2,continuous,31,78,trial,9132109.0,9133742.0,1633.0,81,R,9132361,9132463,104,446.1,541.5,3368,left
56,2,continuous,31,78,trial,9132109.0,9133742.0,1633.0,81,R,9132525,9132773,250,1430.6,511.9,3179,right
56,2,continuous,31,78,trial,9132109.0,9133742.0,1633.0,81,R,9132811,9133101,292,1563.7,482.8,3107,right
56,2,continuous,31,78,trial,9132109.0,9133742.0,1633.0,81,R,9133133,9133301,170,1457.4,543.4,3078,right
56,2,continuous,31,78,trial,9132109.0,9133742.0,1633.0,81,R,9133347,9133553,208,1043.9,866.3,3220,likertHorizontal
56,2,continuous,31,78,trial,9132109.0,9133742.0,1633.0,81,R,9133595,9133687,94,1263.9,616.8,3202,right
56,2,continuous,31,78,postResponse,9132109.0,9133742.0,1633.0,81,R,9133727,9134077,352,1428.6,491.8,3295,right
56,2,continuous,32,85,fixationCross,9134842.0,9137426.0,2584.0,82,R,9134151,9134383,234,1420.0,490.8,3362,right
56,2,continuous,32,85,fixationCross,9134842.0,9137426.0,2584.0,82,R,9134453,9134583,132,742.8,493.3,3506,NA
56,2,continuous,32,85,fixationCross,9134842.0,9137426.0,2584.0,82,R,9134633,9134839,208,962.8,524.8,3482,NA
56,2,continuous,32,85,trial,9134842.0,9137426.0,2584.0,82,R,9134889,9135229,342,618.9,493.5,3514,left
56,2,continuous,32,85,trial,9134842.0,9137426.0,2584.0,82,R,9135261,9135377,118,684.9,515.3,3403,left
56,2,continuous,32,85,trial,9134842.0,9137426.0,2584.0,82,R,9135427,9135619,194,1375.0,474.1,3188,right
56,2,continuous,32,85,trial,9134842.0,9137426.0,2584.0,82,R,9135655,9135927,274,1521.5,599.9,3154,right
56,2,continuous,32,85,trial,9134842.0,9137426.0,2584.0,82,R,9136019,9136261,244,669.0,528.1,3202,left
56,2,continuous,32,85,trial,9134842.0,9137426.0,2584.0,82,R,9136299,9136537,240,471.1,539.9,3148,left
56,2,continuous,32,85,trial,9134842.0,9137426.0,2584.0,82,R,9136605,9137039,436,1476.0,515.4,3063,right
56,2,continuous,32,85,trial,9134842.0,9137426.0,2584.0,82,R,9137077,9137627,552,1496.2,627.6,3072,right
56,2,continuous,33,74,fixationCross,9138526.0,9142259.0,3733.0,83,R,9137879,9138089,212,1335.3,457.1,3090,right
56,2,continuous,33,74,fixationCross,9138526.0,9142259.0,3733.0,83,R,9138135,9138267,134,820.2,470.3,3336,NA
56,2,continuous,33,74,fixationCross,9138526.0,9142259.0,3733.0,83,R,9138317,9138419,104,979.9,526.3,3393,NA
56,2,continuous,33,74,trial,9138526.0,9142259.0,3733.0,83,R,9138437,9138685,250,961.7,532.8,3409,NA
56,2,continuous,33,74,trial,9138526.0,9142259.0,3733.0,83,R,9138749,9139087,340,562.1,545.3,3440,left
56,2,continuous,33,74,trial,9138526.0,9142259.0,3733.0,83,R,9139119,9139303,186,509.9,584.5,3395,left
56,2,continuous,33,74,trial,9138526.0,9142259.0,3733.0,83,R,9139369,9139699,332,1476.2,461.8,3191,right
56,2,continuous,33,74,trial,9138526.0,9142259.0,3733.0,83,R,9139723,9139929,208,1490.5,505.4,3196,right
56,2,continuous,33,74,trial,9138526.0,9142259.0,3733.0,83,R,9140003,9140247,246,601.1,579.6,3357,left
56,2,continuous,33,74,trial,9138526.0,9142259.0,3733.0,83,R,9140307,9140595,290,1379.3,555.6,3240,right
56,2,continuous,33,74,trial,9138526.0,9142259.0,3733.0,83,R,9140657,9140859,204,614.4,599.7,3359,left
56,2,continuous,33,74,trial,9138526.0,9142259.0,3733.0,83,R,9140895,9141205,312,491.8,593.2,3330,left
56,2,continuous,33,74,trial,9138526.0,9142259.0,3733.0,83,R,9141243,9141723,482,647.2,658.5,3316,left
56,2,continuous,33,74,trial,9138526.0,9142259.0,3733.0,83,R,9141747,9141971,226,677.2,562.8,3330,left
56,2,continuous,33,74,trial,9138526.0,9142259.0,3733.0,83,R,9142015,9142491,478,420.5,566.7,3299,left
56,2,continuous,34,1,fixationCross,9143358.0,9145892.0,2534.0,84,R,9142751,9143055,306,895.1,439.9,3248,NA
56,2,continuous,34,1,trial,9143358.0,9145892.0,2534.0,84,R,9143093,9143517,426,965.5,536.3,3464,NA
56,2,continuous,34,1,trial,9143358.0,9145892.0,2534.0,84,R,9143577,9143753,178,521.8,578.3,3459,left
56,2,continuous,34,1,trial,9143358.0,9145892.0,2534.0,84,R,9143779,9144063,286,427.4,526.4,3322,left
56,2,continuous,34,1,trial,9143358.0,9145892.0,2534.0,84,R,9144089,9144601,514,310.3,538.8,3196,left
56,2,continuous,34,1,trial,9143358.0,9145892.0,2534.0,84,R,9144627,9144903,278,409.4,522.5,3193,left
56,2,continuous,34,1,trial,9143358.0,9145892.0,2534.0,84,R,9144939,9145067,130,516.1,562.3,3231,left
56,2,continuous,34,1,trial,9143358.0,9145892.0,2534.0,84,R,9145131,9145357,228,1369.3,510.3,3131,right
56,2,continuous,34,1,postResponse,9143358.0,9145892.0,2534.0,84,R,9145429,9146225,798,502.1,584.8,3364,left
56,2,continuous,35,31,fixationCross,9147009.0,9149492.0,2483.0,85,R,9146325,9146537,214,505.4,583.0,3378,left
56,2,continuous,35,31,fixationCross,9147009.0,9149492.0,2483.0,85,R,9146565,9146721,158,778.3,533.2,3340,NA
56,2,continuous,35,31,trial,9147009.0,9149492.0,2483.0,85,R,9146759,9147151,394,974.7,526.4,3318,NA
56,2,continuous,35,31,trial,9147009.0,9149492.0,2483.0,85,R,9147213,9147465,254,555.1,517.5,3477,left
56,2,continuous,35,31,trial,9147009.0,9149492.0,2483.0,85,R,9147529,9147811,284,1413.0,489.5,3286,right
56,2,continuous,35,31,trial,9147009.0,9149492.0,2483.0,85,R,9147843,9148011,170,1341.2,523.1,3302,right
56,2,continuous,35,31,trial,9147009.0,9149492.0,2483.0,85,R,9148183,9148807,626,500.6,524.8,3475,left
56,2,continuous,35,31,trial,9147009.0,9149492.0,2483.0,85,R,9148857,9149353,498,763.9,920.7,3312,likertHorizontal
56,2,continuous,35,31,postResponse,9147009.0,9149492.0,2483.0,85,R,9149393,9149825,434,561.4,528.9,3460,left
56,2,continuous,36,88,fixationCross,9150542.0,9152659.0,2117.0,86,R,9150079,9150237,160,723.0,489.7,3366,left
56,2,continuous,36,88,fixationCross,9150542.0,9152659.0,2117.0,86,R,9150281,9150419,140,985.3,526.2,3381,NA
56,2,continuous,36,88,trial,9150542.0,9152659.0,2117.0,86,R,9150437,9150697,262,966.9,543.7,3488,NA
56,2,continuous,36,88,trial,9150542.0,9152659.0,2117.0,86,R,9150763,9150915,154,461.3,506.1,3552,left
56,2,continuous,36,88,trial,9150542.0,9152659.0,2117.0,86,R,9150951,9151093,144,564.2,505.9,3406,left
56,2,continuous,36,88,trial,9150542.0,9152659.0,2117.0,86,R,9151161,9151233,74,927.1,463.1,3256,NA
56,2,continuous,36,88,trial,9150542.0,9152659.0,2117.0,86,R,9151273,9151453,182,1398.6,501.3,3114,right
56,2,continuous,36,88,trial,9150542.0,9152659.0,2117.0,86,R,9151487,9151903,418,1465.8,566.7,3137,right
56,2,continuous,36,88,trial,9150542.0,9152659.0,2117.0,86,R,9151927,9152215,290,1427.0,609.1,3142,right
56,2,continuous,36,88,trial,9150542.0,9152659.0,2117.0,86,R,9152247,9152367,122,1370.3,661.9,3104,right
56,2,continuous,36,88,postResponse,9150542.0,9152659.0,2117.0,86,R,9152395,9152991,598,1532.7,516.4,3060,right
56,2,continuous,37,83,fixationCross,9153759.0,9155626.0,1867.0,87,R,9153091,9153151,62,1527.7,515.8,3034,right
56,2,continuous,37,83,fixationCross,9153759.0,9155626.0,1867.0,87,R,9153337,9153441,106,639.2,489.7,3185,left
56,2,continuous,37,83,fixationCross,9153759.0,9155626.0,1867.0,87,R,9153485,9153603,120,947.8,517.1,3218,NA
56,2,continuous,37,83,trial,9153759.0,9155626.0,1867.0,87,R,9153613,9153893,282,959.1,532.4,3313,NA
56,2,continuous,37,83,trial,9153759.0,9155626.0,1867.0,87,R,9153949,9154089,142,502.0,502.7,3330,left
56,2,continuous,37,83,trial,9153759.0,9155626.0,1867.0,87,R,9154123,9154267,146,586.5,508.6,3258,left
56,2,continuous,37,83,trial,9153759.0,9155626.0,1867.0,87,R,9154325,9154765,442,1411.2,480.9,3014,right
56,2,continuous,37,83,trial,9153759.0,9155626.0,1867.0,87,R,9154795,9155257,464,1354.0,504.5,2993,right
56,2,continuous,37,83,postResponse,9153759.0,9155626.0,1867.0,87,R,9155283,9155959,678,1432.5,404.5,3020,right
56,2,continuous,38,74,fixationCross,9156693.0,9160493.0,3800.0,88,R,9156059,9156113,56,1424.8,406.4,3155,right
56,2,continuous,38,74,fixationCross,9156693.0,9160493.0,3800.0,88,R,9156269,9156387,120,847.9,519.6,3480,NA
56,2,continuous,38,74,trial,9156693.0,9160493.0,3800.0,88,R,9156425,9156825,402,968.1,543.9,3581,NA
56,2,continuous,38,74,trial,9156693.0,9160493.0,3800.0,88,R,9156879,9157223,346,564.2,485.9,3506,left
56,2,continuous,38,74,trial,9156693.0,9160493.0,3800.0,88,R,9157245,9157761,518,584.4,446.7,3238,left
56,2,continuous,38,74,trial,9156693.0,9160493.0,3800.0,88,R,9157787,9158143,358,437.1,448.4,3172,left
56,2,continuous,38,74,trial,9156693.0,9160493.0,3800.0,88,R,9158181,9158295,116,619.5,422.1,3187,left
56,2,continuous,38,74,trial,9156693.0,9160493.0,3800.0,88,R,9158357,9158561,206,1428.3,469.6,3071,right
56,2,continuous,38,74,trial,9156693.0,9160493.0,3800.0,88,R,9158583,9158697,116,1457.2,477.6,3063,right
56,2,continuous,38,74,trial,9156693.0,9160493.0,3800.0,88,R,9158733,9159027,296,1385.3,551.6,3148,right
56,2,continuous,38,74,trial,9156693.0,9160493.0,3800.0,88,R,9159049,9159275,228,1345.5,548.1,3167,right
56,2,continuous,38,74,trial,9156693.0,9160493.0,3800.0,88,R,9159301,9159455,156,1483.2,470.4,3109,right
56,2,continuous,38,74,trial,9156693.0,9160493.0,3800.0,88,R,9159531,9159809,280,577.6,459.9,3224,left
56,2,continuous,38,74,trial,9156693.0,9160493.0,3800.0,88,R,9159821,9159999,180,584.2,440.4,3197,left
56,2,continuous,38,74,trial,9156693.0,9160493.0,3800.0,88,R,9160057,9160435,380,1290.7,523.7,3134,right
56,2,continuous,38,74,postResponse,9156693.0,9160493.0,3800.0,88,R,9160471,9160825,356,1426.1,451.1,3268,right
56,2,continuous,39,35,fixationCross,9161509.0,9164509.0,3000.0,89,R,9161055,9161197,144,1375.7,455.6,3333,right
56,2,continuous,39,35,fixationCross,9161509.0,9164509.0,3000.0,89,R,9161257,9161395,140,937.0,514.0,3455,NA
56,2,continuous,39,35,trial,9161509.0,9164509.0,3000.0,89,R,9161421,9161641,222,967.3,534.8,3573,NA
56,2,continuous,39,35,trial,9161509.0,9164509.0,3000.0,89,R,9161707,9161821,116,521.0,509.1,3626,left
56,2,continuous,39,35,trial,9161509.0,9164509.0,3000.0,89,R,9161847,9162851,1006,382.2,476.4,3323,left
56,2,continuous,39,35,trial,9161509.0,9164509.0,3000.0,89,R,9162917,9163283,368,1380.2,519.5,3184,right
56,2,continuous,39,35,trial,9161509.0,9164509.0,3000.0,89,R,9163349,9164113,766,422.8,494.7,3277,left
56,2,continuous,39,35,postResponse,9161509.0,9164509.0,3000.0,89,R,9164167,9164853,688,1330.3,502.9,3331,right
56,2,continuous,40,87,fixationCross,9165593.0,9167760.0,2167.0,90,R,9165101,9165293,194,1044.4,461.5,3443,NA
56,2,continuous,40,87,fixationCross,9165593.0,9167760.0,2167.0,90,R,9165329,9165443,116,948.4,542.7,3539,NA
56,2,continuous,40,87,trial,9165593.0,9167760.0,2167.0,90,R,9165463,9165729,268,974.6,536.7,3543,NA
56,2,continuous,40,87,trial,9165593.0,9167760.0,2167.0,90,R,9165785,9166015,232,562.5,467.0,3443,left
56,2,continuous,40,87,trial,9165593.0,9167760.0,2167.0,90,R,9166049,9166305,258,626.9,486.6,3293,left
56,2,continuous,40,87,trial,9165593.0,9167760.0,2167.0,90,R,9166351,9166553,204,313.0,495.3,3237,left
56,2,continuous,40,87,trial,9165593.0,9167760.0,2167.0,90,R,9166623,9166845,224,1394.5,560.0,3110,right
56,2,continuous,40,87,postResponse,9165593.0,9167760.0,2167.0,90,R,9166865,9168093,1230,1380.2,579.5,3049,right
56,2,continuous,41,93,fixationCross,9168693.0,9171075.0,2382.0,91,R,9168385,9168535,152,989.6,464.9,3304,NA
56,2,continuous,41,93,trial,9168693.0,9171075.0,2382.0,91,R,9168571,9168769,200,919.1,517.9,3453,NA
56,2,continuous,41,93,trial,9168693.0,9171075.0,2382.0,91,R,9168791,9168875,86,950.2,530.9,3581,NA
56,2,continuous,41,93,trial,9168693.0,9171075.0,2382.0,91,R,9168937,9169223,288,522.5,555.9,3564,left
56,2,continuous,41,93,trial,9168693.0,9171075.0,2382.0,91,R,9169287,9169517,232,1366.7,497.6,3217,right
56,2,continuous,41,93,trial,9168693.0,9171075.0,2382.0,91,R,9169551,9169857,308,1352.8,587.4,3158,right
56,2,continuous,41,93,trial,9168693.0,9171075.0,2382.0,91,R,9169883,9169993,112,1272.7,438.8,3136,right
56,2,continuous,41,93,trial,9168693.0,9171075.0,2382.0,91,R,9170063,9170235,174,582.1,552.2,3198,left
56,2,continuous,41,93,trial,9168693.0,9171075.0,2382.0,91,R,9170261,9170435,176,503.8,516.6,3176,left
56,2,continuous,41,93,postResponse,9168693.0,9171075.0,2382.0,91,R,9170487,9171411,926,1322.0,520.4,3157,right
56,2,continuous,42,82,fixationCross,9172142.0,9174443.0,2301.0,92,R,9171485,9171819,336,1315.5,520.6,3251,right
56,2,continuous,42,82,fixationCross,9172142.0,9174443.0,2301.0,92,R,9171869,9171989,122,980.2,516.5,3381,NA
56,2,continuous,42,82,trial,9172142.0,9174443.0,2301.0,92,R,9172011,9172311,302,957.3,537.2,3421,NA
56,2,continuous,42,82,trial,9172142.0,9174443.0,2301.0,92,R,9172377,9172909,534,453.1,480.7,3322,left
56,2,continuous,42,82,trial,9172142.0,9174443.0,2301.0,92,R,9172971,9173187,218,1336.3,544.0,3026,right
56,2,continuous,42,82,trial,9172142.0,9174443.0,2301.0,92,R,9173225,9173507,284,1470.9,597.3,3041,right
56,2,continuous,42,82,trial,9172142.0,9174443.0,2301.0,92,R,9173537,9173845,310,1426.7,639.4,3060,right
56,2,continuous,42,82,trial,9172142.0,9174443.0,2301.0,92,R,9173879,9174697,820,1278.0,621.5,3179,right
56,2,continuous,43,19,fixationCross,9175493.0,9177410.0,1917.0,93,R,9174933,9175197,266,1053.2,652.5,3450,NA
56,2,continuous,43,19,fixationCross,9175493.0,9177410.0,1917.0,93,R,9175223,9175395,174,947.7,540.2,3688,NA
56,2,continuous,43,19,trial,9175493.0,9177410.0,1917.0,93,R,9175415,9175665,252,965.0,542.2,3854,NA
56,2,continuous,43,19,trial,9175493.0,9177410.0,1917.0,93,R,9175731,9175895,166,587.0,507.4,3758,left
56,2,continuous,43,19,trial,9175493.0,9177410.0,1917.0,93,R,9175937,9176161,226,390.4,477.1,3544,left
56,2,continuous,43,19,trial,9175493.0,9177410.0,1917.0,93,R,9176201,9176277,78,586.9,545.8,3493,left
56,2,continuous,43,19,trial,9175493.0,9177410.0,1917.0,93,R,9176339,9176579,242,1448.0,516.4,3301,right
56,2,continuous,43,19,trial,9175493.0,9177410.0,1917.0,93,R,9176615,9176757,144,1398.6,605.1,3321,right
56,2,continuous,43,19,trial,9175493.0,9177410.0,1917.0,93,R,9176823,9177657,836,453.9,499.1,3274,left
56,2,continuous,44,100,fixationCross,9178459.0,9180693.0,2234.0,94,R,9178001,9178145,146,629.5,534.6,3251,left
56,2,continuous,44,100,fixationCross,9178459.0,9180693.0,2234.0,94,R,9178173,9178299,128,931.0,537.4,3269,NA
56,2,continuous,44,100,trial,9178459.0,9180693.0,2234.0,94,R,9178323,9178601,280,967.7,534.6,3307,NA
56,2,continuous,44,100,trial,9178459.0,9180693.0,2234.0,94,R,9178637,9178833,198,1334.1,489.2,3220,right
56,2,continuous,44,100,trial,9178459.0,9180693.0,2234.0,94,R,9178863,9178995,134,1337.3,544.6,3163,right
56,2,continuous,44,100,trial,9178459.0,9180693.0,2234.0,94,R,9179067,9179223,158,548.5,537.5,3242,left
56,2,continuous,44,100,trial,9178459.0,9180693.0,2234.0,94,R,9179239,9179579,342,530.6,511.2,3198,left
56,2,continuous,44,100,trial,9178459.0,9180693.0,2234.0,94,R,9179641,9180125,486,1369.1,498.5,3201,right
56,2,continuous,44,100,trial,9178459.0,9180693.0,2234.0,94,R,9180195,9180407,214,683.3,629.8,3450,left
56,2,continuous,44,100,trial,9178459.0,9180693.0,2234.0,94,R,9180433,9180567,136,640.9,661.0,3546,left
56,2,continuous,44,100,postResponse,9178459.0,9180693.0,2234.0,94,R,9180627,9181027,402,1377.3,518.6,3479,right
56,2,continuous,45,98,fixationCross,9182810.0,9184926.0,2116.0,95,R,9181103,9181415,314,1369.0,516.9,3441,right
56,2,continuous,45,98,fixationCross,9182810.0,9184926.0,2116.0,95,R,9181481,9181675,196,812.9,506.8,3553,NA
56,2,continuous,45,98,fixationCross,9182810.0,9184926.0,2116.0,95,R,9181713,9182557,846,610.3,484.8,3538,left
56,2,continuous,45,98,fixationCross,9182810.0,9184926.0,2116.0,95,R,9182601,9182727,128,928.1,516.2,3517,NA
56,2,continuous,45,98,trial,9182810.0,9184926.0,2116.0,95,R,9182749,9182959,212,965.7,537.8,3512,NA
56,2,continuous,45,98,trial,9182810.0,9184926.0,2116.0,95,R,9183023,9183261,240,495.1,517.8,3482,left
56,2,continuous,45,98,trial,9182810.0,9184926.0,2116.0,95,R,9183297,9183423,128,590.1,547.6,3354,left
56,2,continuous,45,98,trial,9182810.0,9184926.0,2116.0,95,R,9183479,9183693,216,1301.8,486.5,3187,right
56,2,continuous,45,98,trial,9182810.0,9184926.0,2116.0,95,R,9183733,9183985,254,1578.2,497.9,3176,right
56,2,continuous,45,98,trial,9182810.0,9184926.0,2116.0,95,R,9184063,9184301,240,547.2,516.6,3297,left
56,2,continuous,45,98,trial,9182810.0,9184926.0,2116.0,95,R,9184353,9184591,240,1251.2,505.8,3127,right
56,2,continuous,45,98,postResponse,9182810.0,9184926.0,2116.0,95,R,9184631,9185259,630,1535.5,500.2,3281,right
56,2,continuous,46,59,fixationCross,9185826.0,9188393.0,2567.0,96,R,9185567,9185691,126,923.1,468.5,3518,NA
56,2,continuous,46,59,trial,9185826.0,9188393.0,2567.0,96,R,9185725,9185953,230,963.0,533.8,3604,NA
56,2,continuous,46,59,trial,9185826.0,9188393.0,2567.0,96,R,9186019,9186451,434,524.2,517.7,3632,left
56,2,continuous,46,59,trial,9185826.0,9188393.0,2567.0,96,R,9186513,9186931,420,1376.9,538.6,3204,right
56,2,continuous,46,59,trial,9185826.0,9188393.0,2567.0,96,R,9186955,9187089,136,1265.5,528.6,3217,right
56,2,continuous,46,59,trial,9185826.0,9188393.0,2567.0,96,R,9187163,9187477,316,486.5,507.2,3286,left
56,2,continuous,46,59,trial,9185826.0,9188393.0,2567.0,96,R,9187499,9188377,880,535.1,543.3,3228,left
56,2,continuous,46,59,trial,9185826.0,9188393.0,2567.0,96,R,9188409,9188587,180,467.6,588.3,3210,left
56,2,continuous,47,34,fixationCross,9189360.0,9191193.0,1833.0,97,R,9188847,9189149,304,927.8,496.2,3225,NA
56,2,continuous,47,34,fixationCross,9189360.0,9191193.0,1833.0,97,R,9189183,9189213,32,846.6,507.9,3396,NA
56,2,continuous,47,34,fixationCross,9189360.0,9191193.0,1833.0,97,R,9189249,9189359,112,936.6,531.6,3409,NA
56,2,continuous,47,34,trial,9189360.0,9191193.0,1833.0,97,R,9189385,9189531,148,966.8,530.8,3364,NA
56,2,continuous,47,34,trial,9189360.0,9191193.0,1833.0,97,R,9189597,9189929,334,465.1,507.5,3295,left
56,2,continuous,47,34,trial,9189360.0,9191193.0,1833.0,97,R,9189951,9190109,160,488.8,469.9,3208,left
56,2,continuous,47,34,trial,9189360.0,9191193.0,1833.0,97,R,9190135,9190291,158,343.7,520.5,3141,left
56,2,continuous,47,34,trial,9189360.0,9191193.0,1833.0,97,R,9190359,9190637,280,1419.5,549.5,3003,right
56,2,continuous,47,34,trial,9189360.0,9191193.0,1833.0,97,R,9190655,9190705,52,1442.1,528.2,2993,right
56,2,continuous,47,34,trial,9189360.0,9191193.0,1833.0,97,R,9190731,9190841,112,1354.9,465.0,3011,right
56,2,continuous,47,34,trial,9189360.0,9191193.0,1833.0,97,R,9190905,9191455,552,413.7,474.1,3108,left
56,2,continuous,48,83,fixationCross,9192243.0,9194060.0,1817.0,98,R,9191683,9191923,242,757.6,486.8,3314,NA
56,2,continuous,48,83,fixationCross,9192243.0,9194060.0,1817.0,98,R,9191973,9192123,152,965.9,515.1,3531,NA
56,2,continuous,48,83,trial,9192243.0,9194060.0,1817.0,98,R,9192143,9192383,242,958.3,530.9,3514,NA
56,2,continuous,48,83,trial,9192243.0,9194060.0,1817.0,98,R,9192451,9192621,172,494.6,489.5,3459,left
56,2,continuous,48,83,trial,9192243.0,9194060.0,1817.0,98,R,9192683,9192851,170,1320.7,540.1,3229,right
56,2,continuous,48,83,trial,9192243.0,9194060.0,1817.0,98,R,9192875,9193037,164,1368.1,555.6,3155,right
56,2,continuous,48,83,trial,9192243.0,9194060.0,1817.0,98,R,9193069,9193455,388,1547.2,431.6,3140,right
56,2,continuous,48,83,trial,9192243.0,9194060.0,1817.0,98,R,9193487,9193951,466,1323.9,571.9,3237,right
56,2,continuous,48,83,trial,9192243.0,9194060.0,1817.0,98,R,9194095,9194291,198,1326.5,459.8,3363,right
56,2,continuous,49,81,fixationCross,9195110.0,9197227.0,2117.0,99,R,9194701,9194799,100,1242.7,501.7,3419,right
56,2,continuous,49,81,trial,9195110.0,9197227.0,2117.0,99,R,9194853,9195239,388,971.1,519.2,3505,NA
56,2,continuous,49,81,trial,9195110.0,9197227.0,2117.0,99,R,9195307,9195477,172,460.0,474.8,3440,left
56,2,continuous,49,81,trial,9195110.0,9197227.0,2117.0,99,R,9195545,9195739,196,1462.2,511.8,3215,right
56,2,continuous,49,81,trial,9195110.0,9197227.0,2117.0,99,R,9195765,9195897,134,1444.2,430.0,3137,right
56,2,continuous,49,81,trial,9195110.0,9197227.0,2117.0,99,R,9195905,9196175,272,1457.3,414.2,3150,right
56,2,continuous,49,81,trial,9195110.0,9197227.0,2117.0,99,R,9196221,9196425,206,1456.8,523.8,3164,right
56,2,continuous,49,81,trial,9195110.0,9197227.0,2117.0,99,R,9196505,9196635,132,425.8,495.0,3291,left
56,2,continuous,49,81,trial,9195110.0,9197227.0,2117.0,99,R,9196667,9196753,88,477.2,491.0,3295,left
56,2,continuous,49,81,trial,9195110.0,9197227.0,2117.0,99,R,9196819,9196997,180,1428.0,495.2,3186,right
56,2,continuous,49,81,postResponse,9195110.0,9197227.0,2117.0,99,R,9197021,9197559,540,1439.3,443.2,3174,right
56,2,continuous,50,27,fixationCross,9198360.0,9200927.0,2567.0,100,R,9197659,9197935,278,1431.4,436.3,3302,right
56,2,continuous,50,27,fixationCross,9198360.0,9200927.0,2567.0,100,R,9197995,9198111,118,861.2,476.1,3454,NA
56,2,continuous,50,27,fixationCross,9198360.0,9200927.0,2567.0,100,R,9198149,9198261,114,980.6,519.2,3426,NA
56,2,continuous,50,27,trial,9198360.0,9200927.0,2567.0,100,R,9198279,9198493,216,957.3,523.8,3479,NA
56,2,continuous,50,27,trial,9198360.0,9200927.0,2567.0,100,R,9198549,9198821,274,475.2,532.0,3534,left
56,2,continuous,50,27,trial,9198360.0,9200927.0,2567.0,100,R,9198849,9198967,120,461.7,571.7,3383,left
56,2,continuous,50,27,trial,9198360.0,9200927.0,2567.0,100,R,9199033,9199231,200,1470.6,545.1,3148,right
56,2,continuous,50,27,trial,9198360.0,9200927.0,2567.0,100,R,9199263,9199425,164,1537.5,577.3,3089,right
56,2,continuous,50,27,trial,9198360.0,9200927.0,2567.0,100,R,9199463,9199763,302,1311.5,563.4,3095,right
56,2,continuous,50,27,trial,9198360.0,9200927.0,2567.0,100,R,9199825,9200041,218,519.0,561.2,3147,left
56,2,continuous,50,27,postResponse,9198360.0,9200927.0,2567.0,100,R,9200067,9201259,1194,457.5,570.1,3199,left
56,3,valuation,1,7,fixationCross,9283161.0,9285661.0,2500.0,101,R,9282477,9282877,402,900.3,454.9,3682,NA
56,3,valuation,1,7,fixationCross,9283161.0,9285661.0,2500.0,101,R,9282911,9283059,150,964.8,524.1,3597,NA
56,3,valuation,1,7,trial,9283161.0,9285661.0,2500.0,101,R,9283069,9283363,296,967.3,541.2,3649,NA
56,3,valuation,1,7,trial,9283161.0,9285661.0,2500.0,101,R,9283427,9283569,144,490.7,539.7,3614,likertVertical
56,3,valuation,1,7,trial,9283161.0,9285661.0,2500.0,101,R,9283599,9283671,74,534.0,554.4,3565,likertVertical
56,3,valuation,1,7,trial,9283161.0,9285661.0,2500.0,101,R,9283735,9283921,188,1427.0,504.2,3462,right
56,3,valuation,1,7,trial,9283161.0,9285661.0,2500.0,101,R,9283955,9284099,146,1394.2,573.5,3437,right
56,3,valuation,1,7,trial,9283161.0,9285661.0,2500.0,101,R,9284165,9284307,144,569.9,359.6,3537,likertVertical
56,3,valuation,1,7,trial,9283161.0,9285661.0,2500.0,101,R,9284329,9284485,158,528.6,360.8,3592,likertVertical
56,3,valuation,1,7,trial,9283161.0,9285661.0,2500.0,101,R,9284517,9284707,192,586.0,298.1,3566,likertVertical
56,3,valuation,1,7,trial,9283161.0,9285661.0,2500.0,101,R,9284743,9285477,736,500.2,388.2,3555,likertVertical
56,3,valuation,1,7,trial,9283161.0,9285661.0,2500.0,101,R,9285499,9285645,148,505.4,319.7,3549,likertVertical
