participantNo,block,task,blockTrial,response,trialStage,trialStartTime,trialFinishTime,rt,trial,eye,fixStart,fixEnd,fixLength,fixPosX,fixPosY,dilation,aoi
29,1,continuous,1,50,fixationCross,18392418.0,18393968.0,1550.0,1,R,18391830,18391986,158,833.7,602.3,3062,NA
29,1,continuous,1,50,fixationCross,18392418.0,18393968.0,1550.0,1,R,18392008,18392272,266,906.7,610.0,3044,NA
29,1,continuous,1,50,trial,18392418.0,18393968.0,1550.0,1,R,18392300,18392450,152,971.5,537.9,3090,NA
29,1,continuous,1,50,trial,18392418.0,18393968.0,1550.0,1,R,18392464,18392768,306,951.3,556.3,3092,NA
29,1,continuous,1,50,trial,18392418.0,18393968.0,1550.0,1,R,18392818,18393040,224,1434.3,552.9,2909,right
29,1,continuous,1,50,trial,18392418.0,18393968.0,1550.0,1,R,18393064,18393248,186,1493.8,483.8,2838,right
29,1,continuous,1,50,trial,18392418.0,18393968.0,1550.0,1,R,18393268,18393442,176,1568.1,519.0,2863,right
29,1,continuous,1,50,trial,18392418.0,18393968.0,1550.0,1,R,18393516,18393972,458,550.2,547.5,2935,left
29,1,continuous,1,50,postResponse,18392418.0,18393968.0,1550.0,1,R,18393988,18394304,318,570.2,522.8,2901,left
29,1,continuous,2,53,fixationCross,18395567.0,18399784.0,4217.0,2,R,18394414,18394530,118,731.2,515.3,2775,left
29,1,continuous,2,53,fixationCross,18395567.0,18399784.0,4217.0,2,R,18394556,18395246,692,834.1,582.8,3043,NA
29,1,continuous,2,53,trial,18395567.0,18399784.0,4217.0,2,R,18395274,18395732,460,958.6,557.2,3235,NA
29,1,continuous,2,53,trial,18395567.0,18399784.0,4217.0,2,R,18395768,18395962,196,642.3,519.4,3193,left
29,1,continuous,2,53,trial,18395567.0,18399784.0,4217.0,2,R,18396026,18396194,170,716.1,986.0,2973,NA
29,1,continuous,2,53,trial,18395567.0,18399784.0,4217.0,2,R,18396222,18396444,224,523.6,1010.5,3006,NA
29,1,continuous,2,53,trial,18395567.0,18399784.0,4217.0,2,R,18396496,18396720,226,571.3,550.3,3007,left
29,1,continuous,2,53,trial,18395567.0,18399784.0,4217.0,2,R,18396738,18396910,174,549.7,508.7,2970,left
29,1,continuous,2,53,trial,18395567.0,18399784.0,4217.0,2,R,18396922,18396972,52,528.0,492.8,2967,left
29,1,continuous,2,53,trial,18395567.0,18399784.0,4217.0,2,R,18397042,18397266,226,1416.2,542.0,2964,right
29,1,continuous,2,53,trial,18395567.0,18399784.0,4217.0,2,R,18397288,18397576,290,1479.1,598.9,2998,right
29,1,continuous,2,53,trial,18395567.0,18399784.0,4217.0,2,R,18397610,18397822,214,1380.8,463.9,3065,right
29,1,continuous,2,53,trial,18395567.0,18399784.0,4217.0,2,R,18397866,18398040,176,1439.0,747.7,3040,NA
29,1,continuous,2,53,trial,18395567.0,18399784.0,4217.0,2,R,18398078,18398264,188,1263.4,950.2,3051,NA
29,1,continuous,2,53,trial,18395567.0,18399784.0,4217.0,2,R,18398332,18398546,216,541.9,555.6,3118,left
29,1,continuous,2,53,trial,18395567.0,18399784.0,4217.0,2,R,18398568,18398698,132,570.4,553.6,3106,left
29,1,continuous,2,53,trial,18395567.0,18399784.0,4217.0,2,R,18398728,18399126,400,517.1,647.0,3019,left
29,1,continuous,2,53,trial,18395567.0,18399784.0,4217.0,2,R,18399176,18399328,154,877.0,823.6,2934,likertHorizontal
29,1,continuous,2,53,trial,18395567.0,18399784.0,4217.0,2,R,18399354,18399692,340,972.5,910.1,2901,likertHorizontal
29,1,continuous,2,53,trial,18395567.0,18399784.0,4217.0,2,R,18399708,18399866,160,931.6,889.8,2944,likertHorizontal
29,1,continuous,2,53,trial,18395567.0,18399784.0,4217.0,2,R,18399890,18400092,204,1008.8,971.6,2958,likertHorizontal
29,1,continuous,3,63,fixationCross,18400885.0,18402568.0,1683.0,3,R,18400206,18400566,362,873.0,677.7,3053,NA
29,1,continuous,3,63,trial,18400885.0,18402568.0,1683.0,3,R,18400600,18401048,450,959.8,553.2,3148,NA
29,1,continuous,3,63,trial,18400885.0,18402568.0,1683.0,3,R,18401092,18401300,210,563.9,471.9,3064,left
29,1,continuous,3,63,trial,18400885.0,18402568.0,1683.0,3,R,18401316,18401432,118,535.0,494.3,2870,left
29,1,continuous,3,63,trial,18400885.0,18402568.0,1683.0,3,R,18401498,18401684,188,1356.8,499.9,2779,right
29,1,continuous,3,63,trial,18400885.0,18402568.0,1683.0,3,R,18401710,18401918,210,1438.4,537.0,2729,right
29,1,continuous,3,63,trial,18400885.0,18402568.0,1683.0,3,R,18401934,18402276,344,1483.3,513.0,2738,right
29,1,continuous,3,63,trial,18400885.0,18402568.0,1683.0,3,R,18402298,18402618,322,1400.3,516.5,2750,right
29,1,continuous,3,63,postResponse,18400885.0,18402568.0,1683.0,3,R,18402674,18402908,236,1152.2,931.5,2760,likertHorizontal
29,1,continuous,4,1,fixationCross,18403668.0,18406185.0,2517.0,4,R,18402988,18403210,224,926.1,818.9,2808,likertHorizontal
29,1,continuous,4,1,fixationCross,18403668.0,18406185.0,2517.0,4,R,18403252,18403366,116,825.3,729.2,2942,NA
29,1,continuous,4,1,trial,18403668.0,18406185.0,2517.0,4,R,18403406,18403852,448,960.3,551.1,2982,NA
29,1,continuous,4,1,trial,18403668.0,18406185.0,2517.0,4,R,18403894,18404164,272,598.0,568.3,2851,left
29,1,continuous,4,1,trial,18403668.0,18406185.0,2517.0,4,R,18404184,18404288,106,518.9,569.3,2680,left
29,1,continuous,4,1,trial,18403668.0,18406185.0,2517.0,4,R,18404310,18404588,280,399.2,602.4,2649,left
29,1,continuous,4,1,trial,18403668.0,18406185.0,2517.0,4,R,18404662,18404898,238,1405.4,554.6,2612,right
29,1,continuous,4,1,trial,18403668.0,18406185.0,2517.0,4,R,18404928,18405198,272,1555.8,496.8,2674,right
29,1,continuous,4,1,trial,18403668.0,18406185.0,2517.0,4,R,18405292,18405384,94,743.9,816.9,2798,likertHorizontal
29,1,continuous,4,1,trial,18403668.0,18406185.0,2517.0,4,R,18405422,18405568,148,640.8,995.1,2884,NA
29,1,continuous,4,1,trial,18403668.0,18406185.0,2517.0,4,R,18405584,18405784,202,657.3,981.9,2894,NA
29,1,continuous,4,1,trial,18403668.0,18406185.0,2517.0,4,R,18405844,18406020,178,451.9,653.9,2883,left
29,1,continuous,4,1,trial,18403668.0,18406185.0,2517.0,4,R,18406038,18406224,188,426.3,618.8,2881,left
29,1,continuous,4,1,trial,18403668.0,18406185.0,2517.0,4,R,18406234,18406492,260,401.8,614.8,2843,left
29,1,continuous,5,23,fixationCross,18407335.0,18410185.0,2850.0,5,R,18406642,18406722,82,661.3,587.7,2800,left
29,1,continuous,5,23,fixationCross,18407335.0,18410185.0,2850.0,5,R,18406746,18407012,268,752.8,596.5,2842,NA
29,1,continuous,5,23,fixationCross,18407335.0,18410185.0,2850.0,5,R,18407044,18407182,140,978.4,554.7,3003,NA
29,1,continuous,5,23,trial,18407335.0,18410185.0,2850.0,5,R,18407192,18407522,332,964.9,564.9,3082,NA
29,1,continuous,5,23,trial,18407335.0,18410185.0,2850.0,5,R,18407570,18407904,336,535.4,606.5,2996,left
29,1,continuous,5,23,trial,18407335.0,18410185.0,2850.0,5,R,18407974,18408208,236,1371.3,472.2,2867,right
29,1,continuous,5,23,trial,18407335.0,18410185.0,2850.0,5,R,18408224,18408872,650,1370.7,444.2,2855,right
29,1,continuous,5,23,trial,18407335.0,18410185.0,2850.0,5,R,18408940,18409076,138,1014.7,852.5,2756,likertHorizontal
29,1,continuous,5,23,trial,18407335.0,18410185.0,2850.0,5,R,18409100,18409306,208,1059.6,952.4,2780,likertHorizontal
29,1,continuous,5,23,trial,18407335.0,18410185.0,2850.0,5,R,18409332,18409514,184,908.3,957.8,2793,likertHorizontal
29,1,continuous,5,23,trial,18407335.0,18410185.0,2850.0,5,R,18409532,18409796,266,795.2,969.3,2877,likertHorizontal
29,1,continuous,5,23,trial,18407335.0,18410185.0,2850.0,5,R,18409836,18410006,172,514.1,995.0,3036,NA
29,1,continuous,5,23,trial,18407335.0,18410185.0,2850.0,5,R,18410034,18410232,200,661.0,972.6,3033,NA
29,1,continuous,5,23,postResponse,18407335.0,18410185.0,2850.0,5,R,18410286,18410524,240,570.7,569.3,2946,left
29,1,continuous,6,1,fixationCross,18411285.0,18413718.0,2433.0,6,R,18410600,18410762,164,658.5,554.4,2962,left
29,1,continuous,6,1,fixationCross,18411285.0,18413718.0,2433.0,6,R,18410786,18410972,188,756.9,569.8,3001,NA
29,1,continuous,6,1,trial,18411285.0,18413718.0,2433.0,6,R,18411006,18411458,454,963.1,551.0,3050,NA
29,1,continuous,6,1,trial,18411285.0,18413718.0,2433.0,6,R,18411502,18411854,354,581.7,580.0,2912,left
29,1,continuous,6,1,trial,18411285.0,18413718.0,2433.0,6,R,18411876,18411978,104,513.9,563.9,2757,left
29,1,continuous,6,1,trial,18411285.0,18413718.0,2433.0,6,R,18412046,18412232,188,1434.4,476.7,2690,right
29,1,continuous,6,1,trial,18411285.0,18413718.0,2433.0,6,R,18412254,18412484,232,1543.3,474.2,2650,right
29,1,continuous,6,1,trial,18411285.0,18413718.0,2433.0,6,R,18412510,18412668,160,1384.8,467.4,2746,right
29,1,continuous,6,1,trial,18411285.0,18413718.0,2433.0,6,R,18412740,18413218,480,535.3,551.9,2861,left
29,1,continuous,6,1,trial,18411285.0,18413718.0,2433.0,6,R,18413242,18413552,312,433.2,552.7,2817,left
29,1,continuous,6,1,trial,18411285.0,18413718.0,2433.0,6,R,18413600,18413714,116,528.1,833.9,2778,NA
29,1,continuous,6,1,postResponse,18411285.0,18413718.0,2433.0,6,R,18413736,18414052,318,510.5,955.8,2809,NA
29,1,continuous,7,22,fixationCross,18414818.0,18418569.0,3751.0,7,R,18414128,18414514,388,927.3,682.9,2805,NA
29,1,continuous,7,22,fixationCross,18414818.0,18418569.0,3751.0,7,R,18414550,18414690,142,943.9,544.8,2948,NA
29,1,continuous,7,22,trial,18414818.0,18418569.0,3751.0,7,R,18414704,18414984,282,964.9,552.9,2974,NA
29,1,continuous,7,22,trial,18414818.0,18418569.0,3751.0,7,R,18415032,18415220,190,500.8,553.6,2957,left
29,1,continuous,7,22,trial,18414818.0,18418569.0,3751.0,7,R,18415242,18415318,78,481.2,597.1,2816,left
29,1,continuous,7,22,trial,18414818.0,18418569.0,3751.0,7,R,18415394,18415790,398,1470.3,495.5,2701,right
29,1,continuous,7,22,trial,18414818.0,18418569.0,3751.0,7,R,18415850,18416016,168,1492.0,1000.8,2791,NA
29,1,continuous,7,22,trial,18414818.0,18418569.0,3751.0,7,R,18416028,18416210,184,1448.2,1009.1,2850,NA
29,1,continuous,7,22,trial,18414818.0,18418569.0,3751.0,7,R,18416280,18416568,290,673.4,932.2,2945,NA
29,1,continuous,7,22,trial,18414818.0,18418569.0,3751.0,7,R,18416600,18416740,142,870.8,949.3,2921,likertHorizontal
29,1,continuous,7,22,trial,18414818.0,18418569.0,3751.0,7,R,18416794,18416960,168,596.8,768.7,2983,NA
29,1,continuous,7,22,trial,18414818.0,18418569.0,3751.0,7,R,18416986,18417178,194,476.2,680.1,3000,left
29,1,continuous,7,22,trial,18414818.0,18418569.0,3751.0,7,R,18417232,18417730,500,811.8,991.1,2930,likertHorizontal
29,1,continuous,7,22,trial,18414818.0,18418569.0,3751.0,7,R,18417752,18417970,220,897.5,975.4,2885,likertHorizontal
29,1,continuous,7,22,trial,18414818.0,18418569.0,3751.0,7,R,18417992,18418296,306,800.4,983.9,2909,likertHorizontal
29,1,continuous,7,22,trial,18414818.0,18418569.0,3751.0,7,R,18418320,18418534,216,579.5,994.9,3006,NA
29,1,continuous,7,22,trial,18414818.0,18418569.0,3751.0,7,R,18418552,18418874,324,619.5,984.8,3021,NA
29,1,continuous,8,85,fixationCross,18419468.0,18422035.0,2567.0,8,R,18418978,18419038,62,697.8,948.4,2983,NA
29,1,continuous,8,85,fixationCross,18419468.0,18422035.0,2567.0,8,R,18419086,18419380,296,961.0,632.6,2953,NA
29,1,continuous,8,85,trial,18419468.0,18422035.0,2567.0,8,R,18419404,18419636,234,956.1,566.2,3015,NA
29,1,continuous,8,85,trial,18419468.0,18422035.0,2567.0,8,R,18419682,18419898,218,525.1,543.3,2989,left
29,1,continuous,8,85,trial,18419468.0,18422035.0,2567.0,8,R,18419922,18420096,176,531.9,605.3,2819,left
29,1,continuous,8,85,trial,18419468.0,18422035.0,2567.0,8,R,18420118,18420220,104,479.4,675.1,2755,left
29,1,continuous,8,85,trial,18419468.0,18422035.0,2567.0,8,R,18420290,18420414,126,1431.4,471.6,2642,right
29,1,continuous,8,85,trial,18419468.0,18422035.0,2567.0,8,R,18420564,18420676,114,1424.7,441.2,2627,right
29,1,continuous,8,85,trial,18419468.0,18422035.0,2567.0,8,R,18420698,18421228,532,1443.7,392.1,2704,right
29,1,continuous,8,85,trial,18419468.0,18422035.0,2567.0,8,R,18421298,18421456,160,1409.0,956.4,2742,NA
29,1,continuous,8,85,trial,18419468.0,18422035.0,2567.0,8,R,18421476,18421814,340,1323.3,988.8,2757,NA
29,1,continuous,8,85,trial,18419468.0,18422035.0,2567.0,8,R,18421886,18422094,210,584.7,592.9,2789,left
29,1,continuous,8,85,postResponse,18419468.0,18422035.0,2567.0,8,R,18422112,18422370,260,541.2,590.1,2802,left
29,1,continuous,9,48,fixationCross,18423135.0,18425769.0,2634.0,9,R,18422444,18422660,218,682.0,549.7,2781,left
29,1,continuous,9,48,fixationCross,18423135.0,18425769.0,2634.0,9,R,18422680,18422834,156,750.2,567.3,2785,NA
29,1,continuous,9,48,fixationCross,18423135.0,18425769.0,2634.0,9,R,18422866,18422990,126,928.7,548.4,2871,NA
29,1,continuous,9,48,trial,18423135.0,18425769.0,2634.0,9,R,18423004,18423148,146,966.9,551.7,2904,NA
29,1,continuous,9,48,trial,18423135.0,18425769.0,2634.0,9,R,18423158,18423298,142,950.5,552.8,2953,NA
29,1,continuous,9,48,trial,18423135.0,18425769.0,2634.0,9,R,18423342,18423640,300,589.0,560.3,2938,left
29,1,continuous,9,48,trial,18423135.0,18425769.0,2634.0,9,R,18423714,18423982,270,1533.7,429.3,2753,right
29,1,continuous,9,48,trial,18423135.0,18425769.0,2634.0,9,R,18423998,18424338,342,1578.1,442.5,2783,right
29,1,continuous,9,48,trial,18423135.0,18425769.0,2634.0,9,R,18424412,18424638,228,612.8,563.3,2894,left
29,1,continuous,9,48,trial,18423135.0,18425769.0,2634.0,9,R,18424664,18424908,246,704.0,573.1,2840,left
29,1,continuous,9,48,trial,18423135.0,18425769.0,2634.0,9,R,18424958,18425240,284,950.8,858.7,2743,likertHorizontal
29,1,continuous,9,48,trial,18423135.0,18425769.0,2634.0,9,R,18425266,18425472,208,946.6,956.5,2797,likertHorizontal
29,1,continuous,9,48,trial,18423135.0,18425769.0,2634.0,9,R,18425538,18425630,94,1505.0,526.2,2947,right
29,1,continuous,9,48,trial,18423135.0,18425769.0,2634.0,9,R,18425652,18425774,124,1532.8,462.8,2952,right
29,1,continuous,9,48,trial,18423135.0,18425769.0,2634.0,9,R,18425790,18426058,270,1585.2,449.9,2935,right
29,1,continuous,10,1,fixationCross,18426652.0,18429935.0,3283.0,10,R,18426172,18426376,206,1077.9,523.3,2990,NA
29,1,continuous,10,1,fixationCross,18426652.0,18429935.0,3283.0,10,R,18426400,18426584,186,993.9,530.8,3012,NA
29,1,continuous,10,1,trial,18426652.0,18429935.0,3283.0,10,R,18426606,18426728,124,956.6,568.2,3052,NA
29,1,continuous,10,1,trial,18426652.0,18429935.0,3283.0,10,R,18426738,18426828,92,977.3,565.2,3070,NA
29,1,continuous,10,1,trial,18426652.0,18429935.0,3283.0,10,R,18426890,18427060,172,531.8,561.8,3016,left
29,1,continuous,10,1,trial,18426652.0,18429935.0,3283.0,10,R,18427088,18427308,222,489.7,476.6,2774,left
29,1,continuous,10,1,trial,18426652.0,18429935.0,3283.0,10,R,18427334,18427712,380,440.4,578.8,2676,left
29,1,continuous,10,1,trial,18426652.0,18429935.0,3283.0,10,R,18427756,18427916,162,525.3,792.2,2767,NA
29,1,continuous,10,1,trial,18426652.0,18429935.0,3283.0,10,R,18427948,18428058,112,506.0,967.7,2873,NA
29,1,continuous,10,1,trial,18426652.0,18429935.0,3283.0,10,R,18428134,18428332,200,1388.2,609.9,2885,right
29,1,continuous,10,1,trial,18426652.0,18429935.0,3283.0,10,R,18428362,18428562,202,1494.4,552.1,2913,right
29,1,continuous,10,1,trial,18426652.0,18429935.0,3283.0,10,R,18428584,18428922,340,1415.4,586.3,2924,right
29,1,continuous,10,1,trial,18426652.0,18429935.0,3283.0,10,R,18429004,18429110,108,655.9,954.6,2989,NA
29,1,continuous,10,1,trial,18426652.0,18429935.0,3283.0,10,R,18429138,18429376,240,512.1,978.1,3002,NA
29,1,continuous,10,1,trial,18426652.0,18429935.0,3283.0,10,R,18429424,18429694,272,467.7,635.2,2946,left
29,1,continuous,10,1,trial,18426652.0,18429935.0,3283.0,10,R,18429746,18430024,280,498.1,972.1,2954,NA
29,1,continuous,10,1,postResponse,18426652.0,18429935.0,3283.0,10,R,18430076,18430270,196,548.9,691.7,2925,left
29,1,continuous,11,40,fixationCross,18431018.0,18434469.0,3451.0,11,R,18430344,18430548,206,634.5,662.2,2952,left
29,1,continuous,11,40,fixationCross,18431018.0,18434469.0,3451.0,11,R,18430572,18430708,138,717.1,632.0,2994,left
29,1,continuous,11,40,fixationCross,18431018.0,18434469.0,3451.0,11,R,18430744,18430886,144,976.3,547.9,3083,NA
29,1,continuous,11,40,trial,18431018.0,18434469.0,3451.0,11,R,18430898,18431220,324,959.7,553.7,3119,NA
29,1,continuous,11,40,trial,18431018.0,18434469.0,3451.0,11,R,18431276,18431426,152,568.6,608.8,3056,left
29,1,continuous,11,40,trial,18431018.0,18434469.0,3451.0,11,R,18431452,18431566,116,481.8,661.9,2870,left
29,1,continuous,11,40,trial,18431018.0,18434469.0,3451.0,11,R,18431636,18431900,266,1414.5,501.1,2727,right
29,1,continuous,11,40,trial,18431018.0,18434469.0,3451.0,11,R,18431920,18432120,202,1487.3,492.9,2671,right
29,1,continuous,11,40,trial,18431018.0,18434469.0,3451.0,11,R,18432200,18432360,162,508.2,646.3,2779,left
29,1,continuous,11,40,trial,18431018.0,18434469.0,3451.0,11,R,18432372,18432678,308,491.1,674.7,2860,left
29,1,continuous,11,40,trial,18431018.0,18434469.0,3451.0,11,R,18432700,18432912,214,530.9,612.1,2906,left
29,1,continuous,11,40,trial,18431018.0,18434469.0,3451.0,11,R,18432936,18433388,454,590.7,579.6,2854,left
29,1,continuous,11,40,trial,18431018.0,18434469.0,3451.0,11,R,18433458,18433698,242,1406.0,498.2,2895,right
29,1,continuous,11,40,trial,18431018.0,18434469.0,3451.0,11,R,18433774,18434114,342,750.1,962.8,2925,likertHorizontal
29,1,continuous,11,40,trial,18431018.0,18434469.0,3451.0,11,R,18434136,18434414,280,845.3,972.1,2930,likertHorizontal
29,1,continuous,11,40,postResponse,18431018.0,18434469.0,3451.0,11,R,18434426,18434804,380,875.3,970.7,2896,likertHorizontal
29,1,continuous,12,75,fixationCross,18435652.0,18437952.0,2300.0,12,R,18434880,18435100,222,890.3,828.1,2884,likertHorizontal
29,1,continuous,12,75,fixationCross,18435652.0,18437952.0,2300.0,12,R,18435140,18435324,186,825.8,690.4,3004,NA
29,1,continuous,12,75,trial,18435652.0,18437952.0,2300.0,12,R,18435360,18435804,446,962.1,559.5,3046,NA
29,1,continuous,12,75,trial,18435652.0,18437952.0,2300.0,12,R,18435850,18436092,244,580.9,542.5,2983,left
29,1,continuous,12,75,trial,18435652.0,18437952.0,2300.0,12,R,18436114,18436258,146,553.4,475.0,2728,left
29,1,continuous,12,75,trial,18435652.0,18437952.0,2300.0,12,R,18436272,18436472,202,554.8,445.6,2630,left
29,1,continuous,12,75,trial,18435652.0,18437952.0,2300.0,12,R,18436502,18436720,220,482.4,534.4,2577,left
29,1,continuous,12,75,trial,18435652.0,18437952.0,2300.0,12,R,18436792,18436950,160,1426.0,451.8,2603,right
29,1,continuous,12,75,trial,18435652.0,18437952.0,2300.0,12,R,18436968,18437340,374,1371.5,459.0,2644,right
29,1,continuous,12,75,trial,18435652.0,18437952.0,2300.0,12,R,18437398,18437570,174,1185.6,975.8,2694,NA
29,1,continuous,12,75,trial,18435652.0,18437952.0,2300.0,12,R,18437590,18437786,198,1225.6,992.1,2750,NA
29,1,continuous,12,75,postResponse,18435652.0,18437952.0,2300.0,12,R,18437860,18438286,428,596.1,559.2,2802,left
29,1,continuous,13,1,fixationCross,18439068.0,18441635.0,2567.0,13,R,18438388,18438592,206,607.4,561.2,2848,left
29,1,continuous,13,1,fixationCross,18439068.0,18441635.0,2567.0,13,R,18438604,18438764,162,583.5,563.4,2880,left
29,1,continuous,13,1,fixationCross,18439068.0,18441635.0,2567.0,13,R,18438808,18438942,136,935.4,541.6,2893,NA
29,1,continuous,13,1,trial,18439068.0,18441635.0,2567.0,13,R,18438956,18439244,290,963.0,548.3,2873,NA
29,1,continuous,13,1,trial,18439068.0,18441635.0,2567.0,13,R,18439288,18439862,576,503.0,562.4,2794,left
29,1,continuous,13,1,trial,18439068.0,18441635.0,2567.0,13,R,18439940,18440360,422,1463.3,527.1,2716,right
29,1,continuous,13,1,trial,18439068.0,18441635.0,2567.0,13,R,18440442,18440596,156,552.4,559.5,2734,left
29,1,continuous,13,1,trial,18439068.0,18441635.0,2567.0,13,R,18440612,18441162,552,501.4,575.3,2746,left
29,1,continuous,13,1,trial,18439068.0,18441635.0,2567.0,13,R,18441212,18441338,128,522.9,952.2,2851,NA
29,1,continuous,13,1,trial,18439068.0,18441635.0,2567.0,13,R,18441356,18441832,478,495.3,982.7,2874,NA
29,1,continuous,13,1,postResponse,18439068.0,18441635.0,2567.0,13,R,18441886,18441970,86,720.7,640.4,2883,left
29,1,continuous,14,53,fixationCross,18442752.0,18445519.0,2767.0,14,R,18442070,18442190,122,719.9,629.8,2945,left
29,1,continuous,14,53,fixationCross,18442752.0,18445519.0,2767.0,14,R,18442202,18442450,250,721.6,601.3,2983,left
29,1,continuous,14,53,fixationCross,18442752.0,18445519.0,2767.0,14,R,18442486,18442614,130,965.1,540.0,3069,NA
29,1,continuous,14,53,trial,18442752.0,18445519.0,2767.0,14,R,18442626,18442926,302,950.0,557.4,3057,NA
29,1,continuous,14,53,trial,18442752.0,18445519.0,2767.0,14,R,18442968,18443170,204,563.3,520.9,3093,left
29,1,continuous,14,53,trial,18442752.0,18445519.0,2767.0,14,R,18443236,18443510,276,1429.7,487.3,2884,right
29,1,continuous,14,53,trial,18442752.0,18445519.0,2767.0,14,R,18443530,18443928,400,1485.5,514.9,2884,right
29,1,continuous,14,53,trial,18442752.0,18445519.0,2767.0,14,R,18444000,18444338,340,575.7,481.3,2929,left
29,1,continuous,14,53,trial,18442752.0,18445519.0,2767.0,14,R,18444400,18444642,244,1208.1,459.1,2871,right
29,1,continuous,14,53,trial,18442752.0,18445519.0,2767.0,14,R,18444686,18444930,246,1074.8,855.2,2792,likertHorizontal
29,1,continuous,14,53,trial,18442752.0,18445519.0,2767.0,14,R,18444956,18445224,270,995.2,929.8,2919,likertHorizontal
29,1,continuous,14,53,trial,18442752.0,18445519.0,2767.0,14,R,18445288,18445488,202,1455.8,607.3,3057,right
29,1,continuous,14,53,trial,18442752.0,18445519.0,2767.0,14,R,18445508,18445750,244,1502.3,560.5,2967,right
29,1,continuous,15,2,fixationCross,18446402.0,18450235.0,3833.0,15,R,18446054,18446356,304,949.2,571.7,2854,NA
29,1,continuous,15,2,trial,18446402.0,18450235.0,3833.0,15,R,18446368,18446576,210,962.5,566.0,2988,NA
29,1,continuous,15,2,trial,18446402.0,18450235.0,3833.0,15,R,18446618,18446918,302,587.5,554.3,2853,left
29,1,continuous,15,2,trial,18446402.0,18450235.0,3833.0,15,R,18446942,18447272,332,460.1,527.9,2620,left
29,1,continuous,15,2,trial,18446402.0,18450235.0,3833.0,15,R,18447286,18447436,152,425.5,528.1,2591,left
29,1,continuous,15,2,trial,18446402.0,18450235.0,3833.0,15,R,18447470,18447648,180,666.5,539.4,2599,left
29,1,continuous,15,2,trial,18446402.0,18450235.0,3833.0,15,R,18447710,18447856,148,1344.8,477.5,2675,right
29,1,continuous,15,2,trial,18446402.0,18450235.0,3833.0,15,R,18447882,18448040,160,1461.8,512.4,2715,right
29,1,continuous,15,2,trial,18446402.0,18450235.0,3833.0,15,R,18448068,18448316,250,1585.8,601.1,2817,right
29,1,continuous,15,2,trial,18446402.0,18450235.0,3833.0,15,R,18448338,18448498,162,1550.6,646.2,2897,right
29,1,continuous,15,2,trial,18446402.0,18450235.0,3833.0,15,R,18448520,18448810,292,1637.1,609.0,2923,right
29,1,continuous,15,2,trial,18446402.0,18450235.0,3833.0,15,R,18448860,18448990,132,1178.9,896.6,2935,likertHorizontal
29,1,continuous,15,2,trial,18446402.0,18450235.0,3833.0,15,R,18449018,18449258,242,1048.1,941.9,2794,likertHorizontal
29,1,continuous,15,2,trial,18446402.0,18450235.0,3833.0,15,R,18449314,18449428,116,1510.2,716.8,2893,right
29,1,continuous,15,2,trial,18446402.0,18450235.0,3833.0,15,R,18449446,18449470,26,1513.1,687.8,2890,right
29,1,continuous,15,2,trial,18446402.0,18450235.0,3833.0,15,R,18449542,18449876,336,531.7,540.0,2889,left
29,1,continuous,15,2,trial,18446402.0,18450235.0,3833.0,15,R,18449900,18450180,282,417.2,530.4,2834,left
29,1,continuous,15,2,postResponse,18446402.0,18450235.0,3833.0,15,R,18450232,18450570,340,502.4,977.2,2742,NA
29,1,continuous,16,1,fixationCross,18451219.0,18456585.0,5366.0,16,R,18450674,18450680,8,1039.1,752.0,2602,likertHorizontal
29,1,continuous,16,1,fixationCross,18451219.0,18456585.0,5366.0,16,R,18450692,18450908,218,1143.6,631.1,2678,NA
29,1,continuous,16,1,fixationCross,18451219.0,18456585.0,5366.0,16,R,18450932,18451094,164,1028.2,565.8,2796,NA
29,1,continuous,16,1,trial,18451219.0,18456585.0,5366.0,16,R,18451112,18451420,310,963.0,553.3,2932,NA
29,1,continuous,16,1,trial,18451219.0,18456585.0,5366.0,16,R,18451470,18451650,182,481.7,502.9,2961,left
29,1,continuous,16,1,trial,18451219.0,18456585.0,5366.0,16,R,18451676,18451782,108,451.8,410.7,2818,left
29,1,continuous,16,1,trial,18451219.0,18456585.0,5366.0,16,R,18451866,18452132,268,1603.2,513.1,2744,right
29,1,continuous,16,1,trial,18451219.0,18456585.0,5366.0,16,R,18452154,18452218,66,1521.4,518.4,2755,right
29,1,continuous,16,1,trial,18451219.0,18456585.0,5366.0,16,R,18452286,18452512,228,671.5,513.8,2859,left
29,1,continuous,16,1,trial,18451219.0,18456585.0,5366.0,16,R,18452534,18452704,172,594.7,473.9,2889,left
29,1,continuous,16,1,trial,18451219.0,18456585.0,5366.0,16,R,18452728,18453126,400,522.7,501.0,2941,left
29,1,continuous,16,1,trial,18451219.0,18456585.0,5366.0,16,R,18453142,18453436,296,486.2,507.1,2979,left
29,1,continuous,16,1,trial,18451219.0,18456585.0,5366.0,16,R,18453522,18453672,152,1450.5,524.0,2972,right
29,1,continuous,16,1,trial,18451219.0,18456585.0,5366.0,16,R,18453746,18454020,276,497.5,471.0,2970,left
29,1,continuous,16,1,trial,18451219.0,18456585.0,5366.0,16,R,18454064,18454282,220,432.2,602.4,2982,left
29,1,continuous,16,1,trial,18451219.0,18456585.0,5366.0,16,R,18454304,18454572,270,391.9,572.9,2983,left
29,1,continuous,16,1,trial,18451219.0,18456585.0,5366.0,16,R,18454600,18455046,448,377.4,654.7,2961,left
29,1,continuous,16,1,trial,18451219.0,18456585.0,5366.0,16,R,18455090,18455174,86,504.1,499.8,2995,left
29,1,continuous,16,1,trial,18451219.0,18456585.0,5366.0,16,R,18455254,18455386,134,1453.6,540.3,2975,right
29,1,continuous,16,1,trial,18451219.0,18456585.0,5366.0,16,R,18455412,18455636,226,1569.4,526.8,2919,right
29,1,continuous,16,1,trial,18451219.0,18456585.0,5366.0,16,R,18455666,18455896,232,1423.8,660.5,3025,right
29,1,continuous,16,1,trial,18451219.0,18456585.0,5366.0,16,R,18455948,18456148,202,869.6,985.5,2965,likertHorizontal
29,1,continuous,16,1,trial,18451219.0,18456585.0,5366.0,16,R,18456186,18456416,232,498.9,967.0,3097,NA
29,1,continuous,16,1,trial,18451219.0,18456585.0,5366.0,16,R,18456488,18456886,400,473.1,412.1,3023,left
29,1,continuous,17,71,fixationCross,18457752.0,18460819.0,3067.0,17,R,18456994,18457304,312,768.6,621.2,2914,NA
29,1,continuous,17,71,fixationCross,18457752.0,18460819.0,3067.0,17,R,18457322,18457458,138,800.9,586.8,2953,NA
29,1,continuous,17,71,fixationCross,18457752.0,18460819.0,3067.0,17,R,18457484,18457638,156,973.7,548.9,3018,NA
29,1,continuous,17,71,trial,18457752.0,18460819.0,3067.0,17,R,18457650,18457782,134,948.3,566.4,3008,NA
29,1,continuous,17,71,trial,18457752.0,18460819.0,3067.0,17,R,18457794,18457918,126,976.0,563.3,2995,NA
29,1,continuous,17,71,trial,18457752.0,18460819.0,3067.0,17,R,18457964,18458162,200,577.1,535.7,2972,left
29,1,continuous,17,71,trial,18457752.0,18460819.0,3067.0,17,R,18458190,18458388,200,457.8,590.9,2824,left
29,1,continuous,17,71,trial,18457752.0,18460819.0,3067.0,17,R,18458410,18458542,134,532.0,592.7,2773,left
29,1,continuous,17,71,trial,18457752.0,18460819.0,3067.0,17,R,18458616,18458868,254,1516.5,511.7,2703,right
29,1,continuous,17,71,trial,18457752.0,18460819.0,3067.0,17,R,18458884,18459066,184,1483.4,497.7,2722,right
29,1,continuous,17,71,trial,18457752.0,18460819.0,3067.0,17,R,18459086,18459248,164,1424.2,530.8,2801,right
29,1,continuous,17,71,trial,18457752.0,18460819.0,3067.0,17,R,18459280,18459512,234,1534.7,419.1,2812,right
29,1,continuous,17,71,trial,18457752.0,18460819.0,3067.0,17,R,18459586,18459716,132,1156.2,944.9,2824,likertHorizontal
29,1,continuous,17,71,trial,18457752.0,18460819.0,3067.0,17,R,18459734,18459992,260,1106.9,989.8,2780,likertHorizontal
29,1,continuous,17,71,trial,18457752.0,18460819.0,3067.0,17,R,18460056,18460160,106,1403.7,515.1,2851,right
29,1,continuous,17,71,trial,18457752.0,18460819.0,3067.0,17,R,18460186,18460320,136,1357.4,407.0,2842,right
29,1,continuous,17,71,trial,18457752.0,18460819.0,3067.0,17,R,18460346,18460596,252,1261.6,412.8,2845,right
29,1,continuous,17,71,trial,18457752.0,18460819.0,3067.0,17,R,18460622,18460756,136,1377.7,407.7,2842,right
29,1,continuous,17,71,trial,18457752.0,18460819.0,3067.0,17,R,18460786,18460836,52,1512.0,428.3,2852,right
29,1,continuous,17,71,postResponse,18457752.0,18460819.0,3067.0,17,R,18460910,18461152,244,643.0,471.5,2864,left
29,1,continuous,18,51,fixationCross,18461935.0,18464152.0,2217.0,18,R,18461228,18461432,206,740.9,485.9,2795,NA
29,1,continuous,18,51,fixationCross,18461935.0,18464152.0,2217.0,18,R,18461452,18461628,178,796.5,536.0,2799,NA
29,1,continuous,18,51,fixationCross,18461935.0,18464152.0,2217.0,18,R,18461656,18461770,116,926.4,547.4,2850,NA
29,1,continuous,18,51,trial,18461935.0,18464152.0,2217.0,18,R,18461786,18462090,306,963.0,551.0,2857,NA
29,1,continuous,18,51,trial,18461935.0,18464152.0,2217.0,18,R,18462136,18462344,210,597.8,543.0,2869,left
29,1,continuous,18,51,trial,18461935.0,18464152.0,2217.0,18,R,18462360,18462528,170,563.7,559.0,2750,left
29,1,continuous,18,51,trial,18461935.0,18464152.0,2217.0,18,R,18462552,18462726,176,557.6,631.2,2689,left
29,1,continuous,18,51,trial,18461935.0,18464152.0,2217.0,18,R,18462800,18463384,586,1468.2,439.1,2627,right
29,1,continuous,18,51,trial,18461935.0,18464152.0,2217.0,18,R,18463462,18463796,336,577.9,547.3,2693,left
29,1,continuous,18,51,trial,18461935.0,18464152.0,2217.0,18,R,18463820,18463892,74,565.6,637.8,2692,left
29,1,continuous,18,51,trial,18461935.0,18464152.0,2217.0,18,R,18463956,18464116,162,1144.3,921.5,2657,likertHorizontal
29,1,continuous,18,51,trial,18461935.0,18464152.0,2217.0,18,R,18464130,18464174,46,1098.5,896.6,2596,likertHorizontal
29,1,continuous,18,51,postResponse,18461935.0,18464152.0,2217.0,18,R,18464230,18464486,258,1391.6,532.7,2691,right
29,1,continuous,19,25,fixationCross,18465286.0,18468119.0,2833.0,19,R,18464586,18464730,146,1303.9,524.8,2752,right
29,1,continuous,19,25,fixationCross,18465286.0,18468119.0,2833.0,19,R,18464754,18464960,208,1153.7,553.0,2842,NA
29,1,continuous,19,25,trial,18465286.0,18468119.0,2833.0,19,R,18464986,18465456,472,964.1,557.3,2916,NA
29,1,continuous,19,25,trial,18465286.0,18468119.0,2833.0,19,R,18465496,18465654,160,620.5,556.6,2853,left
29,1,continuous,19,25,trial,18465286.0,18468119.0,2833.0,19,R,18465718,18465900,184,1447.4,503.8,2673,right
29,1,continuous,19,25,trial,18465286.0,18468119.0,2833.0,19,R,18465918,18466004,88,1458.8,549.1,2629,right
29,1,continuous,19,25,trial,18465286.0,18468119.0,2833.0,19,R,18466082,18466290,210,469.9,505.8,2711,left
29,1,continuous,19,25,trial,18465286.0,18468119.0,2833.0,19,R,18466308,18466492,186,403.7,503.7,2756,left
29,1,continuous,19,25,trial,18465286.0,18468119.0,2833.0,19,R,18466526,18466686,162,600.8,594.0,2700,left
29,1,continuous,19,25,trial,18465286.0,18468119.0,2833.0,19,R,18466702,18467356,656,546.1,589.1,2702,left
29,1,continuous,19,25,trial,18465286.0,18468119.0,2833.0,19,R,18467388,18467640,254,404.4,502.2,2725,left
29,1,continuous,19,25,trial,18465286.0,18468119.0,2833.0,19,R,18467652,18467934,284,398.4,475.9,2784,left
29,1,continuous,19,25,trial,18465286.0,18468119.0,2833.0,19,R,18467966,18468128,164,568.2,595.3,2854,left
29,1,continuous,19,25,trial,18465286.0,18468119.0,2833.0,19,R,18468140,18468374,236,538.6,602.6,2899,left
29,1,continuous,19,25,postResponse,18465286.0,18468119.0,2833.0,19,R,18468402,18468454,54,645.9,782.4,2927,NA
29,1,continuous,20,100,fixationCross,18469235.0,18472319.0,3084.0,20,R,18468554,18468910,358,720.6,886.4,3039,NA
29,1,continuous,20,100,fixationCross,18469235.0,18472319.0,3084.0,20,R,18468960,18469116,158,942.3,587.5,3157,NA
29,1,continuous,20,100,trial,18469235.0,18472319.0,3084.0,20,R,18469134,18469434,302,963.9,568.1,3186,NA
29,1,continuous,20,100,trial,18469235.0,18472319.0,3084.0,20,R,18469478,18469720,244,651.1,577.9,3162,left
29,1,continuous,20,100,trial,18469235.0,18472319.0,3084.0,20,R,18469834,18469998,166,1411.4,498.8,3071,right
29,1,continuous,20,100,trial,18469235.0,18472319.0,3084.0,20,R,18470018,18470266,250,1471.8,524.4,3083,right
29,1,continuous,20,100,trial,18469235.0,18472319.0,3084.0,20,R,18470332,18470640,310,575.5,552.8,3140,left
29,1,continuous,20,100,trial,18469235.0,18472319.0,3084.0,20,R,18470662,18470804,144,636.0,575.2,3070,left
29,1,continuous,20,100,trial,18469235.0,18472319.0,3084.0,20,R,18470840,18470980,142,361.7,484.8,3015,left
29,1,continuous,20,100,trial,18469235.0,18472319.0,3084.0,20,R,18471060,18471300,242,1456.9,512.5,2860,right
29,1,continuous,20,100,trial,18469235.0,18472319.0,3084.0,20,R,18471320,18471444,126,1478.0,560.8,2826,right
29,1,continuous,20,100,trial,18469235.0,18472319.0,3084.0,20,R,18471502,18471646,146,1277.5,1011.7,2946,NA
29,1,continuous,20,100,trial,18469235.0,18472319.0,3084.0,20,R,18471664,18471848,186,1329.4,996.1,3018,NA
29,1,continuous,20,100,trial,18469235.0,18472319.0,3084.0,20,R,18471904,18472070,168,1474.4,576.8,2994,right
29,1,continuous,20,100,trial,18469235.0,18472319.0,3084.0,20,R,18472082,18472178,98,1466.2,548.8,2994,right
29,1,continuous,20,100,trial,18469235.0,18472319.0,3084.0,20,R,18472224,18472344,122,1464.9,939.7,2989,NA
29,1,continuous,20,100,trial,18469235.0,18472319.0,3084.0,20,R,18472364,18472534,172,1449.8,985.3,2970,NA
29,1,continuous,20,100,postResponse,18469235.0,18472319.0,3084.0,20,R,18472616,18472652,38,831.0,568.6,2940,NA
29,1,continuous,21,66,fixationCross,18473452.0,18476519.0,3067.0,21,R,18472726,18472918,194,819.1,557.1,2978,NA
29,1,continuous,21,66,fixationCross,18473452.0,18476519.0,3067.0,21,R,18472932,18473130,200,791.1,583.0,3013,NA
29,1,continuous,21,66,trial,18473452.0,18476519.0,3067.0,21,R,18473160,18473614,456,964.1,550.2,3067,NA
29,1,continuous,21,66,trial,18473452.0,18476519.0,3067.0,21,R,18473660,18473944,286,538.1,619.7,2917,left
29,1,continuous,21,66,trial,18473452.0,18476519.0,3067.0,21,R,18473958,18474096,140,560.8,632.4,2672,left
29,1,continuous,21,66,trial,18473452.0,18476519.0,3067.0,21,R,18474138,18474312,176,631.1,426.8,2609,left
29,1,continuous,21,66,trial,18473452.0,18476519.0,3067.0,21,R,18474376,18474562,188,1421.8,482.4,2562,right
29,1,continuous,21,66,trial,18473452.0,18476519.0,3067.0,21,R,18474588,18474756,170,1540.6,502.5,2559,right
29,1,continuous,21,66,trial,18473452.0,18476519.0,3067.0,21,R,18474788,18475182,396,1352.2,601.7,2627,right
29,1,continuous,21,66,trial,18473452.0,18476519.0,3067.0,21,R,18475214,18475616,404,1521.7,507.5,2654,right
29,1,continuous,21,66,trial,18473452.0,18476519.0,3067.0,21,R,18475676,18475848,174,1148.0,943.7,2650,likertHorizontal
29,1,continuous,21,66,trial,18473452.0,18476519.0,3067.0,21,R,18475868,18476294,428,1078.1,959.3,2676,likertHorizontal
29,1,continuous,21,66,postResponse,18473452.0,18476519.0,3067.0,21,R,18476316,18476854,540,1127.6,993.9,2850,likertHorizontal
29,1,continuous,22,47,fixationCross,18478886.0,18484252.0,5366.0,22,R,18476930,18477106,178,1080.2,966.0,2823,likertHorizontal
29,1,continuous,22,47,fixationCross,18478886.0,18484252.0,5366.0,22,R,18477122,18477496,376,1118.1,1000.0,2971,likertHorizontal
29,1,continuous,22,47,fixationCross,18478886.0,18484252.0,5366.0,22,R,18477508,18478550,1044,1105.7,1009.8,3023,likertHorizontal
29,1,continuous,22,47,fixationCross,18478886.0,18484252.0,5366.0,22,R,18478604,18478730,128,967.6,588.5,2990,NA
29,1,continuous,22,47,trial,18478886.0,18484252.0,5366.0,22,R,18478744,18479260,518,960.0,567.9,2968,NA
29,1,continuous,22,47,trial,18478886.0,18484252.0,5366.0,22,R,18479310,18479434,126,910.3,1002.5,2683,likertHorizontal
29,1,continuous,22,47,trial,18478886.0,18484252.0,5366.0,22,R,18479454,18480436,984,969.8,989.4,2867,likertHorizontal
29,1,continuous,22,47,trial,18478886.0,18484252.0,5366.0,22,R,18480492,18480676,186,699.9,654.7,3010,left
29,1,continuous,22,47,trial,18478886.0,18484252.0,5366.0,22,R,18480704,18480922,220,633.5,528.8,3016,left
29,1,continuous,22,47,trial,18478886.0,18484252.0,5366.0,22,R,18480952,18481260,310,474.7,531.2,2986,left
29,1,continuous,22,47,trial,18478886.0,18484252.0,5366.0,22,R,18481282,18481362,82,544.5,533.7,2929,left
29,1,continuous,22,47,trial,18478886.0,18484252.0,5366.0,22,R,18481392,18481458,68,716.6,553.0,2884,left
29,1,continuous,22,47,trial,18478886.0,18484252.0,5366.0,22,R,18481522,18481748,228,1415.5,521.7,2886,right
29,1,continuous,22,47,trial,18478886.0,18484252.0,5366.0,22,R,18481770,18481930,162,1477.1,494.4,2884,right
29,1,continuous,22,47,trial,18478886.0,18484252.0,5366.0,22,R,18481950,18482046,98,1509.3,454.6,2905,right
29,1,continuous,22,47,trial,18478886.0,18484252.0,5366.0,22,R,18482108,18482270,164,749.8,482.9,2874,NA
29,1,continuous,22,47,trial,18478886.0,18484252.0,5366.0,22,R,18482292,18482456,166,680.6,513.0,2833,left
29,1,continuous,22,47,trial,18478886.0,18484252.0,5366.0,22,R,18482472,18482720,250,646.0,533.2,2866,left
29,1,continuous,22,47,trial,18478886.0,18484252.0,5366.0,22,R,18482752,18483046,296,408.2,479.5,2872,left
29,1,continuous,22,47,trial,18478886.0,18484252.0,5366.0,22,R,18483102,18483232,132,851.3,923.5,2759,likertHorizontal
29,1,continuous,22,47,trial,18478886.0,18484252.0,5366.0,22,R,18483260,18483376,118,963.9,943.4,2704,likertHorizontal
29,1,continuous,22,47,trial,18478886.0,18484252.0,5366.0,22,R,18483398,18483712,316,894.8,956.5,2756,likertHorizontal
29,1,continuous,22,47,trial,18478886.0,18484252.0,5366.0,22,R,18483722,18484178,458,929.8,972.4,2803,likertHorizontal
29,1,continuous,22,47,trial,18478886.0,18484252.0,5366.0,22,R,18484332,18484514,184,1046.8,494.0,2855,NA
29,1,continuous,23,11,fixationCross,18485302.0,18488519.0,3217.0,23,R,18484800,18484980,182,827.3,585.6,2932,NA
29,1,continuous,23,11,fixationCross,18485302.0,18488519.0,3217.0,23,R,18485000,18485046,48,871.1,583.8,2974,NA
29,1,continuous,23,11,fixationCross,18485302.0,18488519.0,3217.0,23,R,18485074,18485200,128,979.7,553.1,3011,NA
29,1,continuous,23,11,trial,18485302.0,18488519.0,3217.0,23,R,18485212,18485464,254,959.4,555.9,2910,NA
29,1,continuous,23,11,trial,18485302.0,18488519.0,3217.0,23,R,18485508,18485678,172,519.5,510.0,2825,left
29,1,continuous,23,11,trial,18485302.0,18488519.0,3217.0,23,R,18485700,18486254,556,434.0,487.2,2619,left
29,1,continuous,23,11,trial,18485302.0,18488519.0,3217.0,23,R,18486280,18486362,84,547.6,473.1,2576,left
29,1,continuous,23,11,trial,18485302.0,18488519.0,3217.0,23,R,18486436,18486648,214,1450.9,498.4,2598,right
29,1,continuous,23,11,trial,18485302.0,18488519.0,3217.0,23,R,18486674,18486852,180,1566.1,508.6,2631,right
29,1,continuous,23,11,trial,18485302.0,18488519.0,3217.0,23,R,18486868,18487236,370,1605.5,498.5,2739,right
29,1,continuous,23,11,trial,18485302.0,18488519.0,3217.0,23,R,18487268,18487392,126,1330.0,538.7,2785,right
29,1,continuous,23,11,trial,18485302.0,18488519.0,3217.0,23,R,18487462,18487678,218,546.9,486.1,2760,left
29,1,continuous,23,11,trial,18485302.0,18488519.0,3217.0,23,R,18487728,18487924,198,671.7,886.1,2725,NA
29,1,continuous,23,11,trial,18485302.0,18488519.0,3217.0,23,R,18487950,18488158,210,629.9,966.6,2747,NA
29,1,continuous,23,11,trial,18485302.0,18488519.0,3217.0,23,R,18488176,18488516,342,572.3,976.2,2801,NA
29,1,continuous,23,11,trial,18485302.0,18488519.0,3217.0,23,R,18488574,18488782,210,515.4,562.9,2800,left
29,1,continuous,23,11,postResponse,18485302.0,18488519.0,3217.0,23,R,18488820,18488854,36,735.9,610.0,2744,left
29,1,continuous,24,36,fixationCross,18489603.0,18494753.0,5150.0,24,R,18488928,18489042,116,763.0,612.6,2726,NA
29,1,continuous,24,36,fixationCross,18489603.0,18494753.0,5150.0,24,R,18489062,18489310,250,828.8,612.5,2796,NA
29,1,continuous,24,36,trial,18489603.0,18494753.0,5150.0,24,R,18489342,18489756,416,956.9,550.1,2891,NA
29,1,continuous,24,36,trial,18489603.0,18494753.0,5150.0,24,R,18489802,18489980,180,509.2,549.4,2891,left
29,1,continuous,24,36,trial,18489603.0,18494753.0,5150.0,24,R,18490004,18490230,228,460.7,478.2,2755,left
29,1,continuous,24,36,trial,18489603.0,18494753.0,5150.0,24,R,18490246,18490468,224,499.8,460.1,2665,left
29,1,continuous,24,36,trial,18489603.0,18494753.0,5150.0,24,R,18490486,18490704,220,474.0,425.1,2619,left
29,1,continuous,24,36,trial,18489603.0,18494753.0,5150.0,24,R,18490764,18490912,150,1258.9,457.3,2641,right
29,1,continuous,24,36,trial,18489603.0,18494753.0,5150.0,24,R,18490936,18491082,148,1349.0,491.7,2675,right
29,1,continuous,24,36,trial,18489603.0,18494753.0,5150.0,24,R,18491114,18491380,268,1515.3,624.9,2764,right
29,1,continuous,24,36,trial,18489603.0,18494753.0,5150.0,24,R,18491428,18491902,476,1309.8,406.7,2866,right
29,1,continuous,24,36,trial,18489603.0,18494753.0,5150.0,24,R,18491960,18492106,148,873.5,502.0,2872,NA
29,1,continuous,24,36,trial,18489603.0,18494753.0,5150.0,24,R,18492148,18492304,158,644.0,491.7,2888,left
29,1,continuous,24,36,trial,18489603.0,18494753.0,5150.0,24,R,18492330,18492530,202,532.3,499.9,2865,left
29,1,continuous,24,36,trial,18489603.0,18494753.0,5150.0,24,R,18492552,18492720,170,481.9,443.8,2835,left
29,1,continuous,24,36,trial,18489603.0,18494753.0,5150.0,24,R,18492786,18492992,208,1257.9,587.7,2780,right
29,1,continuous,24,36,trial,18489603.0,18494753.0,5150.0,24,R,18493048,18493214,168,1058.7,922.4,2675,likertHorizontal
29,1,continuous,24,36,trial,18489603.0,18494753.0,5150.0,24,R,18493224,18493370,148,1042.8,958.7,2745,likertHorizontal
29,1,continuous,24,36,trial,18489603.0,18494753.0,5150.0,24,R,18493438,18493672,236,516.9,488.1,2911,left
29,1,continuous,24,36,trial,18489603.0,18494753.0,5150.0,24,R,18493728,18493888,162,891.7,910.8,2760,likertHorizontal
29,1,continuous,24,36,trial,18489603.0,18494753.0,5150.0,24,R,18493914,18494228,316,971.0,980.4,2716,likertHorizontal
29,1,continuous,24,36,trial,18489603.0,18494753.0,5150.0,24,R,18494252,18494624,374,839.6,949.9,2803,likertHorizontal
29,1,continuous,24,36,trial,18489603.0,18494753.0,5150.0,24,R,18494678,18495060,384,643.8,727.5,2891,left
29,1,continuous,25,98,fixationCross,18495836.0,18500219.0,4383.0,25,R,18495162,18495316,156,681.9,665.9,2795,left
29,1,continuous,25,98,fixationCross,18495836.0,18500219.0,4383.0,25,R,18495340,18495522,184,764.1,632.2,2789,NA
29,1,continuous,25,98,fixationCross,18495836.0,18500219.0,4383.0,25,R,18495556,18495698,144,960.2,528.6,2875,NA
29,1,continuous,25,98,trial,18495836.0,18500219.0,4383.0,25,R,18495706,18495982,278,953.6,547.7,2925,NA
29,1,continuous,25,98,trial,18495836.0,18500219.0,4383.0,25,R,18496026,18496154,130,504.6,531.2,2940,left
29,1,continuous,25,98,trial,18495836.0,18500219.0,4383.0,25,R,18496180,18496392,214,430.5,576.7,2832,left
29,1,continuous,25,98,trial,18495836.0,18500219.0,4383.0,25,R,18496406,18496554,150,436.6,548.9,2738,left
29,1,continuous,25,98,trial,18495836.0,18500219.0,4383.0,25,R,18496566,18496780,216,461.2,539.2,2665,left
29,1,continuous,25,98,trial,18495836.0,18500219.0,4383.0,25,R,18496850,18497690,842,1357.2,441.1,2616,right
29,1,continuous,25,98,trial,18495836.0,18500219.0,4383.0,25,R,18497756,18497886,132,544.3,487.0,2716,left
29,1,continuous,25,98,trial,18495836.0,18500219.0,4383.0,25,R,18497912,18498094,184,454.4,549.7,2733,left
29,1,continuous,25,98,trial,18495836.0,18500219.0,4383.0,25,R,18498166,18498350,186,1355.9,476.1,2713,right
29,1,continuous,25,98,trial,18495836.0,18500219.0,4383.0,25,R,18498406,18498556,152,1298.2,961.8,2711,NA
29,1,continuous,25,98,trial,18495836.0,18500219.0,4383.0,25,R,18498570,18498758,190,1265.2,989.4,2763,NA
29,1,continuous,25,98,trial,18495836.0,18500219.0,4383.0,25,R,18498832,18499000,170,471.9,576.3,2834,left
29,1,continuous,25,98,trial,18495836.0,18500219.0,4383.0,25,R,18499074,18499188,116,1281.8,908.7,2817,NA
29,1,continuous,25,98,trial,18495836.0,18500219.0,4383.0,25,R,18499214,18499608,396,1334.8,977.3,2777,NA
29,1,continuous,25,98,trial,18495836.0,18500219.0,4383.0,25,R,18499672,18499860,190,1343.4,457.6,2797,right
29,1,continuous,25,98,trial,18495836.0,18500219.0,4383.0,25,R,18499870,18500162,294,1364.5,456.1,2805,right
29,1,continuous,25,98,trial,18495836.0,18500219.0,4383.0,25,R,18500220,18500466,248,1434.3,961.9,2855,NA
29,1,continuous,25,98,trial,18495836.0,18500219.0,4383.0,25,R,18500494,18500522,30,1305.7,861.1,2812,NA
29,1,continuous,26,18,fixationCross,18530169.0,18532653.0,2484.0,26,R,18529511,18529665,156,160.9,70.2,2559,NA
29,1,continuous,26,18,fixationCross,18530169.0,18532653.0,2484.0,26,R,18529747,18529905,160,1058.9,609.7,2635,NA
29,1,continuous,26,18,fixationCross,18530169.0,18532653.0,2484.0,26,R,18529939,18530089,152,949.2,518.0,2680,NA
29,1,continuous,26,18,trial,18530169.0,18532653.0,2484.0,26,R,18530103,18530239,138,976.2,538.9,2770,NA
29,1,continuous,26,18,trial,18530169.0,18532653.0,2484.0,26,R,18530251,18530417,168,959.5,535.7,2872,NA
29,1,continuous,26,18,trial,18530169.0,18532653.0,2484.0,26,R,18530463,18530559,98,1386.2,481.4,2880,right
29,1,continuous,26,18,trial,18530169.0,18532653.0,2484.0,26,R,18530589,18530905,318,1537.3,473.3,2693,right
29,1,continuous,26,18,trial,18530169.0,18532653.0,2484.0,26,R,18530983,18531203,222,509.7,595.2,2681,left
29,1,continuous,26,18,trial,18530169.0,18532653.0,2484.0,26,R,18531229,18531439,212,596.8,636.1,2644,left
29,1,continuous,26,18,trial,18530169.0,18532653.0,2484.0,26,R,18531449,18531555,108,570.8,647.1,2621,left
29,1,continuous,26,18,trial,18530169.0,18532653.0,2484.0,26,R,18531583,18531937,356,448.0,538.5,2615,left
29,1,continuous,26,18,trial,18530169.0,18532653.0,2484.0,26,R,18531989,18532141,154,587.0,966.3,2605,NA
29,1,continuous,26,18,trial,18530169.0,18532653.0,2484.0,26,R,18532167,18532339,174,713.7,995.4,2608,NA
29,1,continuous,26,18,trial,18530169.0,18532653.0,2484.0,26,R,18532361,18532433,74,652.4,936.3,2646,NA
29,1,continuous,26,18,trial,18530169.0,18532653.0,2484.0,26,R,18532481,18532891,412,559.4,641.4,2704,left
29,1,continuous,26,18,trial,18530169.0,18532653.0,2484.0,26,R,18532915,18532947,34,695.6,613.3,2643,left
29,1,continuous,27,100,fixationCross,18533819.0,18535469.0,1650.0,27,R,18533087,18533167,82,755.2,676.4,2628,NA
29,1,continuous,27,100,trial,18533819.0,18535469.0,1650.0,27,R,18533547,18533987,442,968.7,547.8,2811,NA
29,1,continuous,27,100,trial,18533819.0,18535469.0,1650.0,27,R,18534031,18534247,218,559.0,609.4,2740,left
29,1,continuous,27,100,trial,18533819.0,18535469.0,1650.0,27,R,18534265,18534345,82,569.7,571.2,2606,left
29,1,continuous,27,100,trial,18533819.0,18535469.0,1650.0,27,R,18534411,18534597,188,1385.0,505.4,2536,right
29,1,continuous,27,100,trial,18533819.0,18535469.0,1650.0,27,R,18534619,18534909,292,1475.3,511.8,2517,right
29,1,continuous,27,100,trial,18533819.0,18535469.0,1650.0,27,R,18534921,18535199,280,1497.7,508.9,2617,right
29,1,continuous,27,100,trial,18533819.0,18535469.0,1650.0,27,R,18535257,18535447,192,1461.0,959.8,2687,NA
29,1,continuous,27,100,postResponse,18533819.0,18535469.0,1650.0,27,R,18535529,18535803,276,557.2,461.7,2685,left
29,1,continuous,28,20,fixationCross,18536636.0,18540470.0,3834.0,28,R,18535903,18536163,262,779.1,540.3,2664,NA
29,1,continuous,28,20,fixationCross,18536636.0,18540470.0,3834.0,28,R,18536187,18536339,154,751.8,520.1,2710,NA
29,1,continuous,28,20,fixationCross,18536636.0,18540470.0,3834.0,28,R,18536369,18536495,128,941.7,548.3,2759,NA
29,1,continuous,28,20,trial,18536636.0,18540470.0,3834.0,28,R,18536507,18536865,360,962.2,544.8,2756,NA
29,1,continuous,28,20,trial,18536636.0,18540470.0,3834.0,28,R,18536913,18537073,162,517.5,547.2,2691,left
29,1,continuous,28,20,trial,18536636.0,18540470.0,3834.0,28,R,18537099,18537439,342,403.1,583.7,2534,left
29,1,continuous,28,20,trial,18536636.0,18540470.0,3834.0,28,R,18537519,18537737,220,1439.7,522.9,2471,right
29,1,continuous,28,20,trial,18536636.0,18540470.0,3834.0,28,R,18537763,18537933,172,1536.8,523.7,2479,right
29,1,continuous,28,20,trial,18536636.0,18540470.0,3834.0,28,R,18537965,18538133,170,1504.2,673.4,2549,right
29,1,continuous,28,20,trial,18536636.0,18540470.0,3834.0,28,R,18538155,18538733,580,1390.7,697.2,2592,right
29,1,continuous,28,20,trial,18536636.0,18540470.0,3834.0,28,R,18538799,18539079,282,540.1,518.4,2641,left
29,1,continuous,28,20,trial,18536636.0,18540470.0,3834.0,28,R,18539107,18539395,290,402.3,575.4,2609,left
29,1,continuous,28,20,trial,18536636.0,18540470.0,3834.0,28,R,18539431,18539735,306,586.6,450.8,2589,left
29,1,continuous,28,20,trial,18536636.0,18540470.0,3834.0,28,R,18539791,18540067,278,690.3,930.3,2565,NA
29,1,continuous,28,20,trial,18536636.0,18540470.0,3834.0,28,R,18540079,18540239,162,670.5,964.0,2605,NA
29,1,continuous,28,20,trial,18536636.0,18540470.0,3834.0,28,R,18540297,18540481,186,563.1,480.9,2707,left
29,1,continuous,28,20,trial,18536636.0,18540470.0,3834.0,28,R,18540541,18540651,112,684.5,1026.9,2734,NA
29,1,continuous,28,20,postResponse,18536636.0,18540470.0,3834.0,28,R,18540663,18540805,144,676.3,1002.1,2705,NA
29,1,continuous,29,16,fixationCross,18541553.0,18546036.0,4483.0,29,R,18540883,18541035,154,719.9,882.5,2681,NA
29,1,continuous,29,16,fixationCross,18541553.0,18546036.0,4483.0,29,R,18541089,18541253,166,822.2,600.8,2744,NA
29,1,continuous,29,16,trial,18541553.0,18546036.0,4483.0,29,R,18541285,18541719,436,963.8,541.9,2828,NA
29,1,continuous,29,16,trial,18541553.0,18546036.0,4483.0,29,R,18541765,18541915,152,542.1,539.5,2799,left
29,1,continuous,29,16,trial,18541553.0,18546036.0,4483.0,29,R,18541935,18542123,190,484.4,520.9,2690,left
29,1,continuous,29,16,trial,18541553.0,18546036.0,4483.0,29,R,18542151,18542253,104,342.4,549.3,2619,left
29,1,continuous,29,16,trial,18541553.0,18546036.0,4483.0,29,R,18542329,18542487,160,1386.3,494.2,2569,right
29,1,continuous,29,16,trial,18541553.0,18546036.0,4483.0,29,R,18542511,18542709,200,1461.2,448.4,2539,right
29,1,continuous,29,16,trial,18541553.0,18546036.0,4483.0,29,R,18542723,18543267,546,1437.9,427.7,2614,right
29,1,continuous,29,16,trial,18541553.0,18546036.0,4483.0,29,R,18543283,18543525,244,1394.6,430.3,2661,right
29,1,continuous,29,16,trial,18541553.0,18546036.0,4483.0,29,R,18543557,18543743,188,1454.3,581.9,2655,right
29,1,continuous,29,16,trial,18541553.0,18546036.0,4483.0,29,R,18543815,18543991,178,531.6,505.1,2669,left
29,1,continuous,29,16,trial,18541553.0,18546036.0,4483.0,29,R,18544007,18544205,200,474.1,512.9,2655,left
29,1,continuous,29,16,trial,18541553.0,18546036.0,4483.0,29,R,18544227,18544357,132,473.0,553.3,2639,left
29,1,continuous,29,16,trial,18541553.0,18546036.0,4483.0,29,R,18544389,18544565,178,646.7,620.3,2595,left
29,1,continuous,29,16,trial,18541553.0,18546036.0,4483.0,29,R,18544581,18544785,206,632.0,658.3,2597,left
29,1,continuous,29,16,trial,18541553.0,18546036.0,4483.0,29,R,18544825,18544997,174,335.9,582.8,2632,left
29,1,continuous,29,16,trial,18541553.0,18546036.0,4483.0,29,R,18545051,18545387,338,782.7,962.2,2563,likertHorizontal
29,1,continuous,29,16,trial,18541553.0,18546036.0,4483.0,29,R,18545405,18545547,144,730.8,965.6,2602,NA
29,1,continuous,29,16,trial,18541553.0,18546036.0,4483.0,29,R,18545567,18545861,296,645.8,984.2,2688,NA
29,1,continuous,29,16,trial,18541553.0,18546036.0,4483.0,29,R,18545907,18546311,406,625.1,640.9,2638,left
29,1,continuous,29,16,postResponse,18541553.0,18546036.0,4483.0,29,R,18546327,18546369,44,678.9,617.4,2619,left
29,1,continuous,30,25,fixationCross,18547170.0,18551203.0,4033.0,30,R,18546445,18546497,54,685.0,612.6,2614,left
29,1,continuous,30,25,fixationCross,18547170.0,18551203.0,4033.0,30,R,18546519,18546721,204,767.3,590.5,2616,NA
29,1,continuous,30,25,fixationCross,18547170.0,18551203.0,4033.0,30,R,18546743,18546851,110,816.2,558.0,2640,NA
29,1,continuous,30,25,trial,18547170.0,18551203.0,4033.0,30,R,18546879,18547349,472,962.6,551.0,2706,NA
29,1,continuous,30,25,trial,18547170.0,18551203.0,4033.0,30,R,18547395,18547649,256,552.4,577.5,2680,left
29,1,continuous,30,25,trial,18547170.0,18551203.0,4033.0,30,R,18547665,18547861,198,535.7,549.7,2557,left
29,1,continuous,30,25,trial,18547170.0,18551203.0,4033.0,30,R,18547925,18548169,246,1367.3,558.2,2497,right
29,1,continuous,30,25,trial,18547170.0,18551203.0,4033.0,30,R,18548187,18548455,270,1440.9,558.6,2477,right
29,1,continuous,30,25,trial,18547170.0,18551203.0,4033.0,30,R,18548477,18548697,222,1519.4,571.4,2505,right
29,1,continuous,30,25,trial,18547170.0,18551203.0,4033.0,30,R,18548721,18549013,294,1540.7,497.0,2530,right
29,1,continuous,30,25,trial,18547170.0,18551203.0,4033.0,30,R,18549045,18549201,158,1498.5,638.8,2562,right
29,1,continuous,30,25,trial,18547170.0,18551203.0,4033.0,30,R,18549275,18549577,304,531.7,548.4,2612,left
29,1,continuous,30,25,trial,18547170.0,18551203.0,4033.0,30,R,18549629,18549799,172,868.3,879.8,2545,likertHorizontal
29,1,continuous,30,25,trial,18547170.0,18551203.0,4033.0,30,R,18549823,18550017,196,919.1,946.5,2528,likertHorizontal
29,1,continuous,30,25,trial,18547170.0,18551203.0,4033.0,30,R,18550079,18550449,372,534.3,552.5,2661,left
29,1,continuous,30,25,trial,18547170.0,18551203.0,4033.0,30,R,18550471,18550639,170,536.6,484.0,2658,left
29,1,continuous,30,25,trial,18547170.0,18551203.0,4033.0,30,R,18550701,18550807,108,725.9,1014.3,2592,NA
29,1,continuous,30,25,trial,18547170.0,18551203.0,4033.0,30,R,18550827,18551093,268,683.2,960.6,2586,NA
29,1,continuous,30,25,trial,18547170.0,18551203.0,4033.0,30,R,18551149,18551453,306,545.9,560.0,2614,left
29,1,continuous,31,72,fixationCross,18552353.0,18558236.0,5883.0,31,R,18551611,18551697,88,870.7,985.3,2558,likertHorizontal
29,1,continuous,31,72,fixationCross,18552353.0,18558236.0,5883.0,31,R,18551717,18551875,160,838.6,943.9,2612,likertHorizontal
29,1,continuous,31,72,fixationCross,18552353.0,18558236.0,5883.0,31,R,18551927,18552057,132,847.1,654.5,2712,NA
29,1,continuous,31,72,fixationCross,18552353.0,18558236.0,5883.0,31,R,18552085,18552255,172,963.5,568.3,2798,NA
29,1,continuous,31,72,trial,18552353.0,18558236.0,5883.0,31,R,18552265,18552529,266,964.3,551.0,2803,NA
29,1,continuous,31,72,trial,18552353.0,18558236.0,5883.0,31,R,18552573,18552829,258,581.9,562.7,2752,left
29,1,continuous,31,72,trial,18552353.0,18558236.0,5883.0,31,R,18552851,18553091,242,527.8,493.2,2597,left
29,1,continuous,31,72,trial,18552353.0,18558236.0,5883.0,31,R,18553117,18553401,286,400.2,433.8,2546,left
29,1,continuous,31,72,trial,18552353.0,18558236.0,5883.0,31,R,18553431,18553665,236,623.7,520.8,2510,left
29,1,continuous,31,72,trial,18552353.0,18558236.0,5883.0,31,R,18553699,18553973,276,567.2,401.1,2552,left
29,1,continuous,31,72,trial,18552353.0,18558236.0,5883.0,31,R,18554039,18554237,200,1363.0,524.9,2583,right
29,1,continuous,31,72,trial,18552353.0,18558236.0,5883.0,31,R,18554267,18554405,140,1493.5,531.2,2577,right
29,1,continuous,31,72,trial,18552353.0,18558236.0,5883.0,31,R,18554431,18554659,230,1570.5,429.8,2577,right
29,1,continuous,31,72,trial,18552353.0,18558236.0,5883.0,31,R,18554691,18554957,268,1382.4,651.7,2620,right
29,1,continuous,31,72,trial,18552353.0,18558236.0,5883.0,31,R,18554985,18555317,334,1483.3,568.7,2623,right
29,1,continuous,31,72,trial,18552353.0,18558236.0,5883.0,31,R,18555337,18555571,236,1542.7,564.9,2590,right
29,1,continuous,31,72,trial,18552353.0,18558236.0,5883.0,31,R,18555647,18555945,300,584.1,462.1,2612,left
29,1,continuous,31,72,trial,18552353.0,18558236.0,5883.0,31,R,18555977,18556429,454,361.9,439.3,2595,left
29,1,continuous,31,72,trial,18552353.0,18558236.0,5883.0,31,R,18556513,18556671,160,1345.6,984.8,2587,NA
29,1,continuous,31,72,trial,18552353.0,18558236.0,5883.0,31,R,18556683,18556945,264,1302.7,980.9,2598,NA
29,1,continuous,31,72,trial,18552353.0,18558236.0,5883.0,31,R,18556961,18557163,204,1226.0,981.7,2677,NA
29,1,continuous,31,72,trial,18552353.0,18558236.0,5883.0,31,R,18557179,18557385,208,1150.8,964.7,2607,likertHorizontal
29,1,continuous,31,72,trial,18552353.0,18558236.0,5883.0,31,R,18557397,18557663,268,1114.8,954.8,2591,likertHorizontal
29,1,continuous,31,72,trial,18552353.0,18558236.0,5883.0,31,R,18557709,18557953,246,1443.5,1046.0,2770,NA
29,1,continuous,31,72,trial,18552353.0,18558236.0,5883.0,31,R,18557987,18558181,196,1206.8,969.0,2736,NA
29,1,continuous,31,72,trial,18552353.0,18558236.0,5883.0,31,R,18558189,18558479,292,1178.8,968.4,2649,likertHorizontal
29,1,continuous,31,72,trial,18552353.0,18558236.0,5883.0,31,R,18558505,18558525,22,1102.2,828.9,2459,likertHorizontal
29,1,continuous,32,31,fixationCross,18559137.0,18564536.0,5399.0,32,R,18558705,18559009,306,883.6,585.6,2711,NA
29,1,continuous,32,31,trial,18559137.0,18564536.0,5399.0,32,R,18559035,18559169,136,969.9,563.3,2826,NA
29,1,continuous,32,31,trial,18559137.0,18564536.0,5399.0,32,R,18559179,18559337,160,957.7,559.9,2817,NA
29,1,continuous,32,31,trial,18559137.0,18564536.0,5399.0,32,R,18559387,18559591,206,1460.6,544.6,2685,right
29,1,continuous,32,31,trial,18559137.0,18564536.0,5399.0,32,R,18559607,18559831,226,1451.9,567.9,2531,right
29,1,continuous,32,31,trial,18559137.0,18564536.0,5399.0,32,R,18559851,18559999,150,1449.0,527.7,2562,right
29,1,continuous,32,31,trial,18559137.0,18564536.0,5399.0,32,R,18560077,18560251,176,436.5,449.4,2590,left
29,1,continuous,32,31,trial,18559137.0,18564536.0,5399.0,32,R,18560267,18560719,454,401.2,476.0,2554,left
29,1,continuous,32,31,trial,18559137.0,18564536.0,5399.0,32,R,18560797,18560929,134,1439.1,502.1,2486,right
29,1,continuous,32,31,trial,18559137.0,18564536.0,5399.0,32,R,18561007,18561227,222,508.0,614.7,2498,left
29,1,continuous,32,31,trial,18559137.0,18564536.0,5399.0,32,R,18561249,18561399,152,590.8,678.7,2567,left
29,1,continuous,32,31,trial,18559137.0,18564536.0,5399.0,32,R,18561443,18561597,156,482.7,434.9,2632,left
29,1,continuous,32,31,trial,18559137.0,18564536.0,5399.0,32,R,18561615,18561805,192,427.7,443.7,2620,left
29,1,continuous,32,31,trial,18559137.0,18564536.0,5399.0,32,R,18561829,18562085,258,392.4,468.6,2598,left
29,1,continuous,32,31,trial,18559137.0,18564536.0,5399.0,32,R,18562173,18562299,128,1562.9,539.6,2623,right
29,1,continuous,32,31,trial,18559137.0,18564536.0,5399.0,32,R,18562321,18562569,250,1462.0,536.4,2633,right
29,1,continuous,32,31,trial,18559137.0,18564536.0,5399.0,32,R,18562581,18562763,184,1431.3,555.2,2685,right
29,1,continuous,32,31,trial,18559137.0,18564536.0,5399.0,32,R,18562781,18563083,304,1407.6,523.5,2745,right
29,1,continuous,32,31,trial,18559137.0,18564536.0,5399.0,32,R,18563161,18563405,246,516.4,548.1,2766,left
29,1,continuous,32,31,trial,18559137.0,18564536.0,5399.0,32,R,18563433,18563947,516,394.6,478.2,2616,left
29,1,continuous,32,31,trial,18559137.0,18564536.0,5399.0,32,R,18563969,18564115,148,459.1,449.6,2562,left
29,1,continuous,32,31,trial,18559137.0,18564536.0,5399.0,32,R,18564169,18564773,606,770.5,968.6,2589,likertHorizontal
29,1,continuous,32,31,postResponse,18559137.0,18564536.0,5399.0,32,R,18564797,18564869,74,824.6,840.1,2661,likertHorizontal
29,1,continuous,33,51,fixationCross,18565653.0,18576554.0,10901.0,33,R,18564943,18565113,172,825.7,714.7,2695,NA
29,1,continuous,33,51,fixationCross,18565653.0,18576554.0,10901.0,33,R,18565149,18565327,180,822.9,573.8,2745,NA
29,1,continuous,33,51,trial,18565653.0,18576554.0,10901.0,33,R,18565359,18565819,462,967.2,541.0,2778,NA
29,1,continuous,33,51,trial,18565653.0,18576554.0,10901.0,33,R,18565865,18566041,178,590.8,485.4,2734,left
29,1,continuous,33,51,trial,18565653.0,18576554.0,10901.0,33,R,18566069,18566249,182,469.0,536.5,2613,left
29,1,continuous,33,51,trial,18565653.0,18576554.0,10901.0,33,R,18566269,18566443,176,445.8,590.7,2580,left
29,1,continuous,33,51,trial,18565653.0,18576554.0,10901.0,33,R,18566519,18566715,198,1407.6,458.7,2544,right
29,1,continuous,33,51,trial,18565653.0,18576554.0,10901.0,33,R,18566737,18566917,182,1475.3,453.5,2512,right
29,1,continuous,33,51,trial,18565653.0,18576554.0,10901.0,33,R,18566939,18567581,644,1380.2,434.8,2578,right
29,1,continuous,33,51,trial,18565653.0,18576554.0,10901.0,33,R,18567595,18567961,368,1407.7,420.4,2625,right
29,1,continuous,33,51,trial,18565653.0,18576554.0,10901.0,33,R,18567991,18568243,254,1523.3,445.1,2668,right
29,1,continuous,33,51,trial,18565653.0,18576554.0,10901.0,33,R,18568259,18568469,212,1478.8,437.1,2757,right
29,1,continuous,33,51,trial,18565653.0,18576554.0,10901.0,33,R,18568495,18568899,406,1397.6,422.7,2812,right
29,1,continuous,33,51,trial,18565653.0,18576554.0,10901.0,33,R,18568913,18569709,798,1372.1,436.9,2881,right
29,1,continuous,33,51,trial,18565653.0,18576554.0,10901.0,33,R,18569731,18570061,332,1390.0,438.0,2926,right
29,1,continuous,33,51,trial,18565653.0,18576554.0,10901.0,33,R,18570211,18570557,348,1405.9,427.3,2921,right
29,1,continuous,33,51,trial,18565653.0,18576554.0,10901.0,33,R,18570587,18570817,232,1509.8,481.7,2912,right
29,1,continuous,33,51,trial,18565653.0,18576554.0,10901.0,33,R,18570833,18571067,236,1468.2,477.8,2844,right
29,1,continuous,33,51,trial,18565653.0,18576554.0,10901.0,33,R,18571085,18571267,184,1396.7,454.3,2812,right
29,1,continuous,33,51,trial,18565653.0,18576554.0,10901.0,33,R,18571285,18571417,134,1344.1,464.2,2817,right
29,1,continuous,33,51,trial,18565653.0,18576554.0,10901.0,33,R,18571447,18572129,684,1329.6,597.1,2864,right
29,1,continuous,33,51,trial,18565653.0,18576554.0,10901.0,33,R,18572153,18572391,240,1404.0,555.4,2843,right
29,1,continuous,33,51,trial,18565653.0,18576554.0,10901.0,33,R,18572421,18572713,294,1406.4,439.4,2810,right
29,1,continuous,33,51,trial,18565653.0,18576554.0,10901.0,33,R,18572725,18573155,432,1385.4,435.2,2798,right
29,1,continuous,33,51,trial,18565653.0,18576554.0,10901.0,33,R,18573167,18573401,236,1415.6,430.9,2836,right
29,1,continuous,33,51,trial,18565653.0,18576554.0,10901.0,33,R,18573421,18573783,364,1481.9,459.5,2856,right
29,1,continuous,33,51,trial,18565653.0,18576554.0,10901.0,33,R,18573857,18574073,218,553.9,443.5,2886,left
29,1,continuous,33,51,trial,18565653.0,18576554.0,10901.0,33,R,18574101,18574279,180,522.4,545.1,2819,left
29,1,continuous,33,51,trial,18565653.0,18576554.0,10901.0,33,R,18574303,18574617,316,442.3,599.0,2739,left
29,1,continuous,33,51,trial,18565653.0,18576554.0,10901.0,33,R,18574629,18574771,144,468.7,616.6,2701,left
29,1,continuous,33,51,trial,18565653.0,18576554.0,10901.0,33,R,18574809,18574933,126,539.6,464.3,2651,left
29,1,continuous,33,51,trial,18565653.0,18576554.0,10901.0,33,R,18574981,18575157,178,874.7,526.2,2597,NA
29,1,continuous,33,51,trial,18565653.0,18576554.0,10901.0,33,R,18575223,18575965,744,992.2,964.1,2587,likertHorizontal
29,1,continuous,33,51,trial,18565653.0,18576554.0,10901.0,33,R,18575979,18576501,524,955.4,963.8,2713,likertHorizontal
29,1,continuous,33,51,trial,18565653.0,18576554.0,10901.0,33,R,18576569,18576653,86,1401.0,505.9,2840,right
29,1,continuous,33,51,trial,18565653.0,18576554.0,10901.0,33,R,18576669,18576831,164,1430.6,473.1,2828,right
29,1,continuous,34,28,fixationCross,18577637.0,18580237.0,2600.0,34,R,18577005,18577189,186,1170.3,482.0,2818,NA
29,1,continuous,34,28,fixationCross,18577637.0,18580237.0,2600.0,34,R,18577215,18577377,164,1057.6,488.6,2936,NA
29,1,continuous,34,28,trial,18577637.0,18580237.0,2600.0,34,R,18577401,18577853,454,974.3,542.4,2932,NA
29,1,continuous,34,28,trial,18577637.0,18580237.0,2600.0,34,R,18577895,18578071,178,1325.8,451.4,2797,right
29,1,continuous,34,28,trial,18577637.0,18580237.0,2600.0,34,R,18578081,18578291,212,1362.2,448.1,2559,right
29,1,continuous,34,28,trial,18577637.0,18580237.0,2600.0,34,R,18578323,18578615,294,1518.1,575.4,2561,right
29,1,continuous,34,28,trial,18577637.0,18580237.0,2600.0,34,R,18578691,18578871,182,525.6,546.7,2650,left
29,1,continuous,34,28,trial,18577637.0,18580237.0,2600.0,34,R,18578889,18579197,310,460.1,547.0,2633,left
29,1,continuous,34,28,trial,18577637.0,18580237.0,2600.0,34,R,18579255,18579451,198,751.8,921.8,2547,likertHorizontal
29,1,continuous,34,28,trial,18577637.0,18580237.0,2600.0,34,R,18579471,18579745,276,684.4,959.3,2563,NA
29,1,continuous,34,28,trial,18577637.0,18580237.0,2600.0,34,R,18579797,18580029,234,671.4,600.0,2598,left
29,1,continuous,34,28,trial,18577637.0,18580237.0,2600.0,34,R,18580061,18580171,112,448.2,533.9,2634,left
29,1,continuous,34,28,trial,18577637.0,18580237.0,2600.0,34,R,18580219,18580517,300,739.7,974.6,2558,likertHorizontal
29,1,continuous,34,28,postResponse,18577637.0,18580237.0,2600.0,34,R,18580537,18580571,36,749.0,893.7,2560,likertHorizontal
29,1,continuous,35,88,fixationCross,18581136.0,18585403.0,4267.0,35,R,18580671,18580715,46,751.8,868.3,2579,likertHorizontal
29,1,continuous,35,88,fixationCross,18581136.0,18585403.0,4267.0,35,R,18580773,18581041,270,885.8,550.7,2675,NA
29,1,continuous,35,88,trial,18581136.0,18585403.0,4267.0,35,R,18581067,18581191,126,976.8,552.7,2739,NA
29,1,continuous,35,88,trial,18581136.0,18585403.0,4267.0,35,R,18581203,18581313,112,950.8,549.2,2776,NA
29,1,continuous,35,88,trial,18581136.0,18585403.0,4267.0,35,R,18581359,18581611,254,536.7,549.8,2728,left
29,1,continuous,35,88,trial,18581136.0,18585403.0,4267.0,35,R,18581677,18581941,266,1385.8,505.3,2564,right
29,1,continuous,35,88,trial,18581136.0,18585403.0,4267.0,35,R,18581959,18582151,194,1454.3,507.8,2564,right
29,1,continuous,35,88,trial,18581136.0,18585403.0,4267.0,35,R,18582173,18582297,126,1548.5,486.1,2589,right
29,1,continuous,35,88,trial,18581136.0,18585403.0,4267.0,35,R,18582327,18582537,212,1388.4,604.8,2642,right
29,1,continuous,35,88,trial,18581136.0,18585403.0,4267.0,35,R,18582579,18582805,228,1409.3,967.1,2698,NA
29,1,continuous,35,88,trial,18581136.0,18585403.0,4267.0,35,R,18582859,18582979,122,1299.8,510.2,2736,right
29,1,continuous,35,88,trial,18581136.0,18585403.0,4267.0,35,R,18583045,18583471,428,539.8,547.5,2754,left
29,1,continuous,35,88,trial,18581136.0,18585403.0,4267.0,35,R,18583543,18583817,276,1351.9,457.7,2667,right
29,1,continuous,35,88,trial,18581136.0,18585403.0,4267.0,35,R,18583847,18583985,140,1514.2,456.9,2617,right
29,1,continuous,35,88,trial,18581136.0,18585403.0,4267.0,35,R,18584009,18584153,146,1395.9,478.9,2653,right
29,1,continuous,35,88,trial,18581136.0,18585403.0,4267.0,35,R,18584211,18584631,422,1341.0,949.9,2755,NA
29,1,continuous,35,88,trial,18581136.0,18585403.0,4267.0,35,R,18584641,18585015,376,1311.5,978.9,2903,NA
29,1,continuous,35,88,trial,18581136.0,18585403.0,4267.0,35,R,18585079,18585251,174,1332.1,567.9,2988,right
29,1,continuous,35,88,trial,18581136.0,18585403.0,4267.0,35,R,18585271,18585687,418,1369.9,532.5,3049,right
29,1,continuous,35,88,postResponse,18581136.0,18585403.0,4267.0,35,R,18585697,18585737,42,1357.1,513.3,3055,right
29,1,continuous,36,82,fixationCross,18586537.0,18590703.0,4166.0,36,R,18585837,18586233,398,1342.8,509.6,3095,right
29,1,continuous,36,82,fixationCross,18586537.0,18590703.0,4166.0,36,R,18586273,18586415,144,952.2,563.6,3172,NA
29,1,continuous,36,82,trial,18586537.0,18590703.0,4166.0,36,R,18586429,18586793,366,971.5,559.2,3143,NA
29,1,continuous,36,82,trial,18586537.0,18590703.0,4166.0,36,R,18586825,18586845,22,1161.8,545.3,3116,NA
29,1,continuous,36,82,trial,18586537.0,18590703.0,4166.0,36,R,18586895,18587037,144,688.4,577.8,2946,left
29,1,continuous,36,82,trial,18586537.0,18590703.0,4166.0,36,R,18587081,18587239,160,405.0,501.6,2811,left
29,1,continuous,36,82,trial,18586537.0,18590703.0,4166.0,36,R,18587253,18587355,104,369.3,483.6,2785,left
29,1,continuous,36,82,trial,18586537.0,18590703.0,4166.0,36,R,18587431,18587719,290,1411.4,493.4,2675,right
29,1,continuous,36,82,trial,18586537.0,18590703.0,4166.0,36,R,18587737,18588193,458,1464.0,507.4,2800,right
29,1,continuous,36,82,trial,18586537.0,18590703.0,4166.0,36,R,18588271,18588403,134,485.9,499.6,2848,left
29,1,continuous,36,82,trial,18586537.0,18590703.0,4166.0,36,R,18588427,18588565,140,369.0,489.8,2832,left
29,1,continuous,36,82,trial,18586537.0,18590703.0,4166.0,36,R,18588649,18588915,268,1467.3,468.7,2775,right
29,1,continuous,36,82,trial,18586537.0,18590703.0,4166.0,36,R,18588937,18589147,212,1526.8,465.3,2769,right
29,1,continuous,36,82,trial,18586537.0,18590703.0,4166.0,36,R,18589173,18589557,386,1454.7,516.2,2852,right
29,1,continuous,36,82,trial,18586537.0,18590703.0,4166.0,36,R,18589613,18589791,180,1317.0,991.8,2966,NA
29,1,continuous,36,82,trial,18586537.0,18590703.0,4166.0,36,R,18589813,18590211,400,1235.5,992.4,2941,NA
29,1,continuous,36,82,trial,18586537.0,18590703.0,4166.0,36,R,18590273,18590645,374,646.0,592.0,2889,left
29,1,continuous,36,82,trial,18586537.0,18590703.0,4166.0,36,R,18590709,18591003,296,1196.2,967.6,2762,NA
29,1,continuous,37,1,fixationCross,18591604.0,18593537.0,1933.0,37,R,18591111,18591207,98,1049.7,680.5,2699,NA
29,1,continuous,37,1,fixationCross,18591604.0,18593537.0,1933.0,37,R,18591233,18591453,222,998.2,587.4,2788,NA
29,1,continuous,37,1,trial,18591604.0,18593537.0,1933.0,37,R,18591473,18591629,158,950.9,562.0,2869,NA
29,1,continuous,37,1,trial,18591604.0,18593537.0,1933.0,37,R,18591641,18591781,142,964.7,546.1,2922,NA
29,1,continuous,37,1,trial,18591604.0,18593537.0,1933.0,37,R,18591827,18592067,242,517.3,541.6,2887,left
29,1,continuous,37,1,trial,18591604.0,18593537.0,1933.0,37,R,18592085,18592199,116,503.0,493.8,2741,left
29,1,continuous,37,1,trial,18591604.0,18593537.0,1933.0,37,R,18592271,18592631,362,1419.1,547.0,2668,right
29,1,continuous,37,1,trial,18591604.0,18593537.0,1933.0,37,R,18592651,18592849,200,1371.4,595.4,2716,right
29,1,continuous,37,1,trial,18591604.0,18593537.0,1933.0,37,R,18592921,18593065,146,505.8,552.2,2797,left
29,1,continuous,37,1,trial,18591604.0,18593537.0,1933.0,37,R,18593117,18593405,290,487.6,971.5,2795,NA
29,1,continuous,37,1,postResponse,18591604.0,18593537.0,1933.0,37,R,18593461,18593869,410,494.2,513.3,2790,left
29,1,continuous,38,54,fixationCross,18594437.0,18598737.0,4300.0,38,R,18593961,18594159,200,1044.1,573.9,2751,NA
29,1,continuous,38,54,trial,18594437.0,18598737.0,4300.0,38,R,18594179,18594611,434,964.7,555.5,2846,NA
29,1,continuous,38,54,trial,18594437.0,18598737.0,4300.0,38,R,18594657,18594993,338,574.2,534.0,2818,left
29,1,continuous,38,54,trial,18594437.0,18598737.0,4300.0,38,R,18595067,18595219,154,1500.6,495.7,2602,right
29,1,continuous,38,54,trial,18594437.0,18598737.0,4300.0,38,R,18595235,18595515,282,1452.9,483.9,2583,right
29,1,continuous,38,54,trial,18594437.0,18598737.0,4300.0,38,R,18595527,18595765,240,1447.0,458.2,2600,right
29,1,continuous,38,54,trial,18594437.0,18598737.0,4300.0,38,R,18595841,18596097,258,551.8,494.4,2652,left
29,1,continuous,38,54,trial,18594437.0,18598737.0,4300.0,38,R,18596119,18596377,260,596.4,459.2,2646,left
29,1,continuous,38,54,trial,18594437.0,18598737.0,4300.0,38,R,18596451,18596729,280,1473.4,508.2,2600,right
29,1,continuous,38,54,trial,18594437.0,18598737.0,4300.0,38,R,18596757,18596977,222,1357.9,558.7,2595,right
29,1,continuous,38,54,trial,18594437.0,18598737.0,4300.0,38,R,18597029,18597203,176,1251.2,962.4,2595,NA
29,1,continuous,38,54,trial,18594437.0,18598737.0,4300.0,38,R,18597221,18597445,226,1184.6,965.5,2594,NA
29,1,continuous,38,54,trial,18594437.0,18598737.0,4300.0,38,R,18597469,18597645,178,1076.9,951.3,2573,likertHorizontal
29,1,continuous,38,54,trial,18594437.0,18598737.0,4300.0,38,R,18597665,18598063,400,1008.9,934.7,2617,likertHorizontal
29,1,continuous,38,54,trial,18594437.0,18598737.0,4300.0,38,R,18598101,18598323,224,1022.6,751.4,2685,likertHorizontal
29,1,continuous,38,54,trial,18594437.0,18598737.0,4300.0,38,R,18598371,18598553,184,602.3,584.1,2752,left
29,1,continuous,38,54,trial,18594437.0,18598737.0,4300.0,38,R,18598593,18598691,100,642.1,418.5,2730,left
29,1,continuous,38,54,trial,18594437.0,18598737.0,4300.0,38,R,18598761,18599015,256,1429.7,487.1,2674,right
29,1,continuous,38,54,postResponse,18594437.0,18598737.0,4300.0,38,R,18599029,18599073,46,1389.4,491.5,2649,right
29,1,continuous,39,21,fixationCross,18599920.0,18602221.0,2301.0,39,R,18599147,18599227,82,1385.6,493.6,2659,right
29,1,continuous,39,21,fixationCross,18599920.0,18602221.0,2301.0,39,R,18599247,18599439,194,1293.4,484.7,2702,right
29,1,continuous,39,21,fixationCross,18599920.0,18602221.0,2301.0,39,R,18599463,18599605,144,1173.2,485.4,2755,NA
29,1,continuous,39,21,fixationCross,18599920.0,18602221.0,2301.0,39,R,18599633,18599797,166,974.3,511.4,2795,NA
29,1,continuous,39,21,trial,18599920.0,18602221.0,2301.0,39,R,18599811,18600097,288,966.0,535.4,2789,NA
29,1,continuous,39,21,trial,18599920.0,18602221.0,2301.0,39,R,18600141,18600337,198,544.4,553.6,2742,left
29,1,continuous,39,21,trial,18599920.0,18602221.0,2301.0,39,R,18600367,18600541,176,353.5,574.8,2545,left
29,1,continuous,39,21,trial,18599920.0,18602221.0,2301.0,39,R,18600553,18600797,246,319.7,569.8,2445,left
29,1,continuous,39,21,trial,18599920.0,18602221.0,2301.0,39,R,18600875,18601171,298,1411.2,465.2,2393,right
29,1,continuous,39,21,trial,18599920.0,18602221.0,2301.0,39,R,18601201,18601479,280,1457.3,615.6,2463,right
29,1,continuous,39,21,trial,18599920.0,18602221.0,2301.0,39,R,18601563,18601713,152,463.2,574.9,2507,left
29,1,continuous,39,21,trial,18599920.0,18602221.0,2301.0,39,R,18601737,18602125,390,358.1,579.9,2489,left
29,1,continuous,39,21,trial,18599920.0,18602221.0,2301.0,39,R,18602183,18602333,152,662.0,902.5,2468,NA
29,1,continuous,39,21,postResponse,18599920.0,18602221.0,2301.0,39,R,18602347,18602555,210,680.4,951.4,2495,NA
29,1,continuous,40,77,fixationCross,18603420.0,18609337.0,5917.0,40,R,18602631,18602849,220,721.2,924.3,2560,NA
29,1,continuous,40,77,fixationCross,18603420.0,18609337.0,5917.0,40,R,18602887,18603021,136,778.2,773.5,2568,likertHorizontal
29,1,continuous,40,77,fixationCross,18603420.0,18609337.0,5917.0,40,R,18603047,18603103,58,858.0,652.4,2596,NA
29,1,continuous,40,77,fixationCross,18603420.0,18609337.0,5917.0,40,R,18603139,18603273,136,971.7,526.9,2655,NA
29,1,continuous,40,77,trial,18603420.0,18609337.0,5917.0,40,R,18603285,18603593,310,961.9,546.0,2658,NA
29,1,continuous,40,77,trial,18603420.0,18609337.0,5917.0,40,R,18603639,18603873,236,601.9,585.1,2634,left
29,1,continuous,40,77,trial,18603420.0,18609337.0,5917.0,40,R,18603891,18604127,238,558.5,600.5,2518,left
29,1,continuous,40,77,trial,18603420.0,18609337.0,5917.0,40,R,18604145,18604317,174,601.9,577.2,2479,left
29,1,continuous,40,77,trial,18603420.0,18609337.0,5917.0,40,R,18604343,18604647,306,561.4,481.8,2501,left
29,1,continuous,40,77,trial,18603420.0,18609337.0,5917.0,40,R,18604667,18604841,176,502.3,517.5,2525,left
29,1,continuous,40,77,trial,18603420.0,18609337.0,5917.0,40,R,18604873,18605153,282,477.4,652.2,2540,left
29,1,continuous,40,77,trial,18603420.0,18609337.0,5917.0,40,R,18605175,18605315,142,544.9,687.1,2572,left
29,1,continuous,40,77,trial,18603420.0,18609337.0,5917.0,40,R,18605339,18605581,244,646.2,710.1,2582,left
29,1,continuous,40,77,trial,18603420.0,18609337.0,5917.0,40,R,18605597,18605983,388,613.3,695.3,2555,left
29,1,continuous,40,77,trial,18603420.0,18609337.0,5917.0,40,R,18606057,18606353,298,1463.7,551.0,2498,right
29,1,continuous,40,77,trial,18603420.0,18609337.0,5917.0,40,R,18606377,18606603,228,1475.5,635.0,2503,right
29,1,continuous,40,77,trial,18603420.0,18609337.0,5917.0,40,R,18606625,18606827,204,1595.9,616.8,2510,right
29,1,continuous,40,77,trial,18603420.0,18609337.0,5917.0,40,R,18606855,18607215,362,1478.9,467.3,2535,right
29,1,continuous,40,77,trial,18603420.0,18609337.0,5917.0,40,R,18607233,18607509,278,1419.9,517.7,2534,right
29,1,continuous,40,77,trial,18603420.0,18609337.0,5917.0,40,R,18607581,18607785,206,571.2,430.2,2552,left
29,1,continuous,40,77,trial,18603420.0,18609337.0,5917.0,40,R,18607811,18608039,230,522.9,500.4,2559,left
29,1,continuous,40,77,trial,18603420.0,18609337.0,5917.0,40,R,18608101,18608269,170,1126.7,934.2,2480,likertHorizontal
29,1,continuous,40,77,trial,18603420.0,18609337.0,5917.0,40,R,18608289,18608607,320,1084.5,953.2,2477,likertHorizontal
29,1,continuous,40,77,trial,18603420.0,18609337.0,5917.0,40,R,18608639,18608769,132,1356.7,1001.7,2709,NA
29,1,continuous,40,77,trial,18603420.0,18609337.0,5917.0,40,R,18608791,18608923,134,1466.4,1022.9,2722,NA
29,1,continuous,40,77,trial,18603420.0,18609337.0,5917.0,40,R,18608949,18609105,158,1319.1,973.4,2732,NA
29,1,continuous,40,77,trial,18603420.0,18609337.0,5917.0,40,R,18609149,18609645,498,1375.6,687.5,2704,right
29,1,continuous,41,16,fixationCross,18610353.0,18614170.0,3817.0,41,R,18609773,18609823,52,1334.3,663.8,2650,right
29,1,continuous,41,16,fixationCross,18610353.0,18614170.0,3817.0,41,R,18609855,18609999,146,1161.4,580.8,2632,NA
29,1,continuous,41,16,fixationCross,18610353.0,18614170.0,3817.0,41,R,18610021,18610177,158,1059.2,545.5,2658,NA
29,1,continuous,41,16,trial,18610353.0,18614170.0,3817.0,41,R,18610197,18610539,344,969.5,546.1,2654,NA
29,1,continuous,41,16,trial,18610353.0,18614170.0,3817.0,41,R,18610587,18610785,200,540.2,567.6,2670,left
29,1,continuous,41,16,trial,18610353.0,18614170.0,3817.0,41,R,18610801,18611001,202,492.2,543.2,2550,left
29,1,continuous,41,16,trial,18610353.0,18614170.0,3817.0,41,R,18611065,18611357,294,1306.0,467.6,2492,right
29,1,continuous,41,16,trial,18610353.0,18614170.0,3817.0,41,R,18611383,18611445,64,1469.4,490.4,2489,right
29,1,continuous,41,16,trial,18610353.0,18614170.0,3817.0,41,R,18611521,18612111,592,500.7,557.8,2615,left
29,1,continuous,41,16,trial,18610353.0,18614170.0,3817.0,41,R,18612127,18612339,214,473.1,536.5,2626,left
29,1,continuous,41,16,trial,18610353.0,18614170.0,3817.0,41,R,18612405,18612651,248,1244.1,485.3,2566,right
29,1,continuous,41,16,trial,18610353.0,18614170.0,3817.0,41,R,18612679,18612845,168,1372.3,492.8,2574,right
29,1,continuous,41,16,trial,18610353.0,18614170.0,3817.0,41,R,18612869,18613133,266,1471.2,494.6,2598,right
29,1,continuous,41,16,trial,18610353.0,18614170.0,3817.0,41,R,18613151,18613223,74,1528.0,521.2,2613,right
29,1,continuous,41,16,trial,18610353.0,18614170.0,3817.0,41,R,18613315,18613597,284,543.4,957.2,2568,NA
29,1,continuous,41,16,trial,18610353.0,18614170.0,3817.0,41,R,18613611,18613819,210,507.7,959.8,2542,NA
29,1,continuous,41,16,trial,18610353.0,18614170.0,3817.0,41,R,18613841,18614229,390,609.8,954.0,2566,NA
29,1,continuous,41,16,postResponse,18610353.0,18614170.0,3817.0,41,R,18614273,18614505,234,670.5,685.2,2571,left
29,1,continuous,42,44,fixationCross,18615321.0,18619654.0,4333.0,42,R,18614581,18614757,178,693.2,654.0,2597,left
29,1,continuous,42,44,fixationCross,18615321.0,18619654.0,4333.0,42,R,18614773,18615003,232,741.5,618.8,2653,NA
29,1,continuous,42,44,fixationCross,18615321.0,18619654.0,4333.0,42,R,18615035,18615175,142,950.3,552.4,2655,NA
29,1,continuous,42,44,trial,18615321.0,18619654.0,4333.0,42,R,18615185,18615483,300,970.4,557.3,2643,NA
29,1,continuous,42,44,trial,18615321.0,18619654.0,4333.0,42,R,18615523,18615691,170,589.8,578.4,2693,left
29,1,continuous,42,44,trial,18615321.0,18619654.0,4333.0,42,R,18615719,18615885,168,428.5,514.7,2571,left
29,1,continuous,42,44,trial,18615321.0,18619654.0,4333.0,42,R,18615901,18616045,146,363.4,514.3,2492,left
29,1,continuous,42,44,trial,18615321.0,18619654.0,4333.0,42,R,18616117,18616301,186,1332.7,447.2,2418,right
29,1,continuous,42,44,trial,18615321.0,18619654.0,4333.0,42,R,18616317,18616475,160,1393.8,453.9,2410,right
29,1,continuous,42,44,trial,18615321.0,18619654.0,4333.0,42,R,18616505,18616743,240,1426.1,554.2,2446,right
29,1,continuous,42,44,trial,18615321.0,18619654.0,4333.0,42,R,18616773,18616963,192,1613.6,592.0,2465,right
29,1,continuous,42,44,trial,18615321.0,18619654.0,4333.0,42,R,18616991,18617255,266,1671.5,462.5,2443,right
29,1,continuous,42,44,trial,18615321.0,18619654.0,4333.0,42,R,18617271,18617367,98,1655.7,426.4,2446,right
29,1,continuous,42,44,trial,18615321.0,18619654.0,4333.0,42,R,18617457,18617651,196,555.8,530.7,2487,left
29,1,continuous,42,44,trial,18615321.0,18619654.0,4333.0,42,R,18617681,18617913,234,366.0,499.8,2466,left
29,1,continuous,42,44,trial,18615321.0,18619654.0,4333.0,42,R,18617927,18618101,176,336.8,510.7,2425,left
29,1,continuous,42,44,trial,18615321.0,18619654.0,4333.0,42,R,18618133,18618745,614,604.9,573.9,2451,left
29,1,continuous,42,44,trial,18615321.0,18619654.0,4333.0,42,R,18618803,18618951,150,937.0,896.0,2415,likertHorizontal
29,1,continuous,42,44,trial,18615321.0,18619654.0,4333.0,42,R,18618965,18619515,552,910.0,940.6,2442,likertHorizontal
29,1,continuous,42,44,trial,18615321.0,18619654.0,4333.0,42,R,18619567,18619733,168,1466.6,1008.0,2601,NA
29,1,continuous,42,44,trial,18615321.0,18619654.0,4333.0,42,R,18619779,18619903,126,1388.5,680.7,2630,right
29,1,continuous,43,68,fixationCross,18620554.0,18622871.0,2317.0,43,R,18620171,18620319,150,997.3,527.3,2584,NA
29,1,continuous,43,68,trial,18620554.0,18622871.0,2317.0,43,R,18620337,18620733,398,952.6,522.6,2651,NA
29,1,continuous,43,68,trial,18620554.0,18622871.0,2317.0,43,R,18620777,18620991,216,573.2,541.5,2579,left
29,1,continuous,43,68,trial,18620554.0,18622871.0,2317.0,43,R,18621023,18621235,214,467.9,660.5,2470,left
29,1,continuous,43,68,trial,18620554.0,18622871.0,2317.0,43,R,18621251,18621485,236,529.9,675.8,2437,left
29,1,continuous,43,68,trial,18620554.0,18622871.0,2317.0,43,R,18621559,18621881,324,1435.1,486.4,2420,right
29,1,continuous,43,68,trial,18620554.0,18622871.0,2317.0,43,R,18621901,18622071,172,1393.7,542.2,2465,right
29,1,continuous,43,68,trial,18620554.0,18622871.0,2317.0,43,R,18622127,18622273,148,1243.0,938.9,2505,NA
29,1,continuous,43,68,trial,18620554.0,18622871.0,2317.0,43,R,18622289,18622505,218,1192.9,966.6,2479,NA
29,1,continuous,43,68,trial,18620554.0,18622871.0,2317.0,43,R,18622515,18623155,642,1148.3,958.1,2442,likertHorizontal
29,1,continuous,43,68,postResponse,18620554.0,18622871.0,2317.0,43,R,18623179,18623207,30,1106.6,863.9,2326,likertHorizontal
29,1,continuous,44,64,fixationCross,18623904.0,18631571.0,7667.0,44,R,18623283,18623309,28,1102.7,856.4,2329,likertHorizontal
29,1,continuous,44,64,fixationCross,18623904.0,18631571.0,7667.0,44,R,18623351,18623531,182,952.7,619.2,2501,NA
29,1,continuous,44,64,fixationCross,18623904.0,18631571.0,7667.0,44,R,18623549,18623711,164,865.4,605.3,2508,NA
29,1,continuous,44,64,fixationCross,18623904.0,18631571.0,7667.0,44,R,18623727,18623789,64,914.5,590.1,2522,NA
29,1,continuous,44,64,trial,18623904.0,18631571.0,7667.0,44,R,18623815,18624081,268,960.1,547.0,2530,NA
29,1,continuous,44,64,trial,18623904.0,18631571.0,7667.0,44,R,18624129,18624303,176,533.7,557.1,2512,left
29,1,continuous,44,64,trial,18623904.0,18631571.0,7667.0,44,R,18624329,18624527,200,504.5,469.7,2417,left
29,1,continuous,44,64,trial,18623904.0,18631571.0,7667.0,44,R,18624541,18624745,206,544.4,479.4,2391,left
29,1,continuous,44,64,trial,18623904.0,18631571.0,7667.0,44,R,18624773,18625083,312,391.3,548.9,2385,left
29,1,continuous,44,64,trial,18623904.0,18631571.0,7667.0,44,R,18625119,18625287,170,490.0,398.7,2412,left
29,1,continuous,44,64,trial,18623904.0,18631571.0,7667.0,44,R,18625357,18625487,132,1337.7,432.2,2416,right
29,1,continuous,44,64,trial,18623904.0,18631571.0,7667.0,44,R,18625507,18625729,224,1423.2,451.4,2396,right
29,1,continuous,44,64,trial,18623904.0,18631571.0,7667.0,44,R,18625761,18625947,188,1471.1,599.6,2438,right
29,1,continuous,44,64,trial,18623904.0,18631571.0,7667.0,44,R,18625979,18626413,436,1564.5,460.1,2487,right
29,1,continuous,44,64,trial,18623904.0,18631571.0,7667.0,44,R,18626445,18626641,198,1442.9,649.0,2541,right
29,1,continuous,44,64,trial,18623904.0,18631571.0,7667.0,44,R,18626679,18628247,1570,1428.0,426.5,2506,right
29,1,continuous,44,64,trial,18623904.0,18631571.0,7667.0,44,R,18628261,18628633,374,1397.3,446.8,2554,right
29,1,continuous,44,64,trial,18623904.0,18631571.0,7667.0,44,R,18628661,18629099,440,1575.5,466.5,2569,right
29,1,continuous,44,64,trial,18623904.0,18631571.0,7667.0,44,R,18629131,18629401,272,1420.4,649.7,2565,right
29,1,continuous,44,64,trial,18623904.0,18631571.0,7667.0,44,R,18629415,18629703,290,1453.0,661.6,2550,right
29,1,continuous,44,64,trial,18623904.0,18631571.0,7667.0,44,R,18629749,18629829,82,1222.7,899.5,2503,NA
29,1,continuous,44,64,trial,18623904.0,18631571.0,7667.0,44,R,18629851,18629991,142,1149.4,937.0,2424,likertHorizontal
29,1,continuous,44,64,trial,18623904.0,18631571.0,7667.0,44,R,18630009,18630189,182,1109.7,956.3,2383,likertHorizontal
29,1,continuous,44,64,trial,18623904.0,18631571.0,7667.0,44,R,18630243,18630419,178,1354.5,619.4,2523,right
29,1,continuous,44,64,trial,18623904.0,18631571.0,7667.0,44,R,18630489,18631077,590,525.5,482.2,2524,left
29,1,continuous,44,64,trial,18623904.0,18631571.0,7667.0,44,R,18631097,18631279,184,593.8,533.0,2429,left
29,1,continuous,44,64,postResponse,18623904.0,18631571.0,7667.0,44,R,18631305,18631907,604,551.2,612.2,2439,left
29,1,continuous,45,77,fixationCross,18632704.0,18635437.0,2733.0,45,R,18632009,18632227,220,561.4,568.0,2511,left
29,1,continuous,45,77,fixationCross,18632704.0,18635437.0,2733.0,45,R,18632249,18632397,150,638.1,549.2,2528,left
29,1,continuous,45,77,fixationCross,18632704.0,18635437.0,2733.0,45,R,18632443,18632603,162,950.5,544.3,2557,NA
29,1,continuous,45,77,trial,18632704.0,18635437.0,2733.0,45,R,18632613,18632869,258,960.9,546.0,2595,NA
29,1,continuous,45,77,trial,18632704.0,18635437.0,2733.0,45,R,18632917,18633181,266,535.9,554.4,2590,left
29,1,continuous,45,77,trial,18632704.0,18635437.0,2733.0,45,R,18633249,18633573,326,1419.4,505.7,2442,right
29,1,continuous,45,77,trial,18632704.0,18635437.0,2733.0,45,R,18633591,18633799,210,1454.8,535.3,2471,right
29,1,continuous,45,77,trial,18632704.0,18635437.0,2733.0,45,R,18633829,18634111,284,1437.6,433.8,2550,right
29,1,continuous,45,77,trial,18632704.0,18635437.0,2733.0,45,R,18634169,18634387,220,1292.7,965.6,2638,NA
29,1,continuous,45,77,trial,18632704.0,18635437.0,2733.0,45,R,18634439,18634623,186,1483.5,642.8,2644,right
29,1,continuous,45,77,trial,18632704.0,18635437.0,2733.0,45,R,18634635,18634939,306,1443.6,643.6,2649,right
29,1,continuous,45,77,trial,18632704.0,18635437.0,2733.0,45,R,18634981,18635463,484,1455.2,453.7,2654,right
29,1,continuous,45,77,postResponse,18632704.0,18635437.0,2733.0,45,R,18635513,18635801,290,1333.5,867.0,2656,NA
29,1,continuous,46,12,fixationCross,18636704.0,18639788.0,3084.0,46,R,18635917,18636033,118,1294.7,853.8,2626,NA
29,1,continuous,46,12,fixationCross,18636704.0,18639788.0,3084.0,46,R,18636049,18636209,162,1249.4,830.9,2639,NA
29,1,continuous,46,12,fixationCross,18636704.0,18639788.0,3084.0,46,R,18636229,18636371,144,1198.9,798.2,2668,NA
29,1,continuous,46,12,trial,18636704.0,18639788.0,3084.0,46,R,18636415,18636867,454,968.5,551.2,2620,NA
29,1,continuous,46,12,trial,18636704.0,18639788.0,3084.0,46,R,18636907,18637041,136,515.6,553.7,2577,left
29,1,continuous,46,12,trial,18636704.0,18639788.0,3084.0,46,R,18637067,18637401,336,405.4,581.5,2482,left
29,1,continuous,46,12,trial,18636704.0,18639788.0,3084.0,46,R,18637473,18637773,302,1371.6,587.5,2399,right
29,1,continuous,46,12,trial,18636704.0,18639788.0,3084.0,46,R,18637801,18638027,228,1503.3,492.9,2427,right
29,1,continuous,46,12,trial,18636704.0,18639788.0,3084.0,46,R,18638107,18638339,234,431.1,566.9,2529,left
29,1,continuous,46,12,trial,18636704.0,18639788.0,3084.0,46,R,18638349,18638769,422,401.4,580.5,2524,left
29,1,continuous,46,12,trial,18636704.0,18639788.0,3084.0,46,R,18638821,18639173,354,511.7,936.2,2476,NA
29,1,continuous,46,12,trial,18636704.0,18639788.0,3084.0,46,R,18639223,18639409,188,396.2,642.5,2521,left
29,1,continuous,46,12,trial,18636704.0,18639788.0,3084.0,46,R,18639429,18640085,658,393.0,587.5,2528,left
29,1,continuous,47,37,fixationCross,18641121.0,18647754.0,6633.0,47,R,18640221,18640519,300,455.2,567.7,2549,left
29,1,continuous,47,37,fixationCross,18641121.0,18647754.0,6633.0,47,R,18640545,18640653,110,556.1,560.5,2610,left
29,1,continuous,47,37,fixationCross,18641121.0,18647754.0,6633.0,47,R,18640683,18640827,146,787.6,560.0,2631,NA
29,1,continuous,47,37,fixationCross,18641121.0,18647754.0,6633.0,47,R,18640851,18641019,170,934.9,543.3,2688,NA
29,1,continuous,47,37,trial,18641121.0,18647754.0,6633.0,47,R,18641029,18641309,282,961.0,550.1,2767,NA
29,1,continuous,47,37,trial,18641121.0,18647754.0,6633.0,47,R,18641353,18641521,170,569.9,557.8,2853,left
29,1,continuous,47,37,trial,18641121.0,18647754.0,6633.0,47,R,18641553,18641729,178,533.6,695.5,2718,left
29,1,continuous,47,37,trial,18641121.0,18647754.0,6633.0,47,R,18641749,18642085,338,580.6,705.6,2723,left
29,1,continuous,47,37,trial,18641121.0,18647754.0,6633.0,47,R,18642097,18642871,776,543.5,723.2,2761,left
29,1,continuous,47,37,trial,18641121.0,18647754.0,6633.0,47,R,18642939,18643107,170,1360.5,528.5,2765,right
29,1,continuous,47,37,trial,18641121.0,18647754.0,6633.0,47,R,18643133,18643301,170,1381.6,446.5,2787,right
29,1,continuous,47,37,trial,18641121.0,18647754.0,6633.0,47,R,18643375,18643559,186,494.4,472.5,2791,left
29,1,continuous,47,37,trial,18641121.0,18647754.0,6633.0,47,R,18643585,18643755,172,621.7,493.2,2784,left
29,1,continuous,47,37,trial,18641121.0,18647754.0,6633.0,47,R,18643783,18646341,2560,378.7,507.2,2990,left
29,1,continuous,47,37,trial,18641121.0,18647754.0,6633.0,47,R,18646365,18646541,178,474.9,486.5,3056,left
29,1,continuous,47,37,trial,18641121.0,18647754.0,6633.0,47,R,18646563,18646775,214,371.8,492.0,3056,left
29,1,continuous,47,37,trial,18641121.0,18647754.0,6633.0,47,R,18646853,18647025,174,1392.6,461.4,3028,right
29,1,continuous,47,37,trial,18641121.0,18647754.0,6633.0,47,R,18647037,18647275,240,1371.7,477.0,2962,right
29,1,continuous,47,37,trial,18641121.0,18647754.0,6633.0,47,R,18647357,18647537,182,733.2,1002.9,2953,NA
29,1,continuous,47,37,trial,18641121.0,18647754.0,6633.0,47,R,18647561,18647697,138,849.9,979.6,2848,likertHorizontal
29,1,continuous,47,37,trial,18641121.0,18647754.0,6633.0,47,R,18647709,18647845,138,824.6,980.0,2834,likertHorizontal
29,1,continuous,47,37,trial,18641121.0,18647754.0,6633.0,47,R,18647899,18648059,162,564.3,748.5,2908,NA
29,1,continuous,48,53,fixationCross,18648871.0,18653455.0,4584.0,48,R,18648175,18648267,94,652.7,665.5,2909,left
29,1,continuous,48,53,fixationCross,18648871.0,18653455.0,4584.0,48,R,18648293,18648569,278,821.8,568.8,2976,NA
29,1,continuous,48,53,fixationCross,18648871.0,18653455.0,4584.0,48,R,18648595,18648663,70,906.0,563.8,3056,NA
29,1,continuous,48,53,trial,18648871.0,18653455.0,4584.0,48,R,18648685,18649021,338,960.6,565.6,3054,NA
29,1,continuous,48,53,trial,18648871.0,18653455.0,4584.0,48,R,18649069,18649373,306,478.6,555.2,2982,left
29,1,continuous,48,53,trial,18648871.0,18653455.0,4584.0,48,R,18649395,18649665,272,436.8,475.7,2778,left
29,1,continuous,48,53,trial,18648871.0,18653455.0,4584.0,48,R,18649743,18649965,224,1467.6,453.5,2656,right
29,1,continuous,48,53,trial,18648871.0,18653455.0,4584.0,48,R,18649983,18650153,172,1495.2,431.9,2652,right
29,1,continuous,48,53,trial,18648871.0,18653455.0,4584.0,48,R,18650179,18650403,226,1472.9,508.3,2743,right
29,1,continuous,48,53,trial,18648871.0,18653455.0,4584.0,48,R,18650431,18650727,298,1577.6,641.8,2805,right
29,1,continuous,48,53,trial,18648871.0,18653455.0,4584.0,48,R,18650737,18650855,120,1554.0,655.8,2798,right
29,1,continuous,48,53,trial,18648871.0,18653455.0,4584.0,48,R,18650943,18651261,320,427.3,505.4,2809,left
29,1,continuous,48,53,trial,18648871.0,18653455.0,4584.0,48,R,18651295,18651559,266,494.1,620.6,2701,left
29,1,continuous,48,53,trial,18648871.0,18653455.0,4584.0,48,R,18651589,18651919,332,490.7,505.7,2679,left
29,1,continuous,48,53,trial,18648871.0,18653455.0,4584.0,48,R,18651943,18652271,330,418.3,409.7,2649,left
29,1,continuous,48,53,trial,18648871.0,18653455.0,4584.0,48,R,18652325,18652469,146,817.4,706.4,2621,NA
29,1,continuous,48,53,trial,18648871.0,18653455.0,4584.0,48,R,18652519,18652589,72,596.6,476.2,2671,left
29,1,continuous,48,53,trial,18648871.0,18653455.0,4584.0,48,R,18652643,18652831,190,921.0,911.0,2630,likertHorizontal
29,1,continuous,48,53,trial,18648871.0,18653455.0,4584.0,48,R,18652855,18653285,432,996.5,949.2,2710,likertHorizontal
29,1,continuous,48,53,trial,18648871.0,18653455.0,4584.0,48,R,18653337,18653517,182,605.8,682.3,2822,left
29,1,continuous,48,53,trial,18648871.0,18653455.0,4584.0,48,R,18653535,18653723,190,552.1,678.4,2776,left
29,1,continuous,48,53,postResponse,18648871.0,18653455.0,4584.0,48,R,18653751,18653787,38,741.7,600.9,2697,NA
29,1,continuous,49,69,fixationCross,18654488.0,18657421.0,2933.0,49,R,18653901,18654093,194,867.1,551.5,2659,NA
29,1,continuous,49,69,fixationCross,18654488.0,18657421.0,2933.0,49,R,18654115,18654243,130,806.8,547.9,2700,NA
29,1,continuous,49,69,trial,18654488.0,18657421.0,2933.0,49,R,18654273,18654641,370,956.4,548.1,2808,NA
29,1,continuous,49,69,trial,18654488.0,18657421.0,2933.0,49,R,18654685,18654879,196,569.6,632.1,2858,left
29,1,continuous,49,69,trial,18654488.0,18657421.0,2933.0,49,R,18654903,18655039,138,481.7,559.4,2738,left
29,1,continuous,49,69,trial,18654488.0,18657421.0,2933.0,49,R,18655115,18655375,262,1462.7,537.9,2671,right
29,1,continuous,49,69,trial,18654488.0,18657421.0,2933.0,49,R,18655453,18655647,196,515.0,575.3,2738,left
29,1,continuous,49,69,trial,18654488.0,18657421.0,2933.0,49,R,18655667,18655839,174,468.1,538.4,2782,left
29,1,continuous,49,69,trial,18654488.0,18657421.0,2933.0,49,R,18655871,18656029,160,653.6,594.9,2710,left
29,1,continuous,49,69,trial,18654488.0,18657421.0,2933.0,49,R,18656109,18656307,200,1526.6,536.1,2666,right
29,1,continuous,49,69,trial,18654488.0,18657421.0,2933.0,49,R,18656335,18656575,242,1466.7,622.8,2696,right
29,1,continuous,49,69,trial,18654488.0,18657421.0,2933.0,49,R,18656589,18656853,266,1474.1,659.3,2747,right
29,1,continuous,49,69,trial,18654488.0,18657421.0,2933.0,49,R,18656907,18657017,112,1162.9,1007.7,2704,likertHorizontal
29,1,continuous,49,69,trial,18654488.0,18657421.0,2933.0,49,R,18657033,18657169,138,1099.7,985.3,2735,likertHorizontal
29,1,continuous,49,69,trial,18654488.0,18657421.0,2933.0,49,R,18657193,18657621,430,1174.4,985.4,2754,likertHorizontal
29,1,continuous,50,25,fixationCross,18658338.0,18660954.0,2616.0,50,R,18657981,18658207,228,894.1,594.6,2821,NA
29,1,continuous,50,25,trial,18658338.0,18660954.0,2616.0,50,R,18658233,18658515,284,962.0,560.0,2928,NA
29,1,continuous,50,25,trial,18658338.0,18660954.0,2616.0,50,R,18658559,18658765,208,565.5,593.0,2820,left
29,1,continuous,50,25,trial,18658338.0,18660954.0,2616.0,50,R,18658781,18658931,152,504.8,592.5,2685,left
29,1,continuous,50,25,trial,18658338.0,18660954.0,2616.0,50,R,18659003,18659319,318,1427.1,488.3,2560,right
29,1,continuous,50,25,trial,18658338.0,18660954.0,2616.0,50,R,18659349,18659589,242,1437.9,606.3,2608,right
29,1,continuous,50,25,trial,18658338.0,18660954.0,2616.0,50,R,18659611,18659773,164,1484.6,545.0,2709,right
29,1,continuous,50,25,trial,18658338.0,18660954.0,2616.0,50,R,18659803,18659883,82,1487.2,420.2,2742,right
29,1,continuous,50,25,trial,18658338.0,18660954.0,2616.0,50,R,18659953,18660095,144,663.8,531.9,2740,left
29,1,continuous,50,25,trial,18658338.0,18660954.0,2616.0,50,R,18660121,18660265,146,551.3,585.6,2775,left
29,1,continuous,50,25,trial,18658338.0,18660954.0,2616.0,50,R,18660279,18660607,330,510.5,596.4,2738,left
29,1,continuous,50,25,trial,18658338.0,18660954.0,2616.0,50,R,18660659,18660793,136,658.7,917.4,2664,NA
29,1,continuous,50,25,trial,18658338.0,18660954.0,2616.0,50,R,18660819,18661177,360,710.1,969.1,2631,NA
29,1,continuous,50,25,postResponse,18658338.0,18660954.0,2616.0,50,R,18661219,18661289,72,956.2,735.0,2579,likertHorizontal
29,2,binary,1,2,fixationCross,18717805.0,18720955.0,3150.0,51,R,18716966,18717056,92,845.9,890.3,2957,likertHorizontal
29,2,binary,1,2,fixationCross,18717805.0,18720955.0,3150.0,51,R,18717080,18717212,134,945.9,890.8,2945,likertHorizontal
29,2,binary,1,2,fixationCross,18717805.0,18720955.0,3150.0,51,R,18717242,18717482,242,1111.3,875.0,2947,likertHorizontal
29,2,binary,1,2,fixationCross,18717805.0,18720955.0,3150.0,51,R,18717530,18717690,162,989.6,520.7,3047,NA
29,2,binary,1,2,trial,18717805.0,18720955.0,3150.0,51,R,18717706,18717988,284,961.7,562.3,3156,NA
29,2,binary,1,2,trial,18717805.0,18720955.0,3150.0,51,R,18718032,18718280,250,1335.5,485.4,3140,right
29,2,binary,1,2,trial,18717805.0,18720955.0,3150.0,51,R,18718340,18718582,244,593.3,536.8,2920,left
29,2,binary,1,2,trial,18717805.0,18720955.0,3150.0,51,R,18718612,18718734,124,454.2,599.9,2884,left
29,2,binary,1,2,trial,18717805.0,18720955.0,3150.0,51,R,18718798,18719020,224,1241.4,750.7,2822,NA
29,2,binary,1,2,trial,18717805.0,18720955.0,3150.0,51,R,18719062,18719278,218,1445.5,1027.2,2906,NA
29,2,binary,1,2,trial,18717805.0,18720955.0,3150.0,51,R,18719296,18719584,290,1393.3,1036.9,2991,NA
29,2,binary,1,2,trial,18717805.0,18720955.0,3150.0,51,R,18719634,18719836,204,1466.2,660.4,2939,right
29,2,binary,1,2,trial,18717805.0,18720955.0,3150.0,51,R,18719880,18720058,180,1395.7,982.7,2946,NA
29,2,binary,1,2,trial,18717805.0,18720955.0,3150.0,51,R,18720078,18720146,70,1445.1,1010.8,2985,NA
29,2,binary,1,2,trial,18717805.0,18720955.0,3150.0,51,R,18720216,18720348,134,544.9,1012.3,3091,NA
29,2,binary,1,2,trial,18717805.0,18720955.0,3150.0,51,R,18720416,18720792,378,1415.5,988.4,3198,NA
29,2,binary,1,2,postResponse,18717805.0,18720955.0,3150.0,51,R,18720810,18721298,490,1457.5,1002.5,3281,NA
29,2,binary,2,1,fixationCross,18722105.0,18723389.0,1284.0,52,R,18721372,18721410,40,1462.1,1000.3,3341,NA
29,2,binary,2,1,fixationCross,18722105.0,18723389.0,1284.0,52,R,18721436,18721778,344,1411.4,924.9,3404,NA
29,2,binary,2,1,trial,18722105.0,18723389.0,1284.0,52,R,18721830,18722308,480,981.3,555.6,3434,NA
29,2,binary,2,1,trial,18722105.0,18723389.0,1284.0,52,R,18722354,18722500,148,1302.4,771.1,3374,NA
29,2,binary,2,1,trial,18722105.0,18723389.0,1284.0,52,R,18722568,18722752,186,504.8,971.6,3189,NA
29,2,binary,2,1,trial,18722105.0,18723389.0,1284.0,52,R,18722772,18723200,430,480.2,1017.2,3277,NA
29,2,binary,2,1,postResponse,18722105.0,18723389.0,1284.0,52,R,18723218,18723722,506,493.3,994.4,3269,NA
29,2,binary,3,2,fixationCross,18724588.0,18730038.0,5450.0,53,R,18723796,18723872,78,501.3,990.4,3267,NA
29,2,binary,3,2,fixationCross,18724588.0,18730038.0,5450.0,53,R,18723896,18724058,164,551.9,911.7,3357,NA
29,2,binary,3,2,fixationCross,18724588.0,18730038.0,5450.0,53,R,18724102,18724270,170,607.0,706.6,3390,left
29,2,binary,3,2,fixationCross,18724588.0,18730038.0,5450.0,53,R,18724314,18724438,126,1002.4,545.4,3382,NA
29,2,binary,3,2,trial,18724588.0,18730038.0,5450.0,53,R,18724450,18724898,450,981.4,563.7,3437,NA
29,2,binary,3,2,trial,18724588.0,18730038.0,5450.0,53,R,18724946,18725028,84,890.9,917.2,3269,likertHorizontal
29,2,binary,3,2,trial,18724588.0,18730038.0,5450.0,53,R,18725082,18725322,242,1430.3,983.8,3205,NA
29,2,binary,3,2,trial,18724588.0,18730038.0,5450.0,53,R,18725340,18725476,138,1467.8,1025.4,3208,NA
29,2,binary,3,2,trial,18724588.0,18730038.0,5450.0,53,R,18725626,18725812,188,1461.0,627.2,3299,right
29,2,binary,3,2,trial,18724588.0,18730038.0,5450.0,53,R,18725844,18725998,156,1532.5,527.4,3311,right
29,2,binary,3,2,trial,18724588.0,18730038.0,5450.0,53,R,18726076,18726284,210,542.0,551.3,3248,left
29,2,binary,3,2,trial,18724588.0,18730038.0,5450.0,53,R,18726308,18726424,118,588.2,528.3,3122,left
29,2,binary,3,2,trial,18724588.0,18730038.0,5450.0,53,R,18726452,18726642,192,566.9,670.7,3025,left
29,2,binary,3,2,trial,18724588.0,18730038.0,5450.0,53,R,18726718,18727378,662,1521.9,530.6,2907,right
29,2,binary,3,2,trial,18724588.0,18730038.0,5450.0,53,R,18727444,18727598,156,817.0,538.3,3096,NA
29,2,binary,3,2,trial,18724588.0,18730038.0,5450.0,53,R,18727660,18727810,152,1389.4,903.6,3187,NA
29,2,binary,3,2,trial,18724588.0,18730038.0,5450.0,53,R,18727874,18728026,154,637.8,980.7,3190,NA
29,2,binary,3,2,trial,18724588.0,18730038.0,5450.0,53,R,18728090,18728676,588,1440.0,956.4,3313,NA
29,2,binary,3,2,trial,18724588.0,18730038.0,5450.0,53,R,18728746,18728900,156,516.7,993.3,3359,NA
29,2,binary,3,2,trial,18724588.0,18730038.0,5450.0,53,R,18728912,18729156,246,495.4,998.9,3379,NA
29,2,binary,3,2,trial,18724588.0,18730038.0,5450.0,53,R,18729222,18729342,122,1407.4,959.4,3309,NA
29,2,binary,3,2,trial,18724588.0,18730038.0,5450.0,53,R,18729360,18729518,160,1456.1,992.6,3230,NA
29,2,binary,3,2,trial,18724588.0,18730038.0,5450.0,53,R,18729690,18729844,156,1525.0,607.2,3205,right
29,2,binary,3,2,trial,18724588.0,18730038.0,5450.0,53,R,18729904,18730042,140,1417.4,1009.0,3275,NA
