participantNo,block,task,blockTrial,response,trialStage,trialStartTime,trialFinishTime,rt,trial,eye,fixStart,fixEnd,fixLength,fixPosX,fixPosY,dilation,aoi
42,1,binary,1,2,fixationCross,2228220.0,2232037.0,3817.0,1,R,2226933,2227255,324,910.3,533.4,4655,NA
42,1,binary,1,2,fixationCross,2228220.0,2232037.0,3817.0,1,R,2227267,2227597,332,870.5,510.3,4664,NA
42,1,binary,1,2,fixationCross,2228220.0,2232037.0,3817.0,1,R,2227627,2227809,184,733.6,583.3,4678,left
42,1,binary,1,2,fixationCross,2228220.0,2232037.0,3817.0,1,R,2227839,2227975,138,915.5,554.7,4672,NA
42,1,binary,1,2,trial,2228220.0,2232037.0,3817.0,1,R,2227987,2228427,442,950.2,552.9,4863,NA
42,1,binary,1,2,trial,2228220.0,2232037.0,3817.0,1,R,2228469,2228841,374,579.2,531.3,4579,left
42,1,binary,1,2,trial,2228220.0,2232037.0,3817.0,1,R,2228903,2229181,280,1406.7,578.4,3947,right
42,1,binary,1,2,trial,2228220.0,2232037.0,3817.0,1,R,2229205,2229457,254,1503.7,665.0,3901,right
42,1,binary,1,2,trial,2228220.0,2232037.0,3817.0,1,R,2229537,2229783,248,508.0,477.1,4093,left
42,1,binary,1,2,trial,2228220.0,2232037.0,3817.0,1,R,2229797,2229979,184,515.8,514.6,4075,left
42,1,binary,1,2,trial,2228220.0,2232037.0,3817.0,1,R,2230003,2230327,326,619.0,479.7,3992,left
42,1,binary,1,2,trial,2228220.0,2232037.0,3817.0,1,R,2230385,2230601,218,1369.7,575.8,3851,right
42,1,binary,1,2,trial,2228220.0,2232037.0,3817.0,1,R,2230623,2230871,250,1475.7,653.1,3967,right
42,1,binary,1,2,trial,2228220.0,2232037.0,3817.0,1,R,2230889,2231083,196,1515.6,694.1,4177,right
42,1,binary,1,2,trial,2228220.0,2232037.0,3817.0,1,R,2231129,2231325,198,1057.4,959.5,4269,likertHorizontal
42,1,binary,1,2,trial,2228220.0,2232037.0,3817.0,1,R,2231367,2231675,310,1418.7,960.8,4268,NA
42,1,binary,1,2,trial,2228220.0,2232037.0,3817.0,1,R,2231721,2232337,618,1432.0,627.2,4626,right
42,1,binary,2,1,fixationCross,2233137.0,2235703.0,2566.0,2,R,2232693,2232749,58,887.3,572.7,5144,NA
42,1,binary,2,1,fixationCross,2233137.0,2235703.0,2566.0,2,R,2232771,2232925,156,806.9,546.9,5231,NA
42,1,binary,2,1,trial,2233137.0,2235703.0,2566.0,2,R,2232953,2233289,338,960.0,576.7,5006,NA
42,1,binary,2,1,trial,2233137.0,2235703.0,2566.0,2,R,2233333,2233521,190,547.1,524.2,4834,left
42,1,binary,2,1,trial,2233137.0,2235703.0,2566.0,2,R,2233541,2233813,274,491.7,568.0,4494,left
42,1,binary,2,1,trial,2233137.0,2235703.0,2566.0,2,R,2233875,2234381,508,1371.6,603.7,4213,right
42,1,binary,2,1,trial,2233137.0,2235703.0,2566.0,2,R,2234451,2235149,700,520.4,547.1,4203,left
42,1,binary,2,1,trial,2233137.0,2235703.0,2566.0,2,R,2235159,2235583,426,499.9,564.8,4274,left
42,1,binary,2,1,trial,2233137.0,2235703.0,2566.0,2,R,2235607,2235923,318,495.4,473.9,4337,left
42,1,binary,3,2,fixationCross,2236771.0,2239471.0,2700.0,3,R,2236157,2236409,254,827.7,613.2,4587,NA
42,1,binary,3,2,fixationCross,2236771.0,2239471.0,2700.0,3,R,2236447,2236611,166,1040.1,599.3,4800,NA
42,1,binary,3,2,trial,2236771.0,2239471.0,2700.0,3,R,2236631,2236969,340,949.7,573.9,4740,NA
42,1,binary,3,2,trial,2236771.0,2239471.0,2700.0,3,R,2237015,2237247,234,530.7,542.6,4570,left
42,1,binary,3,2,trial,2236771.0,2239471.0,2700.0,3,R,2237267,2237409,144,451.5,533.7,4294,left
42,1,binary,3,2,trial,2236771.0,2239471.0,2700.0,3,R,2237471,2237679,210,1374.0,622.6,4121,right
42,1,binary,3,2,trial,2236771.0,2239471.0,2700.0,3,R,2237697,2237929,234,1441.6,611.2,4090,right
42,1,binary,3,2,trial,2236771.0,2239471.0,2700.0,3,R,2237947,2238123,178,1495.8,641.4,3994,right
42,1,binary,3,2,trial,2236771.0,2239471.0,2700.0,3,R,2238143,2238365,224,1576.8,697.4,3919,right
42,1,binary,3,2,trial,2236771.0,2239471.0,2700.0,3,R,2238443,2238891,450,447.6,530.9,4042,left
42,1,binary,3,2,trial,2236771.0,2239471.0,2700.0,3,R,2238955,2239323,370,1349.9,662.3,4043,right
42,1,binary,3,2,trial,2236771.0,2239471.0,2700.0,3,R,2239349,2239529,182,1412.8,762.5,4219,NA
42,1,binary,3,2,trial,2236771.0,2239471.0,2700.0,3,R,2239567,2239723,158,1314.9,600.6,4368,right
42,1,binary,4,2,fixationCross,2242037.0,2244738.0,2701.0,4,R,2239919,2240193,276,918.0,613.1,4749,NA
42,1,binary,4,2,fixationCross,2242037.0,2244738.0,2701.0,4,R,2240231,2241279,1050,733.4,537.0,4663,left
42,1,binary,4,2,fixationCross,2242037.0,2244738.0,2701.0,4,R,2241299,2241823,526,846.7,545.5,4713,NA
42,1,binary,4,2,trial,2242037.0,2244738.0,2701.0,4,R,2241845,2242187,344,948.5,570.6,4844,NA
42,1,binary,4,2,trial,2242037.0,2244738.0,2701.0,4,R,2242231,2242457,228,562.1,580.8,4808,left
42,1,binary,4,2,trial,2242037.0,2244738.0,2701.0,4,R,2242477,2242635,160,465.8,594.1,4507,left
42,1,binary,4,2,trial,2242037.0,2244738.0,2701.0,4,R,2242701,2242891,192,1400.5,591.3,4167,right
42,1,binary,4,2,trial,2242037.0,2244738.0,2701.0,4,R,2242909,2243175,268,1402.3,545.4,4074,right
42,1,binary,4,2,trial,2242037.0,2244738.0,2701.0,4,R,2243201,2243379,180,1440.8,649.1,4161,right
42,1,binary,4,2,trial,2242037.0,2244738.0,2701.0,4,R,2243451,2243745,296,464.4,610.1,4409,left
42,1,binary,4,2,trial,2242037.0,2244738.0,2701.0,4,R,2243769,2244097,330,562.6,593.4,4365,left
42,1,binary,4,2,trial,2242037.0,2244738.0,2701.0,4,R,2244163,2244753,592,1426.2,618.5,4220,right
42,1,binary,4,2,trial,2242037.0,2244738.0,2701.0,4,R,2244769,2244977,210,1400.5,593.9,4499,right
42,1,binary,5,2,fixationCross,2245904.0,2248804.0,2900.0,5,R,2245213,2245575,364,1079.5,629.2,4621,NA
42,1,binary,5,2,trial,2245904.0,2248804.0,2900.0,5,R,2245599,2246043,446,955.0,583.8,4676,NA
42,1,binary,5,2,trial,2245904.0,2248804.0,2900.0,5,R,2246087,2246229,144,541.1,526.5,4516,left
42,1,binary,5,2,trial,2245904.0,2248804.0,2900.0,5,R,2246247,2246559,314,528.7,485.0,4332,left
42,1,binary,5,2,trial,2245904.0,2248804.0,2900.0,5,R,2246623,2247173,552,1428.3,619.7,4167,right
42,1,binary,5,2,trial,2245904.0,2248804.0,2900.0,5,R,2247193,2247475,284,1480.2,653.9,4071,right
42,1,binary,5,2,trial,2245904.0,2248804.0,2900.0,5,R,2247511,2247829,320,1505.2,470.8,4028,right
42,1,binary,5,2,trial,2245904.0,2248804.0,2900.0,5,R,2247905,2248057,154,511.0,499.4,4190,left
42,1,binary,5,2,trial,2245904.0,2248804.0,2900.0,5,R,2248073,2249015,944,523.1,469.5,4158,left
42,1,binary,6,1,fixationCross,2249904.0,2252020.0,2116.0,6,R,2249247,2249589,344,583.6,567.9,4542,left
42,1,binary,6,1,trial,2249904.0,2252020.0,2116.0,6,R,2249629,2250045,418,932.9,555.5,4543,NA
42,1,binary,6,1,trial,2249904.0,2252020.0,2116.0,6,R,2250085,2250499,416,578.6,517.4,4462,left
42,1,binary,6,1,trial,2249904.0,2252020.0,2116.0,6,R,2250515,2250949,436,611.4,487.0,4020,left
42,1,binary,6,1,trial,2249904.0,2252020.0,2116.0,6,R,2251009,2251417,410,1296.0,588.9,3865,right
42,1,binary,6,1,trial,2249904.0,2252020.0,2116.0,6,R,2251477,2251821,346,590.1,488.6,4360,left
42,1,binary,6,1,trial,2249904.0,2252020.0,2116.0,6,R,2251857,2252267,412,485.0,554.8,4340,left
42,1,binary,7,2,fixationCross,2253221.0,2255204.0,1983.0,7,R,2252465,2252905,442,757.7,516.0,4415,NA
42,1,binary,7,2,trial,2253221.0,2255204.0,1983.0,7,R,2252933,2253371,440,929.4,578.9,4679,NA
42,1,binary,7,2,trial,2253221.0,2255204.0,1983.0,7,R,2253413,2253613,202,566.0,540.7,4624,left
42,1,binary,7,2,trial,2253221.0,2255204.0,1983.0,7,R,2253671,2254077,408,1383.0,627.3,4179,right
42,1,binary,7,2,trial,2253221.0,2255204.0,1983.0,7,R,2254141,2254537,398,577.6,519.3,4354,left
42,1,binary,7,2,trial,2253221.0,2255204.0,1983.0,7,R,2254599,2255129,532,1404.6,645.0,4326,right
42,1,binary,7,2,trial,2253221.0,2255204.0,1983.0,7,R,2255149,2255281,134,1315.8,616.1,4414,right
42,1,binary,7,2,trial,2253221.0,2255204.0,1983.0,7,R,2255341,2255515,176,677.3,529.1,4508,left
42,1,binary,8,1,fixationCross,2256370.0,2259720.0,3350.0,8,R,2255677,2256041,366,650.7,564.0,4659,left
42,1,binary,8,1,trial,2256370.0,2259720.0,3350.0,8,R,2256077,2256509,434,865.5,557.1,4675,NA
42,1,binary,8,1,trial,2256370.0,2259720.0,3350.0,8,R,2256547,2256721,176,588.2,512.6,4572,left
42,1,binary,8,1,trial,2256370.0,2259720.0,3350.0,8,R,2256737,2256971,236,537.3,533.0,4326,left
42,1,binary,8,1,trial,2256370.0,2259720.0,3350.0,8,R,2257031,2257259,230,1400.8,640.3,3887,right
42,1,binary,8,1,trial,2256370.0,2259720.0,3350.0,8,R,2257271,2257473,204,1442.1,640.7,3707,right
42,1,binary,8,1,trial,2256370.0,2259720.0,3350.0,8,R,2257495,2257765,272,1568.7,625.1,3678,right
42,1,binary,8,1,trial,2256370.0,2259720.0,3350.0,8,R,2257837,2258099,264,562.7,556.2,3976,left
42,1,binary,8,1,trial,2256370.0,2259720.0,3350.0,8,R,2258121,2258283,164,445.8,547.4,3954,left
42,1,binary,8,1,trial,2256370.0,2259720.0,3350.0,8,R,2258303,2258447,146,371.7,572.8,3855,left
42,1,binary,8,1,trial,2256370.0,2259720.0,3350.0,8,R,2258477,2258705,230,536.2,513.6,3732,left
42,1,binary,8,1,trial,2256370.0,2259720.0,3350.0,8,R,2258767,2259925,1160,1406.4,630.0,3946,right
42,1,binary,9,1,fixationCross,2260821.0,2262920.0,2099.0,9,R,2260171,2260529,360,785.5,610.5,4656,NA
42,1,binary,9,1,trial,2260821.0,2262920.0,2099.0,9,R,2260555,2260959,406,897.2,591.7,4723,NA
42,1,binary,9,1,trial,2260821.0,2262920.0,2099.0,9,R,2260997,2261191,196,580.5,553.8,4565,left
42,1,binary,9,1,trial,2260821.0,2262920.0,2099.0,9,R,2261215,2261481,268,441.5,574.1,4293,left
42,1,binary,9,1,trial,2260821.0,2262920.0,2099.0,9,R,2261499,2261657,160,366.9,571.2,4105,left
42,1,binary,9,1,trial,2260821.0,2262920.0,2099.0,9,R,2261725,2262041,318,1396.8,637.1,3829,right
42,1,binary,9,1,trial,2260821.0,2262920.0,2099.0,9,R,2262055,2262327,274,1437.0,651.5,3807,right
42,1,binary,9,1,trial,2260821.0,2262920.0,2099.0,9,R,2262337,2262727,392,1413.2,618.4,3776,right
42,1,binary,9,1,trial,2260821.0,2262920.0,2099.0,9,R,2262807,2263127,322,450.2,548.7,3926,left
42,1,binary,10,2,fixationCross,2263954.0,2267371.0,3417.0,10,R,2263347,2263655,310,619.8,555.9,4072,left
42,1,binary,10,2,trial,2263954.0,2267371.0,3417.0,10,R,2263693,2264127,436,934.9,581.9,4308,NA
42,1,binary,10,2,trial,2263954.0,2267371.0,3417.0,10,R,2264181,2264337,158,526.4,573.2,4394,left
42,1,binary,10,2,trial,2263954.0,2267371.0,3417.0,10,R,2264359,2264583,226,446.3,501.1,4095,left
42,1,binary,10,2,trial,2263954.0,2267371.0,3417.0,10,R,2264647,2264903,258,1359.2,623.0,3881,right
42,1,binary,10,2,trial,2263954.0,2267371.0,3417.0,10,R,2264925,2265195,272,1479.6,586.3,3839,right
42,1,binary,10,2,trial,2263954.0,2267371.0,3417.0,10,R,2265213,2265541,330,1452.7,658.1,3897,right
42,1,binary,10,2,trial,2263954.0,2267371.0,3417.0,10,R,2265573,2265749,178,1311.1,585.1,3992,right
42,1,binary,10,2,trial,2263954.0,2267371.0,3417.0,10,R,2265811,2266109,300,480.8,543.8,4265,left
42,1,binary,10,2,trial,2263954.0,2267371.0,3417.0,10,R,2266127,2266883,758,436.8,528.7,4233,left
42,1,binary,10,2,trial,2263954.0,2267371.0,3417.0,10,R,2266955,2267191,238,1432.3,736.0,4371,NA
42,1,binary,10,2,trial,2263954.0,2267371.0,3417.0,10,R,2267213,2267229,18,1482.3,711.6,4399,right
42,1,binary,10,2,trial,2263954.0,2267371.0,3417.0,10,R,2267249,2267587,340,1432.8,646.0,4408,right
42,1,binary,11,1,fixationCross,2268554.0,2271171.0,2617.0,11,R,2267793,2268223,432,1203.9,681.9,4623,right
42,1,binary,11,1,trial,2268554.0,2271171.0,2617.0,11,R,2268255,2268691,438,959.5,601.4,4816,NA
42,1,binary,11,1,trial,2268554.0,2271171.0,2617.0,11,R,2268737,2268961,226,535.5,560.3,4673,left
42,1,binary,11,1,trial,2268554.0,2271171.0,2617.0,11,R,2268979,2269161,184,464.3,571.8,4345,left
42,1,binary,11,1,trial,2268554.0,2271171.0,2617.0,11,R,2269185,2269435,252,575.9,530.0,4145,left
42,1,binary,11,1,trial,2268554.0,2271171.0,2617.0,11,R,2269497,2269647,152,1423.7,628.8,3985,right
42,1,binary,11,1,trial,2268554.0,2271171.0,2617.0,11,R,2269673,2269927,256,1321.9,577.0,4116,right
42,1,binary,11,1,trial,2268554.0,2271171.0,2617.0,11,R,2269947,2270811,866,1392.0,635.9,4448,right
42,1,binary,11,1,trial,2268554.0,2271171.0,2617.0,11,R,2270887,2271041,156,479.3,691.7,4725,left
42,1,binary,11,1,trial,2268554.0,2271171.0,2617.0,11,R,2271085,2271377,294,472.7,511.4,4517,left
42,1,binary,12,1,fixationCross,2273987.0,2275854.0,1867.0,12,R,2271597,2271991,396,563.6,561.8,4385,left
42,1,binary,12,1,fixationCross,2273987.0,2275854.0,1867.0,12,R,2272031,2273043,1014,824.0,550.6,4363,NA
42,1,binary,12,1,fixationCross,2273987.0,2275854.0,1867.0,12,R,2273065,2273677,614,753.0,537.1,4622,NA
42,1,binary,12,1,fixationCross,2273987.0,2275854.0,1867.0,12,R,2273717,2273897,182,969.0,565.0,4585,NA
42,1,binary,12,1,trial,2273987.0,2275854.0,1867.0,12,R,2273909,2274151,244,936.0,563.3,4639,NA
42,1,binary,12,1,trial,2273987.0,2275854.0,1867.0,12,R,2274197,2274553,358,565.3,532.4,4546,left
42,1,binary,12,1,trial,2273987.0,2275854.0,1867.0,12,R,2274615,2274847,234,1367.6,633.1,3940,right
42,1,binary,12,1,trial,2273987.0,2275854.0,1867.0,12,R,2274859,2275219,362,1395.7,644.8,3817,right
42,1,binary,12,1,trial,2273987.0,2275854.0,1867.0,12,R,2275289,2275615,328,557.3,518.3,3946,left
42,1,binary,12,1,trial,2273987.0,2275854.0,1867.0,12,R,2275663,2275899,238,466.5,995.4,4000,NA
42,1,binary,12,1,postResponse,2273987.0,2275854.0,1867.0,12,R,2276117,2276187,72,669.6,551.1,3894,left
42,1,binary,13,2,fixationCross,2276970.0,2279471.0,2501.0,13,R,2276289,2276437,150,656.5,530.9,4090,left
42,1,binary,13,2,fixationCross,2276970.0,2279471.0,2501.0,13,R,2276457,2276637,182,569.0,519.3,4317,left
42,1,binary,13,2,trial,2276970.0,2279471.0,2501.0,13,R,2276677,2277135,460,945.2,556.5,4228,NA
42,1,binary,13,2,trial,2276970.0,2279471.0,2501.0,13,R,2277179,2277463,286,533.3,527.4,4297,left
42,1,binary,13,2,trial,2276970.0,2279471.0,2501.0,13,R,2277481,2277635,156,471.5,521.6,4068,left
42,1,binary,13,2,trial,2276970.0,2279471.0,2501.0,13,R,2277705,2277911,208,1476.8,649.4,3853,right
42,1,binary,13,2,trial,2276970.0,2279471.0,2501.0,13,R,2277925,2278241,318,1510.2,637.5,3823,right
42,1,binary,13,2,trial,2276970.0,2279471.0,2501.0,13,R,2278267,2278459,194,1311.2,607.9,4011,right
42,1,binary,13,2,trial,2276970.0,2279471.0,2501.0,13,R,2278477,2278655,180,1231.8,593.1,4051,right
42,1,binary,13,2,trial,2276970.0,2279471.0,2501.0,13,R,2278715,2279011,298,474.7,522.9,4121,left
42,1,binary,13,2,trial,2276970.0,2279471.0,2501.0,13,R,2279037,2279161,126,626.7,539.8,4083,left
42,1,binary,13,2,trial,2276970.0,2279471.0,2501.0,13,R,2279219,2279381,164,1410.1,876.9,3958,NA
42,1,binary,13,2,trial,2276970.0,2279471.0,2501.0,13,R,2279399,2279709,312,1435.1,929.9,4014,NA
42,1,binary,14,1,trial,2280421.0,2282571.0,2150.0,14,R,2280059,2280565,508,893.5,596.5,4609,NA
42,1,binary,14,1,trial,2280421.0,2282571.0,2150.0,14,R,2280607,2280761,156,487.7,572.0,4476,left
42,1,binary,14,1,trial,2280421.0,2282571.0,2150.0,14,R,2280781,2280909,130,414.3,578.8,4312,left
42,1,binary,14,1,trial,2280421.0,2282571.0,2150.0,14,R,2280927,2281115,190,472.1,591.2,4139,left
42,1,binary,14,1,trial,2280421.0,2282571.0,2150.0,14,R,2281179,2281717,540,1399.1,634.7,3859,right
42,1,binary,14,1,trial,2280421.0,2282571.0,2150.0,14,R,2281747,2281951,206,1255.4,586.6,3860,right
42,1,binary,14,1,trial,2280421.0,2282571.0,2150.0,14,R,2282025,2282223,200,422.6,578.4,4001,left
42,1,binary,14,1,trial,2280421.0,2282571.0,2150.0,14,R,2282237,2282601,366,462.0,560.5,4017,left
42,1,binary,14,1,trial,2280421.0,2282571.0,2150.0,14,R,2282613,2282807,196,436.6,537.7,3982,left
42,1,binary,15,1,fixationCross,2283687.0,2286088.0,2401.0,15,R,2283025,2283381,358,699.7,592.4,4053,left
42,1,binary,15,1,trial,2283687.0,2286088.0,2401.0,15,R,2283413,2283821,410,894.0,576.2,4344,NA
42,1,binary,15,1,trial,2283687.0,2286088.0,2401.0,15,R,2283861,2284119,260,547.3,555.7,4243,left
42,1,binary,15,1,trial,2283687.0,2286088.0,2401.0,15,R,2284135,2284323,190,597.3,541.7,4017,left
42,1,binary,15,1,trial,2283687.0,2286088.0,2401.0,15,R,2284345,2284503,160,486.2,540.2,3813,left
42,1,binary,15,1,trial,2283687.0,2286088.0,2401.0,15,R,2284565,2284887,324,1353.9,612.5,3582,right
42,1,binary,15,1,trial,2283687.0,2286088.0,2401.0,15,R,2284913,2285267,356,1485.9,641.2,3832,right
42,1,binary,15,1,trial,2283687.0,2286088.0,2401.0,15,R,2285345,2285575,232,456.3,559.3,4098,left
42,1,binary,15,1,trial,2283687.0,2286088.0,2401.0,15,R,2285599,2285757,160,569.1,526.8,3991,left
42,1,binary,15,1,trial,2283687.0,2286088.0,2401.0,15,R,2285771,2286023,254,610.0,518.5,3838,left
42,1,binary,15,1,trial,2283687.0,2286088.0,2401.0,15,R,2286049,2286301,254,465.9,522.2,3699,left
42,1,binary,16,1,fixationCross,2287187.0,2289921.0,2734.0,16,R,2286533,2286877,346,587.9,581.8,3730,left
42,1,binary,16,1,trial,2287187.0,2289921.0,2734.0,16,R,2286915,2287327,414,902.0,556.5,4046,NA
42,1,binary,16,1,trial,2287187.0,2289921.0,2734.0,16,R,2287367,2287677,312,581.4,529.5,4013,left
42,1,binary,16,1,trial,2287187.0,2289921.0,2734.0,16,R,2287691,2287827,138,621.9,517.8,3859,left
42,1,binary,16,1,trial,2287187.0,2289921.0,2734.0,16,R,2287887,2288573,688,1387.9,617.4,3868,right
42,1,binary,16,1,trial,2287187.0,2289921.0,2734.0,16,R,2288591,2289137,548,1434.0,654.6,4106,right
42,1,binary,16,1,trial,2287187.0,2289921.0,2734.0,16,R,2289205,2289949,746,566.8,526.0,4246,left
42,1,binary,16,1,trial,2287187.0,2289921.0,2734.0,16,R,2289961,2290119,160,518.0,523.0,4174,left
42,1,binary,17,2,fixationCross,2292688.0,2295104.0,2416.0,17,R,2290343,2291763,1422,687.5,559.7,4382,left
42,1,binary,17,2,fixationCross,2292688.0,2295104.0,2416.0,17,R,2291779,2292147,370,615.2,539.5,4511,left
42,1,binary,17,2,fixationCross,2292688.0,2295104.0,2416.0,17,R,2292187,2292227,42,859.7,511.8,4409,NA
42,1,binary,17,2,fixationCross,2292688.0,2295104.0,2416.0,17,R,2292373,2292525,154,998.5,674.9,4366,NA
42,1,binary,17,2,trial,2292688.0,2295104.0,2416.0,17,R,2292537,2292833,298,951.9,614.8,4483,NA
42,1,binary,17,2,trial,2292688.0,2295104.0,2416.0,17,R,2292879,2293069,192,531.4,572.2,4441,left
42,1,binary,17,2,trial,2292688.0,2295104.0,2416.0,17,R,2293081,2293255,176,487.0,559.5,4083,left
42,1,binary,17,2,trial,2292688.0,2295104.0,2416.0,17,R,2293319,2293601,284,1361.6,617.4,3682,right
42,1,binary,17,2,trial,2292688.0,2295104.0,2416.0,17,R,2293619,2294375,758,1413.5,638.9,3720,right
42,1,binary,17,2,trial,2292688.0,2295104.0,2416.0,17,R,2294457,2295291,836,496.8,547.2,4053,left
42,1,binary,18,2,fixationCross,2296571.0,2299338.0,2767.0,18,R,2295523,2295847,326,1419.5,738.5,4008,NA
42,1,binary,18,2,trial,2296571.0,2299338.0,2767.0,18,R,2296025,2296715,692,894.1,607.8,4502,NA
42,1,binary,18,2,trial,2296571.0,2299338.0,2767.0,18,R,2296757,2297175,420,524.7,538.3,4136,left
42,1,binary,18,2,trial,2296571.0,2299338.0,2767.0,18,R,2297249,2297669,422,1422.1,635.2,3856,right
42,1,binary,18,2,trial,2296571.0,2299338.0,2767.0,18,R,2297683,2297915,234,1470.0,624.7,3783,right
42,1,binary,18,2,trial,2296571.0,2299338.0,2767.0,18,R,2297927,2298335,410,1487.3,644.4,3791,right
42,1,binary,18,2,trial,2296571.0,2299338.0,2767.0,18,R,2298409,2298829,422,523.1,529.4,4017,left
42,1,binary,18,2,trial,2296571.0,2299338.0,2767.0,18,R,2298895,2299535,642,1454.8,656.5,4037,right
42,1,binary,19,2,fixationCross,2301354.0,2302938.0,1584.0,19,R,2299881,2300551,672,803.2,573.7,4346,NA
42,1,binary,19,2,fixationCross,2301354.0,2302938.0,1584.0,19,R,2300579,2301035,458,647.3,523.9,4149,left
42,1,binary,19,2,trial,2301354.0,2302938.0,1584.0,19,R,2301073,2301503,432,928.4,540.2,4329,NA
42,1,binary,19,2,trial,2301354.0,2302938.0,1584.0,19,R,2301547,2301723,178,517.1,526.2,4497,left
42,1,binary,19,2,trial,2301354.0,2302938.0,1584.0,19,R,2301741,2301869,130,568.6,501.6,4232,left
42,1,binary,19,2,trial,2301354.0,2302938.0,1584.0,19,R,2301931,2302311,382,1434.0,626.4,3848,right
42,1,binary,19,2,trial,2301354.0,2302938.0,1584.0,19,R,2302321,2302799,480,1403.4,601.5,3791,right
42,1,binary,19,2,trial,2301354.0,2302938.0,1584.0,19,R,2302857,2303157,302,620.1,502.9,4123,left
42,1,binary,20,2,fixationCross,2304121.0,2305788.0,1667.0,20,R,2303387,2303419,34,758.4,590.3,4128,NA
42,1,binary,20,2,fixationCross,2304121.0,2305788.0,1667.0,20,R,2303461,2303803,344,1060.5,597.3,4249,NA
42,1,binary,20,2,fixationCross,2304121.0,2305788.0,1667.0,20,R,2303825,2304091,268,948.4,556.5,4423,NA
42,1,binary,20,2,trial,2304121.0,2305788.0,1667.0,20,R,2304263,2304387,126,862.4,620.6,4204,NA
42,1,binary,20,2,trial,2304121.0,2305788.0,1667.0,20,R,2304429,2304725,298,558.4,559.2,4320,left
42,1,binary,20,2,trial,2304121.0,2305788.0,1667.0,20,R,2304783,2305019,238,1379.0,603.8,3720,right
42,1,binary,20,2,trial,2304121.0,2305788.0,1667.0,20,R,2305037,2306071,1036,1449.3,617.1,3494,right
42,1,binary,21,1,fixationCross,2308671.0,2310571.0,1900.0,21,R,2306247,2306877,632,849.7,565.7,4022,NA
42,1,binary,21,1,fixationCross,2308671.0,2310571.0,1900.0,21,R,2306921,2307375,456,600.5,509.4,4082,left
42,1,binary,21,1,fixationCross,2308671.0,2310571.0,1900.0,21,R,2307401,2307851,452,452.8,515.2,4188,left
42,1,binary,21,1,fixationCross,2308671.0,2310571.0,1900.0,21,R,2307895,2308357,464,815.5,511.6,4287,NA
42,1,binary,21,1,trial,2308671.0,2310571.0,1900.0,21,R,2308377,2308809,434,920.7,526.1,4554,NA
42,1,binary,21,1,trial,2308671.0,2310571.0,1900.0,21,R,2308853,2309259,408,539.2,503.5,4249,left
42,1,binary,21,1,trial,2308671.0,2310571.0,1900.0,21,R,2309323,2309529,208,1432.1,602.2,3628,right
42,1,binary,21,1,trial,2308671.0,2310571.0,1900.0,21,R,2309547,2309863,318,1497.2,612.9,3456,right
42,1,binary,21,1,trial,2308671.0,2310571.0,1900.0,21,R,2309931,2310137,208,602.3,502.1,3634,left
42,1,binary,21,1,trial,2308671.0,2310571.0,1900.0,21,R,2310165,2310581,418,446.9,506.6,3701,left
42,1,binary,21,1,trial,2308671.0,2310571.0,1900.0,21,R,2310599,2310783,186,522.9,483.3,3774,left
42,1,binary,22,2,fixationCross,2311638.0,2313438.0,1800.0,22,R,2310999,2311337,340,1123.3,607.5,3769,NA
42,1,binary,22,2,fixationCross,2311638.0,2313438.0,1800.0,22,R,2311367,2311563,198,953.9,555.6,4221,NA
42,1,binary,22,2,trial,2311638.0,2313438.0,1800.0,22,R,2311575,2311783,210,930.5,542.1,4415,NA
42,1,binary,22,2,trial,2311638.0,2313438.0,1800.0,22,R,2311835,2312107,274,538.1,512.2,4348,left
42,1,binary,22,2,trial,2311638.0,2313438.0,1800.0,22,R,2312141,2312455,316,343.0,506.8,3932,left
42,1,binary,22,2,trial,2311638.0,2313438.0,1800.0,22,R,2312527,2312809,284,1447.7,628.5,4018,right
42,1,binary,22,2,trial,2311638.0,2313438.0,1800.0,22,R,2312821,2313303,484,1443.7,644.9,4210,right
42,1,binary,22,2,trial,2311638.0,2313438.0,1800.0,22,R,2313383,2313701,320,523.1,547.5,4243,left
42,1,binary,23,2,fixationCross,2314555.0,2319121.0,4566.0,23,R,2313867,2314209,344,608.0,558.4,4133,left
42,1,binary,23,2,trial,2314555.0,2319121.0,4566.0,23,R,2314247,2314689,444,922.2,558.3,4187,NA
42,1,binary,23,2,trial,2314555.0,2319121.0,4566.0,23,R,2314731,2315177,448,549.2,531.3,4018,left
42,1,binary,23,2,trial,2314555.0,2319121.0,4566.0,23,R,2315239,2315485,248,1369.9,608.1,3696,right
42,1,binary,23,2,trial,2314555.0,2319121.0,4566.0,23,R,2315501,2315963,464,1451.3,620.4,3624,right
42,1,binary,23,2,trial,2314555.0,2319121.0,4566.0,23,R,2316037,2316331,296,478.5,540.0,3646,left
42,1,binary,23,2,trial,2314555.0,2319121.0,4566.0,23,R,2316351,2316651,302,567.2,532.9,3654,left
42,1,binary,23,2,trial,2314555.0,2319121.0,4566.0,23,R,2316673,2317035,364,460.4,516.8,3646,left
42,1,binary,23,2,trial,2314555.0,2319121.0,4566.0,23,R,2317103,2317615,514,1420.6,616.4,3742,right
42,1,binary,23,2,trial,2314555.0,2319121.0,4566.0,23,R,2317627,2317957,332,1378.3,610.9,4038,right
42,1,binary,23,2,trial,2314555.0,2319121.0,4566.0,23,R,2318025,2318651,628,505.2,552.3,4174,left
42,1,binary,23,2,trial,2314555.0,2319121.0,4566.0,23,R,2318715,2319319,606,1358.8,616.2,4125,right
42,1,binary,24,1,fixationCross,2320121.0,2322438.0,2317.0,24,R,2319569,2319781,214,1185.4,631.8,4433,right
42,1,binary,24,1,trial,2320121.0,2322438.0,2317.0,24,R,2319821,2320171,352,945.8,581.7,4748,NA
42,1,binary,24,1,trial,2320121.0,2322438.0,2317.0,24,R,2320193,2320277,86,879.2,564.2,4664,NA
42,1,binary,24,1,trial,2320121.0,2322438.0,2317.0,24,R,2320321,2320611,292,456.4,544.4,4419,left
42,1,binary,24,1,trial,2320121.0,2322438.0,2317.0,24,R,2320625,2320947,324,408.9,543.5,4051,left
42,1,binary,24,1,trial,2320121.0,2322438.0,2317.0,24,R,2321015,2321335,322,1373.4,615.8,3744,right
42,1,binary,24,1,trial,2320121.0,2322438.0,2317.0,24,R,2321355,2321641,288,1305.3,588.8,3727,right
42,1,binary,24,1,trial,2320121.0,2322438.0,2317.0,24,R,2321709,2321999,292,473.1,516.0,3771,left
42,1,binary,24,1,trial,2320121.0,2322438.0,2317.0,24,R,2322017,2322575,560,397.0,519.0,3719,left
42,1,binary,24,1,postResponse,2320121.0,2322438.0,2317.0,24,R,2322753,2322787,36,836.2,596.2,3650,NA
42,1,binary,25,2,fixationCross,2325188.0,2328205.0,3017.0,25,R,2322887,2324031,1146,823.2,549.7,3917,NA
42,1,binary,25,2,fixationCross,2325188.0,2328205.0,3017.0,25,R,2324053,2324639,588,737.5,519.4,4217,NA
42,1,binary,25,2,fixationCross,2325188.0,2328205.0,3017.0,25,R,2324665,2324881,218,554.6,525.6,4257,left
42,1,binary,25,2,fixationCross,2325188.0,2328205.0,3017.0,25,R,2324921,2325095,176,897.9,535.1,4199,NA
42,1,binary,25,2,trial,2325188.0,2328205.0,3017.0,25,R,2325107,2325353,248,932.2,543.2,4341,NA
42,1,binary,25,2,trial,2325188.0,2328205.0,3017.0,25,R,2325403,2325601,200,475.7,527.9,4471,left
42,1,binary,25,2,trial,2325188.0,2328205.0,3017.0,25,R,2325611,2325935,326,441.3,518.2,4050,left
42,1,binary,25,2,trial,2325188.0,2328205.0,3017.0,25,R,2326001,2326215,216,1385.9,602.2,3914,right
42,1,binary,25,2,trial,2325188.0,2328205.0,3017.0,25,R,2326233,2326623,392,1405.6,575.7,3796,right
42,1,binary,25,2,trial,2325188.0,2328205.0,3017.0,25,R,2326765,2327057,294,1424.7,679.6,3506,right
42,1,binary,25,2,trial,2325188.0,2328205.0,3017.0,25,R,2327127,2327629,504,427.3,553.1,3560,left
42,1,binary,25,2,trial,2325188.0,2328205.0,3017.0,25,R,2327703,2328267,566,1496.2,656.7,3686,right
42,1,binary,25,2,trial,2325188.0,2328205.0,3017.0,25,R,2328291,2328451,162,1409.3,613.6,3982,right
42,1,binary,26,2,fixationCross,2416673.0,2420106.0,3433.0,26,R,2415974,2416076,104,1074.3,638.9,4685,NA
42,1,binary,26,2,fixationCross,2416673.0,2420106.0,3433.0,26,R,2416128,2416358,232,932.6,163.1,4602,NA
42,1,binary,26,2,fixationCross,2416673.0,2420106.0,3433.0,26,R,2416410,2416568,160,988.7,562.5,4646,NA
42,1,binary,26,2,trial,2416673.0,2420106.0,3433.0,26,R,2416580,2416922,344,975.5,550.4,4674,NA
42,1,binary,26,2,trial,2416673.0,2420106.0,3433.0,26,R,2416964,2417320,358,1351.2,607.0,4108,right
42,1,binary,26,2,trial,2416673.0,2420106.0,3433.0,26,R,2417384,2417526,144,489.6,456.7,3888,left
42,1,binary,26,2,trial,2416673.0,2420106.0,3433.0,26,R,2417576,2417730,156,908.7,936.1,3896,likertHorizontal
42,1,binary,26,2,trial,2416673.0,2420106.0,3433.0,26,R,2417784,2418138,356,460.1,491.5,3930,left
42,1,binary,26,2,trial,2416673.0,2420106.0,3433.0,26,R,2418156,2418472,318,519.6,499.3,3972,left
42,1,binary,26,2,trial,2416673.0,2420106.0,3433.0,26,R,2418498,2418738,242,392.1,511.6,3799,left
42,1,binary,26,2,trial,2416673.0,2420106.0,3433.0,26,R,2418752,2419214,464,439.4,502.8,3851,left
42,1,binary,26,2,trial,2416673.0,2420106.0,3433.0,26,R,2419280,2419692,414,1365.1,608.0,3756,right
42,1,binary,26,2,trial,2416673.0,2420106.0,3433.0,26,R,2419740,2419862,124,1448.9,913.7,3765,NA
42,1,binary,26,2,trial,2416673.0,2420106.0,3433.0,26,R,2419908,2420322,416,1406.9,580.8,3848,right
42,1,binary,27,2,fixationCross,2421806.0,2425023.0,3217.0,27,R,2420542,2420738,198,986.8,510.2,3960,NA
42,1,binary,27,2,fixationCross,2421806.0,2425023.0,3217.0,27,R,2420782,2421022,242,714.7,524.6,4224,left
42,1,binary,27,2,fixationCross,2421806.0,2425023.0,3217.0,27,R,2421234,2421548,316,820.9,480.7,4125,NA
42,1,binary,27,2,trial,2421806.0,2425023.0,3217.0,27,R,2421578,2421824,248,979.0,578.6,4395,NA
42,1,binary,27,2,trial,2421806.0,2425023.0,3217.0,27,R,2421938,2422036,100,968.8,525.0,4232,NA
42,1,binary,27,2,trial,2421806.0,2425023.0,3217.0,27,R,2422080,2422226,148,589.9,475.1,4250,left
42,1,binary,27,2,trial,2421806.0,2425023.0,3217.0,27,R,2422260,2422404,146,555.1,298.6,4170,NA
42,1,binary,27,2,trial,2421806.0,2425023.0,3217.0,27,R,2422426,2422644,220,539.2,292.0,3859,NA
42,1,binary,27,2,trial,2421806.0,2425023.0,3217.0,27,R,2422706,2423030,326,1391.5,636.3,3651,right
42,1,binary,27,2,trial,2421806.0,2425023.0,3217.0,27,R,2423052,2423180,130,1466.9,608.7,3544,right
42,1,binary,27,2,trial,2421806.0,2425023.0,3217.0,27,R,2423248,2423686,440,536.9,357.7,3386,left
42,1,binary,27,2,trial,2421806.0,2425023.0,3217.0,27,R,2423752,2424110,360,1414.9,625.4,3445,right
42,1,binary,27,2,trial,2421806.0,2425023.0,3217.0,27,R,2424126,2425008,884,1487.1,638.2,3317,right
42,1,binary,27,2,trial,2421806.0,2425023.0,3217.0,27,R,2425078,2425304,228,566.9,371.7,3872,left
42,1,binary,28,2,fixationCross,2426189.0,2429389.0,3200.0,28,R,2425476,2425896,422,884.8,437.0,4008,NA
42,1,binary,28,2,trial,2426189.0,2429389.0,3200.0,28,R,2425920,2426326,408,951.3,536.4,4322,NA
42,1,binary,28,2,trial,2426189.0,2429389.0,3200.0,28,R,2426372,2426808,438,528.4,490.0,4072,left
42,1,binary,28,2,trial,2426189.0,2429389.0,3200.0,28,R,2426834,2426952,120,374.2,530.0,3651,left
42,1,binary,28,2,trial,2426189.0,2429389.0,3200.0,28,R,2427018,2427256,240,1395.4,583.4,3488,right
42,1,binary,28,2,trial,2426189.0,2429389.0,3200.0,28,R,2427290,2427658,370,1548.4,463.0,3478,right
42,1,binary,28,2,trial,2426189.0,2429389.0,3200.0,28,R,2427690,2428250,562,1513.1,639.9,3414,right
42,1,binary,28,2,trial,2426189.0,2429389.0,3200.0,28,R,2428264,2428398,136,1472.1,644.2,3409,right
42,1,binary,28,2,trial,2426189.0,2429389.0,3200.0,28,R,2428468,2428854,388,492.7,494.4,3503,left
42,1,binary,28,2,trial,2426189.0,2429389.0,3200.0,28,R,2428924,2429420,498,1431.5,597.8,3470,right
42,1,binary,28,2,trial,2426189.0,2429389.0,3200.0,28,R,2429452,2429592,142,1515.3,532.3,3594,right
42,1,binary,29,2,fixationCross,2431206.0,2434306.0,3100.0,29,R,2429814,2430894,1082,799.0,541.6,4070,NA
42,1,binary,29,2,trial,2431206.0,2434306.0,3100.0,29,R,2430926,2431346,422,930.4,518.6,4201,NA
42,1,binary,29,2,trial,2431206.0,2434306.0,3100.0,29,R,2431390,2431594,206,551.8,480.8,4288,left
42,1,binary,29,2,trial,2431206.0,2434306.0,3100.0,29,R,2431614,2431994,382,591.1,502.6,3912,left
42,1,binary,29,2,trial,2431206.0,2434306.0,3100.0,29,R,2432056,2432424,370,1451.6,629.9,3700,right
42,1,binary,29,2,trial,2431206.0,2434306.0,3100.0,29,R,2432436,2432628,194,1475.2,643.1,3695,right
42,1,binary,29,2,trial,2431206.0,2434306.0,3100.0,29,R,2432704,2433006,304,508.4,505.8,3760,left
42,1,binary,29,2,trial,2431206.0,2434306.0,3100.0,29,R,2433032,2433408,378,622.5,483.8,3810,left
42,1,binary,29,2,trial,2431206.0,2434306.0,3100.0,29,R,2433434,2433688,256,420.3,500.4,3854,left
42,1,binary,29,2,trial,2431206.0,2434306.0,3100.0,29,R,2433756,2433982,228,1372.9,627.3,3774,right
42,1,binary,29,2,trial,2431206.0,2434306.0,3100.0,29,R,2434002,2434492,492,1451.4,631.2,3884,right
42,1,binary,30,1,fixationCross,2435240.0,2438389.0,3149.0,30,R,2434742,2435162,422,1003.7,602.3,3942,NA
42,1,binary,30,1,trial,2435240.0,2438389.0,3149.0,30,R,2435172,2435382,212,981.0,558.1,4284,NA
42,1,binary,30,1,trial,2435240.0,2438389.0,3149.0,30,R,2435426,2435816,392,556.0,463.3,3974,left
42,1,binary,30,1,trial,2435240.0,2438389.0,3149.0,30,R,2435882,2436170,290,1400.2,637.7,3442,right
42,1,binary,30,1,trial,2435240.0,2438389.0,3149.0,30,R,2436198,2436524,328,1306.6,532.9,3533,right
42,1,binary,30,1,trial,2435240.0,2438389.0,3149.0,30,R,2436554,2436824,272,1502.0,642.6,3681,right
42,1,binary,30,1,trial,2435240.0,2438389.0,3149.0,30,R,2436836,2437058,224,1465.3,626.5,3692,right
42,1,binary,30,1,trial,2435240.0,2438389.0,3149.0,30,R,2437132,2437530,400,505.2,441.0,3708,left
42,1,binary,30,1,trial,2435240.0,2438389.0,3149.0,30,R,2437602,2437784,184,1419.3,639.2,3701,right
42,1,binary,30,1,trial,2435240.0,2438389.0,3149.0,30,R,2437796,2437966,172,1453.8,622.9,3826,right
42,1,binary,30,1,trial,2435240.0,2438389.0,3149.0,30,R,2438002,2438168,168,1292.7,485.7,3872,right
42,1,binary,30,1,trial,2435240.0,2438389.0,3149.0,30,R,2438230,2438596,368,493.2,434.1,3882,left
42,1,binary,31,2,fixationCross,2439472.0,2442073.0,2601.0,31,R,2438812,2439194,384,851.1,490.3,3860,NA
42,1,binary,31,2,trial,2439472.0,2442073.0,2601.0,31,R,2439214,2439632,420,935.1,492.7,4060,NA
42,1,binary,31,2,trial,2439472.0,2442073.0,2601.0,31,R,2439676,2439920,246,579.3,460.3,4055,left
42,1,binary,31,2,trial,2439472.0,2442073.0,2601.0,31,R,2439978,2440260,284,1395.7,593.2,3718,right
42,1,binary,31,2,trial,2439472.0,2442073.0,2601.0,31,R,2440274,2440592,320,1440.6,600.2,3566,right
42,1,binary,31,2,trial,2439472.0,2442073.0,2601.0,31,R,2440610,2441050,442,1498.6,608.7,3666,right
42,1,binary,31,2,trial,2439472.0,2442073.0,2601.0,31,R,2441118,2441514,398,612.6,448.8,3872,left
42,1,binary,31,2,trial,2439472.0,2442073.0,2601.0,31,R,2441574,2441824,252,1335.4,606.0,3858,right
42,1,binary,31,2,trial,2439472.0,2442073.0,2601.0,31,R,2441846,2442058,214,1398.0,656.1,3921,right
42,1,binary,31,2,trial,2439472.0,2442073.0,2601.0,31,R,2442080,2442316,238,1429.5,583.9,3893,right
42,1,binary,32,2,fixationCross,2443089.0,2444856.0,1767.0,32,R,2442496,2442866,372,1059.5,590.9,3988,NA
42,1,binary,32,2,trial,2443089.0,2444856.0,1767.0,32,R,2442888,2443228,342,957.8,523.2,4193,NA
42,1,binary,32,2,trial,2443089.0,2444856.0,1767.0,32,R,2443272,2443406,136,534.2,492.8,4156,left
42,1,binary,32,2,trial,2443089.0,2444856.0,1767.0,32,R,2443428,2443598,172,492.2,432.6,3936,left
42,1,binary,32,2,trial,2443089.0,2444856.0,1767.0,32,R,2443622,2443732,112,536.6,476.2,3755,left
42,1,binary,32,2,trial,2443089.0,2444856.0,1767.0,32,R,2443796,2444620,826,1466.0,637.4,3647,right
42,1,binary,32,2,trial,2443089.0,2444856.0,1767.0,32,R,2444700,2445060,362,473.6,478.6,4005,left
42,1,binary,33,2,fixationCross,2445923.0,2449123.0,3200.0,33,R,2445276,2445618,344,1175.9,603.0,3946,NA
42,1,binary,33,2,trial,2445923.0,2449123.0,3200.0,33,R,2445648,2446058,412,975.1,531.8,4170,NA
42,1,binary,33,2,trial,2445923.0,2449123.0,3200.0,33,R,2446102,2446406,306,538.1,481.0,4028,left
42,1,binary,33,2,trial,2445923.0,2449123.0,3200.0,33,R,2446430,2446768,340,410.2,461.7,3932,left
42,1,binary,33,2,trial,2445923.0,2449123.0,3200.0,33,R,2446840,2447078,240,1500.0,597.2,3951,right
42,1,binary,33,2,trial,2445923.0,2449123.0,3200.0,33,R,2447096,2447436,342,1436.2,588.6,3981,right
42,1,binary,33,2,trial,2445923.0,2449123.0,3200.0,33,R,2447512,2447800,290,442.4,477.0,4128,left
42,1,binary,33,2,trial,2445923.0,2449123.0,3200.0,33,R,2447822,2448240,420,538.4,467.0,4110,left
42,1,binary,33,2,trial,2445923.0,2449123.0,3200.0,33,R,2448310,2448870,562,1459.8,704.9,4209,right
42,1,binary,33,2,trial,2445923.0,2449123.0,3200.0,33,R,2448902,2449000,100,1442.6,907.5,4529,NA
42,1,binary,33,2,trial,2445923.0,2449123.0,3200.0,33,R,2449074,2449350,278,451.5,489.7,4510,left
42,1,binary,34,2,trial,2450073.0,2453206.0,3133.0,34,R,2449566,2450264,700,974.9,572.1,4387,NA
42,1,binary,34,2,trial,2450073.0,2453206.0,3133.0,34,R,2450308,2450484,178,564.2,505.4,4366,left
42,1,binary,34,2,trial,2450073.0,2453206.0,3133.0,34,R,2450514,2450684,172,426.0,504.6,4031,left
42,1,binary,34,2,trial,2450073.0,2453206.0,3133.0,34,R,2450708,2450824,118,317.8,531.2,3917,left
42,1,binary,34,2,trial,2450073.0,2453206.0,3133.0,34,R,2450892,2451138,248,1358.7,604.6,3769,right
42,1,binary,34,2,trial,2450073.0,2453206.0,3133.0,34,R,2451158,2451402,246,1346.4,548.4,3823,right
42,1,binary,34,2,trial,2450073.0,2453206.0,3133.0,34,R,2451426,2451796,372,1477.5,632.7,3918,right
42,1,binary,34,2,trial,2450073.0,2453206.0,3133.0,34,R,2451820,2451912,94,1532.1,572.3,3886,right
42,1,binary,34,2,trial,2450073.0,2453206.0,3133.0,34,R,2451986,2452238,254,470.7,472.8,4088,left
42,1,binary,34,2,trial,2450073.0,2453206.0,3133.0,34,R,2452266,2452556,292,338.3,505.2,4065,left
42,1,binary,34,2,trial,2450073.0,2453206.0,3133.0,34,R,2452598,2452768,172,507.0,924.0,4046,NA
42,1,binary,34,2,trial,2450073.0,2453206.0,3133.0,34,R,2452838,2453146,310,1445.9,636.2,3962,right
42,1,binary,34,2,trial,2450073.0,2453206.0,3133.0,34,R,2453176,2453300,126,1403.2,601.8,4166,right
42,1,binary,34,2,trial,2450073.0,2453206.0,3133.0,34,R,2453322,2453442,122,1345.8,575.0,4232,right
42,1,binary,35,1,fixationCross,2454256.0,2456540.0,2284.0,35,R,2453624,2453962,340,1084.8,571.9,4205,NA
42,1,binary,35,1,trial,2454256.0,2456540.0,2284.0,35,R,2453986,2454392,408,954.0,561.7,4557,NA
42,1,binary,35,1,trial,2454256.0,2456540.0,2284.0,35,R,2454436,2454616,182,536.8,496.4,4322,left
42,1,binary,35,1,trial,2454256.0,2456540.0,2284.0,35,R,2454636,2454944,310,472.3,463.5,4086,left
42,1,binary,35,1,trial,2454256.0,2456540.0,2284.0,35,R,2455012,2455324,314,1441.3,642.1,3953,right
42,1,binary,35,1,trial,2454256.0,2456540.0,2284.0,35,R,2455354,2455596,244,1374.6,572.0,4101,right
42,1,binary,35,1,trial,2454256.0,2456540.0,2284.0,35,R,2455620,2455914,296,1462.7,661.2,4204,right
42,1,binary,35,1,trial,2454256.0,2456540.0,2284.0,35,R,2455990,2456296,308,520.5,464.4,4218,left
42,1,binary,35,1,trial,2454256.0,2456540.0,2284.0,35,R,2456310,2456746,438,460.1,461.3,4080,left
42,1,binary,36,1,fixationCross,2457640.0,2459840.0,2200.0,36,R,2456986,2457338,354,1255.6,652.1,3964,right
42,1,binary,36,1,fixationCross,2457640.0,2459840.0,2200.0,36,R,2457374,2457566,194,1004.3,559.9,4353,NA
42,1,binary,36,1,trial,2457640.0,2459840.0,2200.0,36,R,2457578,2457792,216,967.2,541.9,4317,NA
42,1,binary,36,1,trial,2457640.0,2459840.0,2200.0,36,R,2457836,2458548,714,541.1,468.1,4006,left
42,1,binary,36,1,trial,2457640.0,2459840.0,2200.0,36,R,2458610,2458906,298,1415.2,611.9,3632,right
42,1,binary,36,1,trial,2457640.0,2459840.0,2200.0,36,R,2458922,2459110,190,1364.3,588.0,3668,right
42,1,binary,36,1,trial,2457640.0,2459840.0,2200.0,36,R,2459176,2459354,180,531.2,470.2,3900,left
42,1,binary,36,1,trial,2457640.0,2459840.0,2200.0,36,R,2459396,2459558,164,824.8,924.8,3993,likertHorizontal
42,1,binary,36,1,trial,2457640.0,2459840.0,2200.0,36,R,2459594,2459762,170,488.8,929.9,4156,NA
42,1,binary,36,1,postResponse,2457640.0,2459840.0,2200.0,36,R,2459804,2460188,386,476.3,420.4,4234,left
42,1,binary,37,2,fixationCross,2460873.0,2462656.0,1783.0,37,R,2460262,2460540,280,475.4,419.9,4117,left
42,1,binary,37,2,fixationCross,2460873.0,2462656.0,1783.0,37,R,2460598,2460742,146,978.1,509.5,4196,NA
42,1,binary,37,2,trial,2460873.0,2462656.0,1783.0,37,R,2460758,2461162,406,961.8,485.1,4301,NA
42,1,binary,37,2,trial,2460873.0,2462656.0,1783.0,37,R,2461208,2461538,332,504.5,435.5,4197,left
42,1,binary,37,2,trial,2460873.0,2462656.0,1783.0,37,R,2461698,2461898,202,1469.6,680.8,3771,right
42,1,binary,37,2,trial,2460873.0,2462656.0,1783.0,37,R,2461922,2462448,528,1602.6,643.2,4059,right
42,1,binary,37,2,trial,2460873.0,2462656.0,1783.0,37,R,2462524,2462964,442,554.5,436.5,4195,left
42,1,binary,38,2,fixationCross,2463757.0,2466606.0,2849.0,38,R,2463162,2463444,284,1077.4,593.9,4107,NA
42,1,binary,38,2,trial,2463757.0,2466606.0,2849.0,38,R,2463466,2463900,436,965.1,518.8,4470,NA
42,1,binary,38,2,trial,2463757.0,2466606.0,2849.0,38,R,2463944,2464202,260,581.0,442.9,4301,left
42,1,binary,38,2,trial,2463757.0,2466606.0,2849.0,38,R,2464224,2464402,180,481.1,466.8,4065,left
42,1,binary,38,2,trial,2463757.0,2466606.0,2849.0,38,R,2464470,2464676,208,1390.9,581.3,3799,right
42,1,binary,38,2,trial,2463757.0,2466606.0,2849.0,38,R,2464694,2464960,268,1453.2,585.5,3739,right
42,1,binary,38,2,trial,2463757.0,2466606.0,2849.0,38,R,2464978,2465184,208,1376.6,587.3,3864,right
42,1,binary,38,2,trial,2463757.0,2466606.0,2849.0,38,R,2465194,2465636,444,1336.9,577.6,3929,right
42,1,binary,38,2,trial,2463757.0,2466606.0,2849.0,38,R,2465700,2466050,352,547.1,431.8,4024,left
42,1,binary,38,2,trial,2463757.0,2466606.0,2849.0,38,R,2466072,2466318,248,471.7,466.7,3984,left
42,1,binary,38,2,trial,2463757.0,2466606.0,2849.0,38,R,2466388,2466554,168,1375.1,569.9,3778,right
42,1,binary,38,2,trial,2463757.0,2466606.0,2849.0,38,R,2466574,2466828,256,1451.2,573.0,3805,right
42,1,binary,39,1,fixationCross,2467707.0,2470306.0,2599.0,39,R,2467054,2467398,346,1230.2,619.8,4065,right
42,1,binary,39,1,trial,2467707.0,2470306.0,2599.0,39,R,2467436,2467840,406,955.3,501.6,4322,NA
42,1,binary,39,1,trial,2467707.0,2470306.0,2599.0,39,R,2467884,2468140,258,574.5,429.5,4125,left
42,1,binary,39,1,trial,2467707.0,2470306.0,2599.0,39,R,2468152,2468414,264,551.3,422.5,3909,left
42,1,binary,39,1,trial,2467707.0,2470306.0,2599.0,39,R,2468474,2468678,206,1363.2,569.9,3730,right
42,1,binary,39,1,trial,2467707.0,2470306.0,2599.0,39,R,2468702,2469274,574,1482.6,609.9,3647,right
42,1,binary,39,1,trial,2467707.0,2470306.0,2599.0,39,R,2469340,2469768,430,572.0,408.8,3761,left
42,1,binary,39,1,trial,2467707.0,2470306.0,2599.0,39,R,2469796,2470020,226,424.8,398.2,3794,left
42,1,binary,39,1,trial,2467707.0,2470306.0,2599.0,39,R,2470044,2470212,170,529.6,381.0,3771,left
42,1,binary,39,1,trial,2467707.0,2470306.0,2599.0,39,R,2470276,2470500,226,1416.5,567.6,3702,right
42,1,binary,40,2,fixationCross,2471706.0,2473857.0,2151.0,40,R,2470728,2471372,646,704.3,461.5,4002,left
42,1,binary,40,2,trial,2471706.0,2473857.0,2151.0,40,R,2471400,2471846,448,918.3,451.7,3922,NA
42,1,binary,40,2,trial,2471706.0,2473857.0,2151.0,40,R,2471892,2472308,418,503.2,410.0,3938,left
42,1,binary,40,2,trial,2471706.0,2473857.0,2151.0,40,R,2472366,2472636,272,1294.2,531.1,3521,right
42,1,binary,40,2,trial,2471706.0,2473857.0,2151.0,40,R,2472674,2472902,230,1611.4,593.4,3419,right
42,1,binary,40,2,trial,2471706.0,2473857.0,2151.0,40,R,2472942,2473226,286,1310.6,529.5,3386,right
42,1,binary,40,2,trial,2471706.0,2473857.0,2151.0,40,R,2473290,2473590,302,511.3,400.4,3448,left
42,1,binary,40,2,trial,2471706.0,2473857.0,2151.0,40,R,2473658,2473844,188,1327.7,554.0,3510,right
42,1,binary,40,2,trial,2471706.0,2473857.0,2151.0,40,R,2473864,2474152,290,1294.1,513.4,3534,right
42,1,binary,41,1,trial,2474774.0,2477490.0,2716.0,41,R,2474342,2474910,570,912.6,511.9,4023,NA
42,1,binary,41,1,trial,2474774.0,2477490.0,2716.0,41,R,2474954,2475236,284,566.2,436.3,3942,left
42,1,binary,41,1,trial,2474774.0,2477490.0,2716.0,41,R,2475296,2475566,272,1396.2,582.1,3618,right
42,1,binary,41,1,trial,2474774.0,2477490.0,2716.0,41,R,2475576,2475856,282,1413.1,577.9,3588,right
42,1,binary,41,1,trial,2474774.0,2477490.0,2716.0,41,R,2475918,2476184,268,630.3,411.9,3948,left
42,1,binary,41,1,trial,2474774.0,2477490.0,2716.0,41,R,2476198,2476374,178,587.2,414.8,3865,left
42,1,binary,41,1,trial,2474774.0,2477490.0,2716.0,41,R,2476436,2476796,362,1407.6,577.2,3566,right
42,1,binary,41,1,trial,2474774.0,2477490.0,2716.0,41,R,2476808,2477208,402,1425.6,583.9,3817,right
42,1,binary,41,1,trial,2474774.0,2477490.0,2716.0,41,R,2477290,2477684,396,466.0,864.2,4059,NA
42,1,binary,42,2,fixationCross,2480390.0,2482307.0,1917.0,42,R,2477910,2478078,170,789.2,489.2,3865,NA
42,1,binary,42,2,fixationCross,2480390.0,2482307.0,1917.0,42,R,2478102,2478136,36,772.7,482.4,4012,NA
42,1,binary,42,2,fixationCross,2480390.0,2482307.0,1917.0,42,R,2478328,2478418,92,774.7,468.1,4291,NA
42,1,binary,42,2,fixationCross,2480390.0,2482307.0,1917.0,42,R,2478498,2478532,36,773.1,457.4,4191,NA
42,1,binary,42,2,fixationCross,2480390.0,2482307.0,1917.0,42,R,2478612,2478700,90,777.7,452.8,4087,NA
42,1,binary,42,2,fixationCross,2480390.0,2482307.0,1917.0,42,R,2478740,2478852,114,780.5,449.8,4022,NA
42,1,binary,42,2,fixationCross,2480390.0,2482307.0,1917.0,42,R,2478872,2479642,772,688.4,430.2,4130,left
42,1,binary,42,2,fixationCross,2480390.0,2482307.0,1917.0,42,R,2479666,2480106,442,850.7,452.2,4294,NA
42,1,binary,42,2,trial,2480390.0,2482307.0,1917.0,42,R,2480130,2480474,346,959.5,480.6,4422,NA
42,1,binary,42,2,trial,2480390.0,2482307.0,1917.0,42,R,2480716,2480762,48,522.4,533.4,4182,left
42,1,binary,42,2,trial,2480390.0,2482307.0,1917.0,42,R,2480786,2480936,152,605.1,488.1,4080,left
42,1,binary,42,2,trial,2480390.0,2482307.0,1917.0,42,R,2480994,2481212,220,1380.4,620.1,3849,right
42,1,binary,42,2,trial,2480390.0,2482307.0,1917.0,42,R,2481236,2481960,726,1507.9,622.7,3805,right
42,1,binary,42,2,trial,2480390.0,2482307.0,1917.0,42,R,2481986,2482122,138,1346.6,588.0,4020,right
42,1,binary,42,2,trial,2480390.0,2482307.0,1917.0,42,R,2482182,2482538,358,609.2,437.9,4093,left
42,1,binary,43,1,fixationCross,2483290.0,2485123.0,1833.0,43,R,2482842,2482866,26,1160.3,634.4,3979,NA
42,1,binary,43,1,fixationCross,2483290.0,2485123.0,1833.0,43,R,2482892,2482912,22,1161.2,620.8,4018,NA
42,1,binary,43,1,fixationCross,2483290.0,2485123.0,1833.0,43,R,2483106,2483168,64,1026.1,542.4,4316,NA
42,1,binary,43,1,trial,2483290.0,2485123.0,1833.0,43,R,2483240,2483430,192,953.4,502.6,4270,NA
42,1,binary,43,1,trial,2483290.0,2485123.0,1833.0,43,R,2483484,2483814,332,556.2,430.8,3991,left
42,1,binary,43,1,trial,2483290.0,2485123.0,1833.0,43,R,2483872,2484128,258,1349.3,571.5,3549,right
42,1,binary,43,1,trial,2483290.0,2485123.0,1833.0,43,R,2484150,2484336,188,1442.3,589.1,3398,right
42,1,binary,43,1,trial,2483290.0,2485123.0,1833.0,43,R,2484352,2484630,280,1504.2,598.9,3344,right
42,1,binary,43,1,trial,2483290.0,2485123.0,1833.0,43,R,2484708,2485028,322,452.5,461.9,3539,left
42,1,binary,43,1,trial,2483290.0,2485123.0,1833.0,43,R,2485050,2485288,240,487.2,409.6,3650,left
42,1,binary,44,2,fixationCross,2486074.0,2488140.0,2066.0,44,R,2485580,2485620,42,1056.2,633.4,3788,NA
42,1,binary,44,2,fixationCross,2486074.0,2488140.0,2066.0,44,R,2485646,2486052,408,1053.4,570.6,4078,NA
42,1,binary,44,2,trial,2486074.0,2488140.0,2066.0,44,R,2486078,2486226,150,920.8,502.9,4057,NA
42,1,binary,44,2,trial,2486074.0,2488140.0,2066.0,44,R,2486266,2486670,406,542.9,447.3,3890,left
42,1,binary,44,2,trial,2486074.0,2488140.0,2066.0,44,R,2486690,2486866,178,461.6,447.5,3695,left
42,1,binary,44,2,trial,2486074.0,2488140.0,2066.0,44,R,2486932,2487118,188,1419.1,591.6,3569,right
42,1,binary,44,2,trial,2486074.0,2488140.0,2066.0,44,R,2487132,2487464,334,1449.0,585.4,3622,right
42,1,binary,44,2,trial,2486074.0,2488140.0,2066.0,44,R,2487536,2487946,412,489.2,445.4,4021,left
42,1,binary,44,2,trial,2486074.0,2488140.0,2066.0,44,R,2488014,2488368,356,1399.9,610.0,3783,right
42,1,binary,45,2,fixationCross,2489224.0,2491873.0,2649.0,45,R,2488560,2488906,348,1256.1,645.6,4172,right
42,1,binary,45,2,fixationCross,2489224.0,2491873.0,2649.0,45,R,2488944,2489144,202,997.4,541.4,4498,NA
42,1,binary,45,2,trial,2489224.0,2491873.0,2649.0,45,R,2489158,2489362,206,952.9,515.0,4363,NA
42,1,binary,45,2,trial,2489224.0,2491873.0,2649.0,45,R,2489408,2489592,186,512.6,452.0,4210,left
42,1,binary,45,2,trial,2489224.0,2491873.0,2649.0,45,R,2489608,2489874,268,517.1,419.1,3934,left
42,1,binary,45,2,trial,2489224.0,2491873.0,2649.0,45,R,2489942,2490100,160,1518.0,604.2,3698,right
42,1,binary,45,2,trial,2489224.0,2491873.0,2649.0,45,R,2490112,2490766,656,1547.0,600.9,3743,right
42,1,binary,45,2,trial,2489224.0,2491873.0,2649.0,45,R,2490842,2491710,870,518.9,416.7,3935,left
42,1,binary,45,2,trial,2489224.0,2491873.0,2649.0,45,R,2491786,2492106,322,1436.0,915.7,4036,NA
42,1,binary,46,2,fixationCross,2494056.0,2497173.0,3117.0,46,R,2492298,2492538,242,911.9,527.1,4035,NA
42,1,binary,46,2,fixationCross,2494056.0,2497173.0,3117.0,46,R,2492562,2493328,768,778.6,455.1,4191,NA
42,1,binary,46,2,fixationCross,2494056.0,2497173.0,3117.0,46,R,2493342,2493836,496,694.6,421.9,4082,left
42,1,binary,46,2,trial,2494056.0,2497173.0,3117.0,46,R,2493876,2494198,324,947.3,477.7,4148,NA
42,1,binary,46,2,trial,2494056.0,2497173.0,3117.0,46,R,2494244,2494458,216,514.9,432.9,4195,left
42,1,binary,46,2,trial,2494056.0,2497173.0,3117.0,46,R,2494476,2494646,172,438.7,435.9,3929,left
42,1,binary,46,2,trial,2494056.0,2497173.0,3117.0,46,R,2494714,2495144,432,1399.7,577.1,3595,right
42,1,binary,46,2,trial,2494056.0,2497173.0,3117.0,46,R,2495158,2495484,328,1456.1,589.9,3764,right
42,1,binary,46,2,trial,2494056.0,2497173.0,3117.0,46,R,2495560,2495914,356,455.5,428.0,3953,left
42,1,binary,46,2,trial,2494056.0,2497173.0,3117.0,46,R,2495940,2496202,264,565.9,403.9,3867,left
42,1,binary,46,2,trial,2494056.0,2497173.0,3117.0,46,R,2496226,2496390,166,443.7,409.1,3776,left
42,1,binary,46,2,trial,2494056.0,2497173.0,3117.0,46,R,2496416,2496528,114,603.0,396.1,3751,left
42,1,binary,46,2,trial,2494056.0,2497173.0,3117.0,46,R,2496586,2497002,418,1343.0,564.0,3695,right
42,1,binary,46,2,trial,2494056.0,2497173.0,3117.0,46,R,2497020,2497258,240,1409.1,578.9,4002,right
42,1,binary,46,2,trial,2494056.0,2497173.0,3117.0,46,R,2497272,2497426,156,1456.4,573.9,4019,right
42,1,binary,47,2,fixationCross,2498174.0,2500990.0,2816.0,47,R,2497640,2497866,228,1092.9,585.0,4070,NA
42,1,binary,47,2,trial,2498174.0,2500990.0,2816.0,47,R,2497902,2498298,398,930.5,491.4,4293,NA
42,1,binary,47,2,trial,2498174.0,2500990.0,2816.0,47,R,2498342,2498558,218,558.4,419.8,4071,left
42,1,binary,47,2,trial,2498174.0,2500990.0,2816.0,47,R,2498582,2498868,288,471.4,416.1,3800,left
42,1,binary,47,2,trial,2498174.0,2500990.0,2816.0,47,R,2498890,2499266,378,573.4,377.8,3618,left
42,1,binary,47,2,trial,2498174.0,2500990.0,2816.0,47,R,2499334,2499554,222,1487.9,583.5,3483,right
42,1,binary,47,2,trial,2498174.0,2500990.0,2816.0,47,R,2499572,2500130,560,1575.7,583.4,3547,right
42,1,binary,47,2,trial,2498174.0,2500990.0,2816.0,47,R,2500202,2500428,228,565.5,413.0,3849,left
42,1,binary,47,2,trial,2498174.0,2500990.0,2816.0,47,R,2500486,2500772,288,1325.2,859.1,3862,NA
42,1,binary,47,2,trial,2498174.0,2500990.0,2816.0,47,R,2500796,2500906,112,1455.8,898.0,3901,NA
42,1,binary,47,2,trial,2498174.0,2500990.0,2816.0,47,R,2500958,2501196,240,1462.7,572.4,3972,right
42,1,binary,48,1,trial,2501891.0,2506924.0,5033.0,48,R,2501410,2502020,612,888.9,507.6,4276,NA
42,1,binary,48,1,trial,2501891.0,2506924.0,5033.0,48,R,2502062,2502204,144,502.2,425.2,4166,left
42,1,binary,48,1,trial,2501891.0,2506924.0,5033.0,48,R,2502218,2502372,156,539.6,419.2,3970,left
42,1,binary,48,1,trial,2501891.0,2506924.0,5033.0,48,R,2502394,2502678,286,485.3,440.9,3841,left
42,1,binary,48,1,trial,2501891.0,2506924.0,5033.0,48,R,2502704,2502810,108,562.8,427.6,3832,left
42,1,binary,48,1,trial,2501891.0,2506924.0,5033.0,48,R,2502866,2503086,222,1345.1,579.6,3788,right
42,1,binary,48,1,trial,2501891.0,2506924.0,5033.0,48,R,2503106,2503468,364,1440.9,587.5,3759,right
42,1,binary,48,1,trial,2501891.0,2506924.0,5033.0,48,R,2503482,2503988,508,1473.6,571.9,3382,right
42,1,binary,48,1,trial,2501891.0,2506924.0,5033.0,48,R,2504012,2504492,482,1591.8,594.3,3296,right
42,1,binary,48,1,trial,2501891.0,2506924.0,5033.0,48,R,2504566,2504808,244,532.3,448.8,3753,left
42,1,binary,48,1,trial,2501891.0,2506924.0,5033.0,48,R,2504824,2504904,82,489.7,442.0,3807,left
42,1,binary,48,1,trial,2501891.0,2506924.0,5033.0,48,R,2504970,2505562,594,1441.3,583.9,3699,right
42,1,binary,48,1,trial,2501891.0,2506924.0,5033.0,48,R,2505590,2506266,678,1384.2,625.7,3746,right
42,1,binary,48,1,trial,2501891.0,2506924.0,5033.0,48,R,2506288,2506392,106,1319.7,560.8,3764,right
42,1,binary,48,1,trial,2501891.0,2506924.0,5033.0,48,R,2506468,2506704,238,508.0,889.8,4023,NA
42,1,binary,48,1,trial,2501891.0,2506924.0,5033.0,48,R,2506760,2507104,346,473.0,424.3,4137,left
42,1,binary,49,1,fixationCross,2508041.0,2511274.0,3233.0,49,R,2507342,2507720,380,634.2,469.7,4189,left
42,1,binary,49,1,fixationCross,2508041.0,2511274.0,3233.0,49,R,2507756,2507918,164,884.6,493.8,4264,NA
42,1,binary,49,1,trial,2508041.0,2511274.0,3233.0,49,R,2507932,2508172,242,933.8,498.7,4139,NA
42,1,binary,49,1,trial,2508041.0,2511274.0,3233.0,49,R,2508216,2508398,184,517.3,445.8,4177,left
42,1,binary,49,1,trial,2508041.0,2511274.0,3233.0,49,R,2508420,2508978,560,464.9,446.9,3872,left
42,1,binary,49,1,trial,2508041.0,2511274.0,3233.0,49,R,2509040,2509290,252,1326.8,599.7,3635,right
42,1,binary,49,1,trial,2508041.0,2511274.0,3233.0,49,R,2509312,2509560,250,1435.5,587.0,3534,right
42,1,binary,49,1,trial,2508041.0,2511274.0,3233.0,49,R,2509622,2509882,262,643.2,419.8,3641,left
42,1,binary,49,1,trial,2508041.0,2511274.0,3233.0,49,R,2509904,2510414,512,529.9,426.8,3764,left
42,1,binary,49,1,trial,2508041.0,2511274.0,3233.0,49,R,2510458,2510554,98,481.1,874.6,3928,NA
42,1,binary,49,1,trial,2508041.0,2511274.0,3233.0,49,R,2510594,2511096,504,484.1,413.9,3997,left
42,1,binary,49,1,trial,2508041.0,2511274.0,3233.0,49,R,2511134,2511442,310,489.9,431.1,4042,left
42,1,binary,50,1,fixationCross,2512174.0,2514091.0,1917.0,50,R,2511694,2512056,364,868.6,523.9,4017,NA
42,1,binary,50,1,trial,2512174.0,2514091.0,1917.0,50,R,2512076,2512340,266,933.3,525.7,4269,NA
42,1,binary,50,1,trial,2512174.0,2514091.0,1917.0,50,R,2512384,2512710,328,512.0,466.1,4077,left
42,1,binary,50,1,trial,2512174.0,2514091.0,1917.0,50,R,2512722,2512866,146,485.2,473.1,3956,left
42,1,binary,50,1,trial,2512174.0,2514091.0,1917.0,50,R,2512932,2513148,218,1417.5,641.9,4037,right
42,1,binary,50,1,trial,2512174.0,2514091.0,1917.0,50,R,2513170,2513392,224,1542.3,603.3,4043,right
42,1,binary,50,1,trial,2512174.0,2514091.0,1917.0,50,R,2513480,2513796,318,445.0,480.8,4167,left
42,1,binary,50,1,trial,2512174.0,2514091.0,1917.0,50,R,2513834,2513996,164,460.6,970.8,4288,NA
42,1,binary,50,1,trial,2512174.0,2514091.0,1917.0,50,R,2514040,2514324,286,430.5,455.1,4309,left
42,2,continuous,1,77,fixationCross,2667442.0,2673142.0,5700.0,51,L,2657177,2657571,396,983.5,470.8,4317,NA
42,2,continuous,1,77,fixationCross,2667442.0,2673142.0,5700.0,51,L,2657597,2657973,378,954.2,547.4,4285,NA
42,2,continuous,1,77,fixationCross,2667442.0,2673142.0,5700.0,51,L,2658159,2659323,1166,972.1,539.6,4346,NA
42,2,continuous,1,77,fixationCross,2667442.0,2673142.0,5700.0,51,L,2659757,2659903,148,1005.6,538.7,4551,NA
42,2,continuous,1,77,fixationCross,2667442.0,2673142.0,5700.0,51,L,2659919,2659963,46,955.4,545.3,4748,NA
42,2,continuous,1,77,fixationCross,2667442.0,2673142.0,5700.0,51,L,2659975,2659999,26,981.8,575.0,4806,NA
42,2,continuous,1,77,fixationCross,2667442.0,2673142.0,5700.0,51,L,2660127,2661519,1394,978.1,561.9,4120,NA
42,2,continuous,1,77,fixationCross,2667442.0,2673142.0,5700.0,51,L,2661565,2661883,320,864.5,336.6,4302,NA
42,2,continuous,1,77,fixationCross,2667442.0,2673142.0,5700.0,51,L,2661927,2662061,136,1184.2,438.5,4311,right
42,2,continuous,1,77,fixationCross,2667442.0,2673142.0,5700.0,51,L,2662095,2664127,2034,968.3,584.8,4409,NA
42,2,continuous,1,77,fixationCross,2667442.0,2673142.0,5700.0,51,L,2664251,2664395,146,966.8,523.0,4333,NA
42,2,continuous,1,77,fixationCross,2667442.0,2673142.0,5700.0,51,L,2664405,2664751,348,970.3,574.0,4426,NA
42,2,continuous,1,77,fixationCross,2667442.0,2673142.0,5700.0,51,L,2664807,2665117,312,499.4,442.9,4307,left
42,2,continuous,1,77,fixationCross,2667442.0,2673142.0,5700.0,51,L,2665161,2665275,116,869.3,561.1,4196,NA
42,2,continuous,1,77,fixationCross,2667442.0,2673142.0,5700.0,51,L,2665297,2665763,468,957.7,569.2,4345,NA
42,2,continuous,1,77,fixationCross,2667442.0,2673142.0,5700.0,51,L,2665799,2665917,120,1020.1,688.6,4461,NA
42,2,continuous,1,77,fixationCross,2667442.0,2673142.0,5700.0,51,L,2665941,2666095,156,969.0,600.1,4355,NA
42,2,continuous,1,77,fixationCross,2667442.0,2673142.0,5700.0,51,L,2666109,2666371,264,958.0,576.3,4398,NA
42,2,continuous,1,77,fixationCross,2667442.0,2673142.0,5700.0,51,L,2666445,2666775,332,1773.1,1038.2,4462,NA
42,2,continuous,1,77,fixationCross,2667442.0,2673142.0,5700.0,51,L,2666845,2667015,172,999.0,524.8,4390,NA
42,2,continuous,1,77,trial,2667442.0,2673142.0,5700.0,51,L,2667033,2667671,640,961.9,567.7,4593,NA
42,2,continuous,1,77,trial,2667442.0,2673142.0,5700.0,51,L,2667717,2667955,240,511.9,493.4,4242,left
42,2,continuous,1,77,trial,2667442.0,2673142.0,5700.0,51,L,2668003,2668175,174,951.6,933.7,3993,likertHorizontal
42,2,continuous,1,77,trial,2667442.0,2673142.0,5700.0,51,L,2668291,2668551,262,512.2,518.7,3879,left
42,2,continuous,1,77,trial,2667442.0,2673142.0,5700.0,51,L,2668569,2668715,148,554.5,551.4,3976,left
42,2,continuous,1,77,trial,2667442.0,2673142.0,5700.0,51,L,2668777,2669031,256,1380.2,610.4,3941,right
42,2,continuous,1,77,trial,2667442.0,2673142.0,5700.0,51,L,2669055,2669521,468,1530.2,638.1,3825,right
42,2,continuous,1,77,trial,2667442.0,2673142.0,5700.0,51,L,2669595,2669963,370,635.6,639.8,3966,left
42,2,continuous,1,77,trial,2667442.0,2673142.0,5700.0,51,L,2670009,2670253,246,1003.5,987.4,4235,likertHorizontal
42,2,continuous,1,77,trial,2667442.0,2673142.0,5700.0,51,L,2670265,2670641,378,991.5,974.8,4281,likertHorizontal
42,2,continuous,1,77,trial,2667442.0,2673142.0,5700.0,51,L,2670667,2670861,196,1124.3,959.3,4088,likertHorizontal
42,2,continuous,1,77,trial,2667442.0,2673142.0,5700.0,51,L,2670909,2671195,288,1286.5,660.7,4045,right
42,2,continuous,1,77,trial,2667442.0,2673142.0,5700.0,51,L,2671211,2671789,580,1342.4,662.1,4274,right
42,2,continuous,1,77,trial,2667442.0,2673142.0,5700.0,51,L,2671925,2672087,164,1354.9,606.6,4297,right
42,2,continuous,1,77,trial,2667442.0,2673142.0,5700.0,51,L,2672147,2672787,642,658.2,633.7,4407,left
42,2,continuous,1,77,trial,2667442.0,2673142.0,5700.0,51,L,2672843,2673401,560,1184.4,900.6,4174,NA
42,2,continuous,1,77,postResponse,2667442.0,2673142.0,5700.0,51,L,2673445,2673475,32,949.8,612.6,4266,NA
42,2,continuous,2,59,fixationCross,2683859.0,2690643.0,6784.0,52,L,2673611,2673947,338,815.0,490.7,4500,NA
42,2,continuous,2,59,fixationCross,2683859.0,2690643.0,6784.0,52,L,2673975,2674859,886,972.7,563.9,4460,NA
42,2,continuous,2,59,fixationCross,2683859.0,2690643.0,6784.0,52,L,2674877,2675077,202,908.4,522.9,4418,NA
42,2,continuous,2,59,fixationCross,2683859.0,2690643.0,6784.0,52,L,2675235,2675449,216,990.0,505.5,4366,NA
42,2,continuous,2,59,fixationCross,2683859.0,2690643.0,6784.0,52,L,2675463,2676335,874,1000.4,555.1,4302,NA
42,2,continuous,2,59,fixationCross,2683859.0,2690643.0,6784.0,52,L,2676489,2678027,1540,988.9,560.3,3962,NA
42,2,continuous,2,59,fixationCross,2683859.0,2690643.0,6784.0,52,L,2678193,2680513,2322,981.9,549.4,3861,NA
42,2,continuous,2,59,fixationCross,2683859.0,2690643.0,6784.0,52,L,2680535,2680773,240,893.6,538.4,3924,NA
42,2,continuous,2,59,fixationCross,2683859.0,2690643.0,6784.0,52,L,2680793,2682107,1316,971.0,547.5,4151,NA
42,2,continuous,2,59,fixationCross,2683859.0,2690643.0,6784.0,52,L,2682277,2683345,1070,986.3,544.0,3956,NA
42,2,continuous,2,59,fixationCross,2683859.0,2690643.0,6784.0,52,L,2683379,2683489,112,819.8,456.6,3707,NA
42,2,continuous,2,59,fixationCross,2683859.0,2690643.0,6784.0,52,L,2683499,2683521,24,825.1,470.6,3720,NA
42,2,continuous,2,59,fixationCross,2683859.0,2690643.0,6784.0,52,L,2683529,2683557,30,821.7,452.0,3731,NA
42,2,continuous,2,59,fixationCross,2683859.0,2690643.0,6784.0,52,L,2683567,2683649,84,821.7,468.5,3757,NA
42,2,continuous,2,59,trial,2683859.0,2690643.0,6784.0,52,L,2683675,2684103,430,979.4,536.6,3909,NA
42,2,continuous,2,59,trial,2683859.0,2690643.0,6784.0,52,L,2684143,2684363,222,1329.7,510.1,3911,right
42,2,continuous,2,59,trial,2683859.0,2690643.0,6784.0,52,L,2684375,2684533,160,1369.3,513.8,3601,right
42,2,continuous,2,59,trial,2683859.0,2690643.0,6784.0,52,L,2684599,2684745,148,472.1,395.8,3549,left
42,2,continuous,2,59,trial,2683859.0,2690643.0,6784.0,52,L,2684757,2685041,286,460.8,377.2,3426,left
42,2,continuous,2,59,trial,2683859.0,2690643.0,6784.0,52,L,2685063,2685303,242,517.0,438.0,3319,left
42,2,continuous,2,59,trial,2683859.0,2690643.0,6784.0,52,L,2685369,2685853,486,1396.0,507.6,3293,right
42,2,continuous,2,59,trial,2683859.0,2690643.0,6784.0,52,L,2685913,2686071,160,975.6,1031.3,3612,likertHorizontal
42,2,continuous,2,59,trial,2683859.0,2690643.0,6784.0,52,L,2686091,2686259,170,989.2,980.4,3708,likertHorizontal
42,2,continuous,2,59,trial,2683859.0,2690643.0,6784.0,52,L,2686321,2686461,142,517.5,397.2,3751,left
42,2,continuous,2,59,trial,2683859.0,2690643.0,6784.0,52,L,2686481,2686719,240,462.6,386.3,3748,left
42,2,continuous,2,59,trial,2683859.0,2690643.0,6784.0,52,L,2686781,2687297,518,1394.4,497.6,3598,right
42,2,continuous,2,59,trial,2683859.0,2690643.0,6784.0,52,L,2687369,2687565,198,489.4,405.5,3748,left
42,2,continuous,2,59,trial,2683859.0,2690643.0,6784.0,52,L,2687583,2688137,556,460.5,379.9,3707,left
42,2,continuous,2,59,trial,2683859.0,2690643.0,6784.0,52,L,2688297,2688617,322,497.2,454.1,3699,left
42,2,continuous,2,59,trial,2683859.0,2690643.0,6784.0,52,L,2688635,2689145,512,569.3,478.5,3940,left
42,2,continuous,2,59,trial,2683859.0,2690643.0,6784.0,52,L,2689173,2689433,262,682.4,636.8,3860,left
42,2,continuous,2,59,trial,2683859.0,2690643.0,6784.0,52,L,2689475,2690217,744,1010.4,980.2,4174,likertHorizontal
42,2,continuous,2,59,trial,2683859.0,2690643.0,6784.0,52,L,2690281,2690897,618,1316.6,505.7,4297,right
42,2,continuous,3,12,fixationCross,2701326.0,2705877.0,4551.0,53,L,2691081,2691421,342,888.2,595.8,4596,NA
42,2,continuous,3,12,fixationCross,2701326.0,2705877.0,4551.0,53,L,2691443,2691879,438,973.8,552.1,4552,NA
42,2,continuous,3,12,fixationCross,2701326.0,2705877.0,4551.0,53,L,2692069,2692537,470,1013.1,472.8,4318,NA
42,2,continuous,3,12,fixationCross,2701326.0,2705877.0,4551.0,53,L,2692553,2692715,164,954.1,516.9,4402,NA
42,2,continuous,3,12,fixationCross,2701326.0,2705877.0,4551.0,53,L,2692727,2693131,406,981.4,527.4,4202,NA
42,2,continuous,3,12,fixationCross,2701326.0,2705877.0,4551.0,53,L,2693383,2694239,858,981.3,551.9,4162,NA
42,2,continuous,3,12,fixationCross,2701326.0,2705877.0,4551.0,53,L,2694265,2694579,316,1067.2,460.8,3854,NA
42,2,continuous,3,12,fixationCross,2701326.0,2705877.0,4551.0,53,L,2694603,2694767,166,1006.0,512.3,3908,NA
42,2,continuous,3,12,fixationCross,2701326.0,2705877.0,4551.0,53,L,2694781,2695531,752,978.5,542.3,4150,NA
42,2,continuous,3,12,fixationCross,2701326.0,2705877.0,4551.0,53,L,2695697,2696283,588,999.2,542.5,4144,NA
42,2,continuous,3,12,fixationCross,2701326.0,2705877.0,4551.0,53,L,2696441,2696631,192,1005.3,550.3,4172,NA
42,2,continuous,3,12,fixationCross,2701326.0,2705877.0,4551.0,53,L,2696643,2697203,562,971.5,541.1,4271,NA
42,2,continuous,3,12,fixationCross,2701326.0,2705877.0,4551.0,53,L,2697365,2698823,1460,971.4,541.1,4407,NA
42,2,continuous,3,12,fixationCross,2701326.0,2705877.0,4551.0,53,L,2699011,2699893,884,973.8,537.2,4666,NA
42,2,continuous,3,12,fixationCross,2701326.0,2705877.0,4551.0,53,L,2699945,2700091,148,1301.3,492.9,4240,right
42,2,continuous,3,12,fixationCross,2701326.0,2705877.0,4551.0,53,L,2700129,2700309,182,1004.3,515.3,4247,NA
42,2,continuous,3,12,fixationCross,2701326.0,2705877.0,4551.0,53,L,2700321,2700977,658,971.0,522.7,4349,NA
42,2,continuous,3,12,trial,2701326.0,2705877.0,4551.0,53,L,2701145,2701591,448,980.1,532.0,4265,NA
42,2,continuous,3,12,trial,2701326.0,2705877.0,4551.0,53,L,2701637,2701875,240,550.9,540.7,4076,left
42,2,continuous,3,12,trial,2701326.0,2705877.0,4551.0,53,L,2701903,2702209,308,683.3,600.6,3678,left
42,2,continuous,3,12,trial,2701326.0,2705877.0,4551.0,53,L,2702267,2702717,452,1404.5,502.2,3361,right
42,2,continuous,3,12,trial,2701326.0,2705877.0,4551.0,53,L,2702775,2703187,414,698.3,580.8,3468,left
42,2,continuous,3,12,trial,2701326.0,2705877.0,4551.0,53,L,2703201,2703323,124,711.2,617.5,3598,left
42,2,continuous,3,12,trial,2701326.0,2705877.0,4551.0,53,L,2703381,2703639,260,1347.6,515.6,3555,right
42,2,continuous,3,12,trial,2701326.0,2705877.0,4551.0,53,L,2703661,2703831,172,1455.0,498.9,3517,right
42,2,continuous,3,12,trial,2701326.0,2705877.0,4551.0,53,L,2703853,2704303,452,1530.4,439.4,3374,right
42,2,continuous,3,12,trial,2701326.0,2705877.0,4551.0,53,L,2704389,2704961,574,395.0,506.6,3496,left
42,2,continuous,3,12,trial,2701326.0,2705877.0,4551.0,53,L,2704977,2705315,340,342.5,566.4,3863,left
42,2,continuous,3,12,trial,2701326.0,2705877.0,4551.0,53,L,2705359,2705829,472,632.4,930.2,3994,NA
42,2,continuous,3,12,postResponse,2701326.0,2705877.0,4551.0,53,L,2705877,2706219,344,583.4,522.0,4033,left
42,2,continuous,4,38,fixationCross,2716560.0,2720327.0,3767.0,54,L,2706293,2706573,282,602.9,531.2,4160,left
42,2,continuous,4,38,fixationCross,2716560.0,2720327.0,3767.0,54,L,2706757,2706903,148,1049.6,533.8,4141,NA
42,2,continuous,4,38,fixationCross,2716560.0,2720327.0,3767.0,54,L,2706917,2707707,792,990.3,525.8,4310,NA
42,2,continuous,4,38,fixationCross,2716560.0,2720327.0,3767.0,54,L,2707885,2708801,918,994.3,524.5,4063,NA
42,2,continuous,4,38,fixationCross,2716560.0,2720327.0,3767.0,54,L,2708813,2709367,556,981.0,490.1,3942,NA
42,2,continuous,4,38,fixationCross,2716560.0,2720327.0,3767.0,54,L,2709385,2709687,304,974.9,530.5,4244,NA
42,2,continuous,4,38,fixationCross,2716560.0,2720327.0,3767.0,54,L,2709843,2710061,220,1001.4,524.6,4127,NA
42,2,continuous,4,38,fixationCross,2716560.0,2720327.0,3767.0,54,L,2710071,2712713,2644,981.8,522.7,4216,NA
42,2,continuous,4,38,fixationCross,2716560.0,2720327.0,3767.0,54,L,2712871,2714015,1146,994.9,518.3,4146,NA
42,2,continuous,4,38,fixationCross,2716560.0,2720327.0,3767.0,54,L,2714035,2714405,372,1069.7,520.6,4249,NA
42,2,continuous,4,38,fixationCross,2716560.0,2720327.0,3767.0,54,L,2714421,2714617,198,1000.3,523.9,4421,NA
42,2,continuous,4,38,trial,2716560.0,2720327.0,3767.0,54,L,2714769,2716573,1806,989.1,533.2,3912,NA
42,2,continuous,4,38,trial,2716560.0,2720327.0,3767.0,54,L,2716735,2716883,150,1070.8,520.1,3533,NA
42,2,continuous,4,38,trial,2716560.0,2720327.0,3767.0,54,L,2716917,2717059,144,1306.1,478.2,3608,right
42,2,continuous,4,38,trial,2716560.0,2720327.0,3767.0,54,L,2717117,2717337,222,513.3,409.3,3730,left
42,2,continuous,4,38,trial,2716560.0,2720327.0,3767.0,54,L,2717397,2717745,350,1367.5,448.6,3543,right
42,2,continuous,4,38,trial,2716560.0,2720327.0,3767.0,54,L,2717769,2718279,512,1470.4,455.4,3452,right
42,2,continuous,4,38,trial,2716560.0,2720327.0,3767.0,54,L,2718303,2718393,92,1563.7,507.4,3491,right
42,2,continuous,4,38,trial,2716560.0,2720327.0,3767.0,54,L,2718467,2718949,484,510.6,434.7,3707,left
42,2,continuous,4,38,trial,2716560.0,2720327.0,3767.0,54,L,2719009,2719425,418,955.3,1017.1,3835,likertHorizontal
42,2,continuous,4,38,trial,2716560.0,2720327.0,3767.0,54,L,2719443,2720289,848,1009.3,993.3,4039,likertHorizontal
42,2,continuous,4,38,trial,2716560.0,2720327.0,3767.0,54,L,2720335,2720533,200,1010.5,713.6,4153,NA
42,2,continuous,5,59,fixationCross,2731010.0,2734143.0,3133.0,55,L,2720743,2720955,214,1141.4,465.7,4233,NA
42,2,continuous,5,59,fixationCross,2731010.0,2734143.0,3133.0,55,L,2721005,2721209,206,849.3,519.6,4450,NA
42,2,continuous,5,59,fixationCross,2731010.0,2734143.0,3133.0,55,L,2721229,2721403,176,940.3,512.7,4260,NA
42,2,continuous,5,59,fixationCross,2731010.0,2734143.0,3133.0,55,L,2721417,2721681,266,980.2,520.9,4103,NA
42,2,continuous,5,59,fixationCross,2731010.0,2734143.0,3133.0,55,L,2721857,2722705,850,1002.7,529.2,4080,NA
42,2,continuous,5,59,fixationCross,2731010.0,2734143.0,3133.0,55,L,2722717,2723173,458,983.3,520.5,3915,NA
42,2,continuous,5,59,fixationCross,2731010.0,2734143.0,3133.0,55,L,2723337,2724961,1626,984.3,518.5,3841,NA
42,2,continuous,5,59,fixationCross,2731010.0,2734143.0,3133.0,55,L,2725117,2726601,1486,980.4,526.9,3940,NA
42,2,continuous,5,59,fixationCross,2731010.0,2734143.0,3133.0,55,L,2726645,2726739,96,1276.4,467.2,4066,right
42,2,continuous,5,59,fixationCross,2731010.0,2734143.0,3133.0,55,L,2726779,2727467,690,970.2,524.9,4358,NA
42,2,continuous,5,59,fixationCross,2731010.0,2734143.0,3133.0,55,L,2727623,2728901,1280,981.3,529.1,4112,NA
42,2,continuous,5,59,fixationCross,2731010.0,2734143.0,3133.0,55,L,2729063,2730971,1910,991.1,518.6,3858,NA
42,2,continuous,5,59,trial,2731010.0,2734143.0,3133.0,55,L,2731127,2731313,188,1009.8,546.6,3910,NA
42,2,continuous,5,59,trial,2731010.0,2734143.0,3133.0,55,L,2731357,2731749,394,505.8,407.7,3781,left
42,2,continuous,5,59,trial,2731010.0,2734143.0,3133.0,55,L,2731819,2732319,502,1459.2,446.4,3292,right
42,2,continuous,5,59,trial,2731010.0,2734143.0,3133.0,55,L,2732339,2732537,200,1372.7,458.4,3269,right
42,2,continuous,5,59,trial,2731010.0,2734143.0,3133.0,55,L,2732557,2732761,206,1298.8,471.9,3270,right
42,2,continuous,5,59,trial,2731010.0,2734143.0,3133.0,55,L,2732825,2733069,246,549.9,576.9,3344,left
42,2,continuous,5,59,trial,2731010.0,2734143.0,3133.0,55,L,2733087,2733331,246,529.7,613.1,3461,left
42,2,continuous,5,59,trial,2731010.0,2734143.0,3133.0,55,L,2733363,2733537,176,515.1,448.0,3563,left
42,2,continuous,5,59,trial,2731010.0,2734143.0,3133.0,55,L,2733605,2734103,500,1085.4,1018.2,3697,likertHorizontal
42,2,continuous,5,59,trial,2731010.0,2734143.0,3133.0,55,L,2734163,2734411,250,1233.8,480.7,3794,right
42,2,continuous,6,84,trial,2734877.0,2738393.0,3516.0,56,L,2734601,2735041,442,1058.8,542.7,4170,NA
42,2,continuous,6,84,trial,2734877.0,2738393.0,3516.0,56,L,2735087,2735267,182,652.3,588.0,4255,left
42,2,continuous,6,84,trial,2734877.0,2738393.0,3516.0,56,L,2735333,2735491,160,1456.1,469.3,3751,right
42,2,continuous,6,84,trial,2734877.0,2738393.0,3516.0,56,L,2735509,2735791,284,1521.9,469.5,3580,right
42,2,continuous,6,84,trial,2734877.0,2738393.0,3516.0,56,L,2735853,2736093,242,692.9,567.8,3671,left
42,2,continuous,6,84,trial,2734877.0,2738393.0,3516.0,56,L,2736109,2736345,238,652.2,558.8,3794,left
42,2,continuous,6,84,trial,2734877.0,2738393.0,3516.0,56,L,2736379,2736595,218,389.7,545.2,3789,left
42,2,continuous,6,84,trial,2734877.0,2738393.0,3516.0,56,L,2736673,2737393,722,1533.1,459.6,3509,right
42,2,continuous,6,84,trial,2734877.0,2738393.0,3516.0,56,L,2737455,2737855,402,1030.4,1010.2,3667,likertHorizontal
42,2,continuous,6,84,trial,2734877.0,2738393.0,3516.0,56,L,2737895,2738181,288,1376.2,1005.4,3775,NA
42,2,continuous,6,84,trial,2734877.0,2738393.0,3516.0,56,L,2738247,2738613,368,657.3,576.2,4159,left
42,2,continuous,7,75,trial,2739110.0,2742027.0,2917.0,57,L,2738841,2739111,272,1195.3,518.0,3727,right
42,2,continuous,7,75,trial,2739110.0,2742027.0,2917.0,57,L,2739143,2739273,132,1057.6,517.9,4051,NA
42,2,continuous,7,75,trial,2739110.0,2742027.0,2917.0,57,L,2739311,2739467,158,724.2,573.0,4292,left
42,2,continuous,7,75,trial,2739110.0,2742027.0,2917.0,57,L,2739501,2739633,134,478.0,478.1,4006,left
42,2,continuous,7,75,trial,2739110.0,2742027.0,2917.0,57,L,2739657,2739827,172,361.9,429.5,3652,left
42,2,continuous,7,75,trial,2739110.0,2742027.0,2917.0,57,L,2739885,2740113,230,1387.8,455.4,3420,right
42,2,continuous,7,75,trial,2739110.0,2742027.0,2917.0,57,L,2740129,2740301,174,1434.4,453.0,3491,right
42,2,continuous,7,75,trial,2739110.0,2742027.0,2917.0,57,L,2740315,2740579,266,1412.1,432.1,3545,right
42,2,continuous,7,75,trial,2739110.0,2742027.0,2917.0,57,L,2740651,2740865,216,374.5,424.4,3513,left
42,2,continuous,7,75,trial,2739110.0,2742027.0,2917.0,57,L,2740883,2741095,214,318.7,401.1,3400,left
42,2,continuous,7,75,trial,2739110.0,2742027.0,2917.0,57,L,2741169,2741613,446,1378.8,439.3,3287,right
42,2,continuous,7,75,trial,2739110.0,2742027.0,2917.0,57,L,2741627,2741851,226,1408.2,423.7,3507,right
42,2,continuous,7,75,trial,2739110.0,2742027.0,2917.0,57,L,2741887,2742075,190,1283.4,533.7,3771,right
42,2,continuous,7,75,trial,2739110.0,2742027.0,2917.0,57,L,2742091,2742231,142,1242.5,567.6,3808,right
42,2,continuous,8,76,trial,2742710.0,2745826.0,3116.0,58,L,2742443,2742863,422,940.7,562.7,4011,NA
42,2,continuous,8,76,trial,2742710.0,2745826.0,3116.0,58,L,2742903,2743085,184,640.7,586.5,4149,left
42,2,continuous,8,76,trial,2742710.0,2745826.0,3116.0,58,L,2743113,2743305,194,475.5,383.4,3813,left
42,2,continuous,8,76,trial,2742710.0,2745826.0,3116.0,58,L,2743371,2743601,232,1445.0,472.3,3495,right
42,2,continuous,8,76,trial,2742710.0,2745826.0,3116.0,58,L,2743619,2744143,526,1521.7,440.3,3443,right
42,2,continuous,8,76,trial,2742710.0,2745826.0,3116.0,58,L,2744219,2744611,394,448.0,465.3,3585,left
42,2,continuous,8,76,trial,2742710.0,2745826.0,3116.0,58,L,2744683,2744995,314,1281.0,1006.4,3788,NA
42,2,continuous,8,76,trial,2742710.0,2745826.0,3116.0,58,L,2745017,2745323,308,1378.7,1013.4,3863,NA
42,2,continuous,8,76,trial,2742710.0,2745826.0,3116.0,58,L,2745343,2745745,404,1266.4,986.2,3979,NA
42,2,continuous,8,76,trial,2742710.0,2745826.0,3116.0,58,L,2745761,2746029,270,1210.1,1016.4,4122,NA
42,2,continuous,9,1,trial,2746526.0,2750093.0,3567.0,59,L,2746245,2746685,442,911.0,537.8,4127,NA
42,2,continuous,9,1,trial,2746526.0,2750093.0,3567.0,59,L,2746727,2747081,356,613.6,633.3,4105,left
42,2,continuous,9,1,trial,2746526.0,2750093.0,3567.0,59,L,2747089,2747517,430,612.0,609.7,3566,left
42,2,continuous,9,1,trial,2746526.0,2750093.0,3567.0,59,L,2747583,2747771,190,1497.8,521.7,3428,right
42,2,continuous,9,1,trial,2746526.0,2750093.0,3567.0,59,L,2747795,2748227,434,1384.3,500.8,3488,right
42,2,continuous,9,1,trial,2746526.0,2750093.0,3567.0,59,L,2748295,2748571,278,559.9,615.9,3527,left
42,2,continuous,9,1,trial,2746526.0,2750093.0,3567.0,59,L,2748593,2748845,254,684.9,610.1,3653,left
42,2,continuous,9,1,trial,2746526.0,2750093.0,3567.0,59,L,2748857,2749141,286,707.8,623.4,3663,left
42,2,continuous,9,1,trial,2746526.0,2750093.0,3567.0,59,L,2749199,2749453,256,1374.8,520.6,3680,right
42,2,continuous,9,1,trial,2746526.0,2750093.0,3567.0,59,L,2749479,2749661,184,1530.2,517.2,3634,right
42,2,continuous,9,1,trial,2746526.0,2750093.0,3567.0,59,L,2749687,2750287,602,1382.3,495.7,3526,right
42,2,continuous,10,92,trial,2750794.0,2753827.0,3033.0,60,L,2750515,2750983,470,744.8,510.6,3795,NA
42,2,continuous,10,92,trial,2750794.0,2753827.0,3033.0,60,L,2751011,2751221,212,579.5,531.2,3895,left
42,2,continuous,10,92,trial,2750794.0,2753827.0,3033.0,60,L,2751287,2751477,192,1399.9,501.0,3636,right
42,2,continuous,10,92,trial,2750794.0,2753827.0,3033.0,60,L,2751499,2752227,730,1509.7,512.1,3698,right
42,2,continuous,10,92,trial,2750794.0,2753827.0,3033.0,60,L,2752303,2752905,604,586.8,545.4,3691,left
42,2,continuous,10,92,trial,2750794.0,2753827.0,3033.0,60,L,2752973,2753111,140,1074.1,978.6,3604,likertHorizontal
42,2,continuous,10,92,trial,2750794.0,2753827.0,3033.0,60,L,2753131,2753325,196,1038.2,940.7,3674,likertHorizontal
42,2,continuous,10,92,trial,2750794.0,2753827.0,3033.0,60,L,2753383,2753623,242,1420.2,526.9,3807,right
42,2,continuous,10,92,trial,2750794.0,2753827.0,3033.0,60,L,2753639,2753919,282,1497.3,513.1,3948,right
42,2,continuous,10,92,trial,2750794.0,2753827.0,3033.0,60,L,2753929,2754041,114,1528.7,503.6,3965,right
42,2,continuous,11,1,trial,2754544.0,2757577.0,3033.0,61,L,2754261,2754733,474,783.1,625.3,3930,NA
42,2,continuous,11,1,trial,2754544.0,2757577.0,3033.0,61,L,2754757,2754995,240,663.8,644.9,3950,left
42,2,continuous,11,1,trial,2754544.0,2757577.0,3033.0,61,L,2755031,2755347,318,396.5,634.5,3659,left
42,2,continuous,11,1,trial,2754544.0,2757577.0,3033.0,61,L,2755421,2755809,390,1436.8,514.7,3371,right
42,2,continuous,11,1,trial,2754544.0,2757577.0,3033.0,61,L,2755831,2755951,122,1380.3,476.4,3508,right
42,2,continuous,11,1,trial,2754544.0,2757577.0,3033.0,61,L,2756025,2756245,222,549.9,644.7,3731,left
42,2,continuous,11,1,trial,2754544.0,2757577.0,3033.0,61,L,2756269,2756705,438,669.1,614.3,3661,left
42,2,continuous,11,1,trial,2754544.0,2757577.0,3033.0,61,L,2756743,2757153,412,338.4,612.1,3534,left
42,2,continuous,11,1,trial,2754544.0,2757577.0,3033.0,61,L,2757175,2757529,356,233.7,641.7,3605,left
42,2,continuous,11,1,trial,2754544.0,2757577.0,3033.0,61,L,2757567,2757763,198,330.5,466.5,3728,left
42,2,continuous,12,17,fixationCross,2758293.0,2760860.0,2567.0,62,L,2757995,2758167,174,1247.4,582.8,3563,right
42,2,continuous,12,17,trial,2758293.0,2760860.0,2567.0,62,L,2758197,2758435,240,969.2,610.4,3868,NA
42,2,continuous,12,17,trial,2758293.0,2760860.0,2567.0,62,L,2758475,2758697,224,643.0,643.0,4016,left
42,2,continuous,12,17,trial,2758293.0,2760860.0,2567.0,62,L,2758721,2758905,186,517.5,672.2,3752,left
42,2,continuous,12,17,trial,2758293.0,2760860.0,2567.0,62,L,2758961,2759129,170,1381.8,536.5,3522,right
42,2,continuous,12,17,trial,2758293.0,2760860.0,2567.0,62,L,2759155,2759311,158,1587.4,449.1,3423,right
42,2,continuous,12,17,trial,2758293.0,2760860.0,2567.0,62,L,2759339,2759619,282,1322.8,541.4,3546,right
42,2,continuous,12,17,trial,2758293.0,2760860.0,2567.0,62,L,2759653,2759829,178,1523.8,468.4,3617,right
42,2,continuous,12,17,trial,2758293.0,2760860.0,2567.0,62,L,2759845,2760151,308,1586.9,450.6,3583,right
42,2,continuous,12,17,trial,2758293.0,2760860.0,2567.0,62,L,2760223,2760669,448,605.6,626.6,3763,left
42,2,continuous,12,17,trial,2758293.0,2760860.0,2567.0,62,L,2760685,2760849,166,594.6,587.4,3781,left
42,2,continuous,12,17,trial,2758293.0,2760860.0,2567.0,62,L,2760893,2760969,78,555.5,469.1,3778,left
42,2,continuous,12,17,trial,2758293.0,2760860.0,2567.0,62,L,2761057,2761081,26,580.7,497.8,3803,left
42,2,continuous,13,87,trial,2761577.0,2764510.0,2933.0,63,L,2761299,2761643,346,852.2,653.3,3816,NA
42,2,continuous,13,87,trial,2761577.0,2764510.0,2933.0,63,L,2761667,2761771,106,979.9,616.4,4085,NA
42,2,continuous,13,87,trial,2761577.0,2764510.0,2933.0,63,L,2761817,2762147,332,456.3,478.2,3952,left
42,2,continuous,13,87,trial,2761577.0,2764510.0,2933.0,63,L,2762175,2762431,258,497.0,341.5,3703,NA
42,2,continuous,13,87,trial,2761577.0,2764510.0,2933.0,63,L,2762487,2762725,240,1347.4,544.5,3615,right
42,2,continuous,13,87,trial,2761577.0,2764510.0,2933.0,63,L,2762743,2763421,680,1363.6,483.5,3625,right
42,2,continuous,13,87,trial,2761577.0,2764510.0,2933.0,63,L,2763451,2763843,394,1546.8,508.7,3514,right
42,2,continuous,13,87,trial,2761577.0,2764510.0,2933.0,63,L,2763927,2764387,462,499.5,580.7,3745,left
42,2,continuous,13,87,trial,2761577.0,2764510.0,2933.0,63,L,2764459,2764689,232,1328.2,941.1,3656,NA
42,2,continuous,14,5,trial,2765194.0,2767627.0,2433.0,64,L,2764929,2765383,456,741.8,647.3,4035,NA
42,2,continuous,14,5,trial,2765194.0,2767627.0,2433.0,64,L,2765401,2765625,226,657.2,636.9,3929,left
42,2,continuous,14,5,trial,2765194.0,2767627.0,2433.0,64,L,2765649,2765835,188,552.3,577.6,3649,left
42,2,continuous,14,5,trial,2765194.0,2767627.0,2433.0,64,L,2765895,2766135,242,1374.0,526.5,3545,right
42,2,continuous,14,5,trial,2765194.0,2767627.0,2433.0,64,L,2766159,2766481,324,1503.6,448.6,3506,right
42,2,continuous,14,5,trial,2765194.0,2767627.0,2433.0,64,L,2766509,2766693,186,1471.4,525.0,3464,right
42,2,continuous,14,5,trial,2765194.0,2767627.0,2433.0,64,L,2766763,2767017,256,671.3,605.4,3526,left
42,2,continuous,14,5,trial,2765194.0,2767627.0,2433.0,64,L,2767039,2767237,200,561.7,587.1,3636,left
42,2,continuous,14,5,trial,2765194.0,2767627.0,2433.0,64,L,2767261,2767871,612,671.2,603.6,3820,left
42,2,continuous,15,100,trial,2768327.0,2771744.0,3417.0,65,L,2768061,2768493,434,948.8,643.7,3914,NA
42,2,continuous,15,100,trial,2768327.0,2771744.0,3417.0,65,L,2768533,2768737,206,651.5,657.2,4103,left
42,2,continuous,15,100,trial,2768327.0,2771744.0,3417.0,65,L,2768765,2769091,328,490.4,685.3,3732,left
42,2,continuous,15,100,trial,2768327.0,2771744.0,3417.0,65,L,2769119,2769325,208,410.8,646.4,3588,left
42,2,continuous,15,100,trial,2768327.0,2771744.0,3417.0,65,L,2769351,2769565,216,581.4,649.0,3653,left
42,2,continuous,15,100,trial,2768327.0,2771744.0,3417.0,65,L,2769629,2770025,398,1430.8,566.7,3551,right
42,2,continuous,15,100,trial,2768327.0,2771744.0,3417.0,65,L,2770047,2770489,444,1544.6,537.3,3519,right
42,2,continuous,15,100,trial,2768327.0,2771744.0,3417.0,65,L,2770569,2771077,510,614.1,625.4,3516,left
42,2,continuous,15,100,trial,2768327.0,2771744.0,3417.0,65,L,2771143,2771465,324,1358.4,873.1,3426,NA
42,2,continuous,15,100,trial,2768327.0,2771744.0,3417.0,65,L,2771493,2771825,334,1443.0,1024.8,3696,NA
42,2,continuous,15,100,trial,2768327.0,2771744.0,3417.0,65,L,2771877,2771965,90,949.7,673.8,3956,NA
42,2,continuous,16,87,trial,2772443.0,2775878.0,3435.0,66,L,2772165,2772621,458,728.9,556.0,3897,left
42,2,continuous,16,87,trial,2772443.0,2775878.0,3435.0,66,L,2772651,2772939,290,565.1,652.3,3814,left
42,2,continuous,16,87,trial,2772443.0,2775878.0,3435.0,66,L,2773001,2773363,364,1375.2,583.4,3476,right
42,2,continuous,16,87,trial,2772443.0,2775878.0,3435.0,66,L,2773385,2773705,322,1520.2,558.0,3363,right
42,2,continuous,16,87,trial,2772443.0,2775878.0,3435.0,66,L,2773719,2774027,310,1488.2,578.6,3367,right
42,2,continuous,16,87,trial,2772443.0,2775878.0,3435.0,66,L,2774067,2774207,142,1638.3,483.5,3416,right
42,2,continuous,16,87,trial,2772443.0,2775878.0,3435.0,66,L,2774367,2774619,254,1410.4,650.9,3601,right
42,2,continuous,16,87,trial,2772443.0,2775878.0,3435.0,66,L,2774633,2774925,294,1445.1,596.8,3746,right
42,2,continuous,16,87,trial,2772443.0,2775878.0,3435.0,66,L,2774947,2775145,200,1345.0,563.5,3501,right
42,2,continuous,16,87,trial,2772443.0,2775878.0,3435.0,66,L,2775211,2776129,920,600.1,626.1,3471,left
42,2,continuous,17,100,trial,2776577.0,2779777.0,3200.0,67,L,2776317,2776715,400,997.4,643.9,3653,NA
42,2,continuous,17,100,trial,2776577.0,2779777.0,3200.0,67,L,2776757,2776957,202,594.1,631.6,3956,left
42,2,continuous,17,100,trial,2776577.0,2779777.0,3200.0,67,L,2776987,2777119,134,484.0,520.2,3673,left
42,2,continuous,17,100,trial,2776577.0,2779777.0,3200.0,67,L,2777181,2777411,232,1438.1,561.5,3411,right
42,2,continuous,17,100,trial,2776577.0,2779777.0,3200.0,67,L,2777433,2778161,730,1354.6,576.8,3377,right
42,2,continuous,17,100,trial,2776577.0,2779777.0,3200.0,67,L,2778197,2778353,158,1575.0,528.3,3284,right
42,2,continuous,17,100,trial,2776577.0,2779777.0,3200.0,67,L,2778431,2778777,348,544.7,607.5,3415,left
42,2,continuous,17,100,trial,2776577.0,2779777.0,3200.0,67,L,2778857,2779007,152,1431.3,627.0,3438,right
42,2,continuous,17,100,trial,2776577.0,2779777.0,3200.0,67,L,2779045,2779295,252,1427.8,980.8,3398,NA
42,2,continuous,17,100,trial,2776577.0,2779777.0,3200.0,67,L,2779345,2779595,252,1366.2,572.4,3714,right
42,2,continuous,17,100,trial,2776577.0,2779777.0,3200.0,67,L,2779627,2779973,348,1566.5,551.9,3744,right
42,2,continuous,18,100,fixationCross,2780493.0,2782944.0,2451.0,68,L,2780223,2780437,216,927.0,624.9,3884,NA
42,2,continuous,18,100,trial,2780493.0,2782944.0,2451.0,68,L,2780475,2780695,222,736.4,656.9,4142,left
42,2,continuous,18,100,trial,2780493.0,2782944.0,2451.0,68,L,2780721,2780951,232,688.2,597.5,3969,left
42,2,continuous,18,100,trial,2780493.0,2782944.0,2451.0,68,L,2780991,2781163,174,375.8,454.6,3717,left
42,2,continuous,18,100,trial,2780493.0,2782944.0,2451.0,68,L,2781225,2781595,372,1325.0,579.0,3794,right
42,2,continuous,18,100,trial,2780493.0,2782944.0,2451.0,68,L,2781625,2782031,408,1516.7,551.4,3878,right
42,2,continuous,18,100,trial,2780493.0,2782944.0,2451.0,68,L,2782059,2782621,564,1305.6,568.6,3970,right
42,2,continuous,18,100,trial,2780493.0,2782944.0,2451.0,68,L,2782669,2782913,246,1440.5,967.7,4171,NA
42,2,continuous,18,100,trial,2780493.0,2782944.0,2451.0,68,L,2782991,2783211,222,625.5,604.9,4057,left
42,2,continuous,19,100,trial,2783777.0,2787194.0,3417.0,69,L,2783389,2783953,566,939.1,588.8,4089,NA
42,2,continuous,19,100,trial,2783777.0,2787194.0,3417.0,69,L,2783997,2784167,172,603.5,658.0,4141,left
42,2,continuous,19,100,trial,2783777.0,2787194.0,3417.0,69,L,2784191,2784545,356,547.6,741.6,3923,NA
42,2,continuous,19,100,trial,2783777.0,2787194.0,3417.0,69,L,2784607,2784817,212,1375.6,578.2,3693,right
42,2,continuous,19,100,trial,2783777.0,2787194.0,3417.0,69,L,2784839,2785033,196,1498.8,548.6,3659,right
42,2,continuous,19,100,trial,2783777.0,2787194.0,3417.0,69,L,2785059,2785873,816,1343.9,569.6,4007,right
42,2,continuous,19,100,trial,2783777.0,2787194.0,3417.0,69,L,2785897,2786039,144,1475.4,529.4,4076,right
42,2,continuous,19,100,trial,2783777.0,2787194.0,3417.0,69,L,2786085,2786391,308,1418.8,1018.3,4206,NA
42,2,continuous,19,100,trial,2783777.0,2787194.0,3417.0,69,L,2786475,2787151,678,539.2,713.2,4030,left
42,2,continuous,19,100,postResponse,2783777.0,2787194.0,3417.0,69,L,2787299,2787537,240,1423.1,612.5,3458,right
42,2,continuous,20,17,fixationCross,2787911.0,2790544.0,2633.0,70,L,2787639,2787865,228,1028.3,620.6,3792,NA
42,2,continuous,20,17,trial,2787911.0,2790544.0,2633.0,70,L,2787907,2788099,194,791.9,632.6,4037,NA
42,2,continuous,20,17,trial,2787911.0,2790544.0,2633.0,70,L,2788125,2788469,346,709.2,652.5,3817,left
42,2,continuous,20,17,trial,2787911.0,2790544.0,2633.0,70,L,2788519,2789047,530,1403.5,553.9,3212,right
42,2,continuous,20,17,trial,2787911.0,2790544.0,2633.0,70,L,2789069,2789261,194,1303.4,543.8,3208,right
42,2,continuous,20,17,trial,2787911.0,2790544.0,2633.0,70,L,2789431,2789599,170,1383.0,613.8,3215,right
42,2,continuous,20,17,trial,2787911.0,2790544.0,2633.0,70,L,2789659,2789967,310,674.8,633.3,3617,left
42,2,continuous,20,17,trial,2787911.0,2790544.0,2633.0,70,L,2789981,2790435,456,724.4,630.7,3356,left
42,2,continuous,20,17,postResponse,2787911.0,2790544.0,2633.0,70,L,2790459,2790893,436,672.7,569.8,3148,left
42,2,continuous,21,100,fixationCross,2791260.0,2793894.0,2634.0,71,L,2790993,2791065,74,673.6,578.1,3207,left
42,2,continuous,21,100,trial,2791260.0,2793894.0,2634.0,71,L,2791099,2791355,258,883.2,610.6,3385,NA
42,2,continuous,21,100,trial,2791260.0,2793894.0,2634.0,71,L,2791377,2791503,128,975.5,594.1,3556,NA
42,2,continuous,21,100,trial,2791260.0,2793894.0,2634.0,71,L,2791543,2791723,182,1372.1,551.1,3530,right
42,2,continuous,21,100,trial,2791260.0,2793894.0,2634.0,71,L,2791749,2791963,216,1557.6,526.2,3388,right
42,2,continuous,21,100,trial,2791260.0,2793894.0,2634.0,71,L,2791991,2792257,268,1411.1,535.1,3449,right
42,2,continuous,21,100,trial,2791260.0,2793894.0,2634.0,71,L,2792323,2792497,176,680.2,643.8,3646,left
42,2,continuous,21,100,trial,2791260.0,2793894.0,2634.0,71,L,2792523,2792829,308,554.9,696.3,3584,left
42,2,continuous,21,100,trial,2791260.0,2793894.0,2634.0,71,L,2792983,2793249,268,1583.3,552.8,2987,right
42,2,continuous,21,100,trial,2791260.0,2793894.0,2634.0,71,L,2793271,2793535,266,1458.1,569.9,3175,right
42,2,continuous,21,100,trial,2791260.0,2793894.0,2634.0,71,L,2793543,2793669,128,1421.7,558.7,3420,right
42,2,continuous,21,100,trial,2791260.0,2793894.0,2634.0,71,L,2793695,2794149,456,1573.8,514.1,3415,right
42,2,continuous,21,100,postResponse,2791260.0,2793894.0,2634.0,71,L,2794191,2794239,50,1291.8,535.8,3480,right
42,2,continuous,22,100,fixationCross,2794595.0,2797494.0,2899.0,72,L,2794339,2794403,66,1289.6,538.5,3527,right
42,2,continuous,22,100,trial,2794595.0,2797494.0,2899.0,72,L,2794463,2794751,290,787.8,630.3,3785,NA
42,2,continuous,22,100,trial,2794595.0,2797494.0,2899.0,72,L,2794795,2794917,124,436.5,502.6,3832,left
42,2,continuous,22,100,trial,2794595.0,2797494.0,2899.0,72,L,2794955,2795271,318,30.0,262.6,3539,NA
42,2,continuous,22,100,trial,2794595.0,2797494.0,2899.0,72,L,2795339,2795635,298,1405.9,539.7,3276,right
42,2,continuous,22,100,trial,2794595.0,2797494.0,2899.0,72,L,2795789,2796239,452,1483.4,541.9,3206,right
42,2,continuous,22,100,trial,2794595.0,2797494.0,2899.0,72,L,2796323,2796353,32,458.2,387.9,3286,left
42,2,continuous,22,100,trial,2794595.0,2797494.0,2899.0,72,L,2796407,2796457,52,452.8,399.5,3240,left
42,2,continuous,22,100,trial,2794595.0,2797494.0,2899.0,72,L,2796481,2796485,6,449.9,394.8,3233,left
42,2,continuous,22,100,trial,2794595.0,2797494.0,2899.0,72,L,2796527,2796787,262,393.8,290.3,3204,NA
42,2,continuous,22,100,trial,2794595.0,2797494.0,2899.0,72,L,2796819,2796887,70,392.4,284.3,3213,NA
42,2,continuous,22,100,trial,2794595.0,2797494.0,2899.0,72,L,2796981,2797133,154,46.9,276.3,3201,NA
42,2,continuous,22,100,trial,2794595.0,2797494.0,2899.0,72,L,2797283,2797769,488,1400.1,535.4,3379,right
42,2,continuous,22,100,postResponse,2794595.0,2797494.0,2899.0,72,L,2797789,2797839,52,1273.8,536.4,3450,right
42,2,continuous,23,1,fixationCross,2798210.0,2802194.0,3984.0,73,L,2797939,2798079,142,1259.7,538.0,3528,right
42,2,continuous,23,1,trial,2798210.0,2802194.0,3984.0,73,L,2798121,2798343,224,963.4,587.0,3867,NA
42,2,continuous,23,1,trial,2798210.0,2802194.0,3984.0,73,L,2798383,2798609,228,646.6,648.6,4047,left
42,2,continuous,23,1,trial,2798210.0,2802194.0,3984.0,73,L,2798643,2798955,314,265.3,371.3,3815,left
42,2,continuous,23,1,trial,2798210.0,2802194.0,3984.0,73,L,2798993,2799309,318,679.4,641.6,3837,left
42,2,continuous,23,1,trial,2798210.0,2802194.0,3984.0,73,L,2799367,2799921,556,1411.9,550.0,3877,right
42,2,continuous,23,1,trial,2798210.0,2802194.0,3984.0,73,L,2799999,2800151,154,529.6,672.0,3936,left
42,2,continuous,23,1,trial,2798210.0,2802194.0,3984.0,73,L,2800181,2800655,476,249.3,379.2,3779,left
42,2,continuous,23,1,trial,2798210.0,2802194.0,3984.0,73,L,2800693,2800889,198,699.4,626.1,3748,left
42,2,continuous,23,1,trial,2798210.0,2802194.0,3984.0,73,L,2801047,2801477,432,496.3,761.8,3835,NA
42,2,continuous,23,1,trial,2798210.0,2802194.0,3984.0,73,L,2801497,2801653,158,406.5,747.8,4036,NA
42,2,continuous,23,1,trial,2798210.0,2802194.0,3984.0,73,L,2801699,2802139,442,546.2,945.8,3908,NA
42,2,continuous,23,1,postResponse,2798210.0,2802194.0,3984.0,73,L,2802213,2802537,326,1421.5,549.6,3663,right
42,2,continuous,24,100,trial,2802877.0,2804894.0,2017.0,74,L,2802759,2803039,282,894.9,640.3,3860,NA
42,2,continuous,24,100,trial,2802877.0,2804894.0,2017.0,74,L,2803073,2803665,594,610.0,703.2,3839,left
42,2,continuous,24,100,trial,2802877.0,2804894.0,2017.0,74,L,2803723,2804093,372,1376.6,541.8,3420,right
42,2,continuous,24,100,trial,2802877.0,2804894.0,2017.0,74,L,2804115,2804403,290,1465.5,532.2,3352,right
42,2,continuous,24,100,trial,2802877.0,2804894.0,2017.0,74,L,2804425,2805143,720,1485.3,499.3,3350,right
42,2,continuous,24,100,postResponse,2802877.0,2804894.0,2017.0,74,L,2805167,2805237,72,1320.0,520.3,3519,right
42,2,continuous,25,100,fixationCross,2805594.0,2809411.0,3817.0,75,L,2805311,2805417,108,1315.1,521.1,3608,right
42,2,continuous,25,100,trial,2805594.0,2809411.0,3817.0,75,L,2805461,2805731,272,976.7,568.6,3838,NA
42,2,continuous,25,100,trial,2805594.0,2809411.0,3817.0,75,L,2805773,2805963,192,617.3,660.3,3885,left
42,2,continuous,25,100,trial,2805594.0,2809411.0,3817.0,75,L,2805985,2806137,154,520.6,694.3,3705,left
42,2,continuous,25,100,trial,2805594.0,2809411.0,3817.0,75,L,2806331,2806545,216,432.9,491.0,3523,left
42,2,continuous,25,100,trial,2805594.0,2809411.0,3817.0,75,L,2806609,2806829,222,1336.5,567.2,3642,right
42,2,continuous,25,100,trial,2805594.0,2809411.0,3817.0,75,L,2806843,2807223,382,1395.8,542.0,3450,right
42,2,continuous,25,100,trial,2805594.0,2809411.0,3817.0,75,L,2807253,2807403,152,1584.2,541.4,3351,right
42,2,continuous,25,100,trial,2805594.0,2809411.0,3817.0,75,L,2807477,2807735,260,609.4,660.3,3413,left
42,2,continuous,25,100,trial,2805594.0,2809411.0,3817.0,75,L,2807751,2808075,326,544.4,676.5,3460,left
42,2,continuous,25,100,trial,2805594.0,2809411.0,3817.0,75,L,2808137,2808359,224,1310.0,531.4,3468,right
42,2,continuous,25,100,trial,2805594.0,2809411.0,3817.0,75,L,2808381,2808719,340,1402.9,524.7,3463,right
42,2,continuous,25,100,trial,2805594.0,2809411.0,3817.0,75,L,2808745,2808993,250,1609.1,526.7,3465,right
42,2,continuous,25,100,trial,2805594.0,2809411.0,3817.0,75,L,2809019,2809649,632,1428.8,521.7,3585,right
42,2,continuous,26,100,fixationCross,2896529.0,2899995.0,3466.0,76,R,2896243,2896493,252,395.5,211.8,3893,NA
42,2,continuous,26,100,trial,2896529.0,2899995.0,3466.0,76,R,2896553,2896635,84,708.6,54.9,3657,NA
42,2,continuous,26,100,trial,2896529.0,2899995.0,3466.0,76,R,2896653,2896697,46,708.8,12.6,3625,NA
42,2,continuous,26,100,trial,2896529.0,2899995.0,3466.0,76,R,2896717,2896733,18,712.3,57.9,3624,NA
42,2,continuous,26,100,trial,2896529.0,2899995.0,3466.0,76,R,2896787,2896999,214,1120.9,575.6,3613,NA
42,2,continuous,26,100,trial,2896529.0,2899995.0,3466.0,76,R,2897037,2897919,884,1451.3,579.5,3373,right
42,2,continuous,26,100,trial,2896529.0,2899995.0,3466.0,76,R,2897937,2898127,192,1506.3,582.2,3350,right
42,2,continuous,26,100,trial,2896529.0,2899995.0,3466.0,76,R,2898139,2898425,288,1458.3,581.9,3386,right
42,2,continuous,26,100,trial,2896529.0,2899995.0,3466.0,76,R,2898451,2898529,80,1607.1,581.9,3315,right
42,2,continuous,26,100,trial,2896529.0,2899995.0,3466.0,76,R,2898967,2899209,244,640.5,441.0,3770,left
42,2,continuous,26,100,trial,2896529.0,2899995.0,3466.0,76,R,2899239,2899339,102,583.7,650.8,4082,left
42,2,continuous,26,100,trial,2896529.0,2899995.0,3466.0,76,R,2899521,2899781,262,1454.0,562.0,3456,right
42,2,continuous,26,100,trial,2896529.0,2899995.0,3466.0,76,R,2899831,2900009,180,1352.9,1016.6,3647,NA
42,2,continuous,26,100,trial,2896529.0,2899995.0,3466.0,76,R,2900021,2900239,220,1386.3,1023.7,3775,NA
42,2,continuous,26,100,postResponse,2896529.0,2899995.0,3466.0,76,R,2900307,2900339,34,1050.7,475.4,3894,NA
42,2,continuous,27,1,trial,2900662.0,2902246.0,1584.0,77,R,2900413,2900901,490,1054.4,467.2,4088,NA
42,2,continuous,27,1,trial,2900662.0,2902246.0,1584.0,77,R,2900937,2901181,246,1338.3,468.4,4098,right
42,2,continuous,27,1,trial,2900662.0,2902246.0,1584.0,77,R,2901195,2901315,122,1291.3,464.7,4060,right
42,2,continuous,27,1,trial,2900662.0,2902246.0,1584.0,77,R,2901373,2901593,222,611.8,555.2,4207,left
42,2,continuous,27,1,trial,2900662.0,2902246.0,1584.0,77,R,2901619,2902057,440,458.6,588.7,4119,left
42,2,continuous,27,1,trial,2900662.0,2902246.0,1584.0,77,R,2902111,2902213,104,480.2,1102.5,4144,NA
42,2,continuous,27,1,trial,2900662.0,2902246.0,1584.0,77,R,2902231,2902509,280,498.0,1057.1,4226,NA
42,2,continuous,28,100,trial,2902929.0,2905378.0,2449.0,78,R,2902753,2903019,268,1072.0,512.9,4238,NA
42,2,continuous,28,100,trial,2902929.0,2905378.0,2449.0,78,R,2903037,2903157,122,1004.0,502.0,4491,NA
42,2,continuous,28,100,trial,2902929.0,2905378.0,2449.0,78,R,2903199,2903491,294,613.9,592.1,4302,left
42,2,continuous,28,100,trial,2902929.0,2905378.0,2449.0,78,R,2903521,2903805,286,453.1,425.8,3950,left
42,2,continuous,28,100,trial,2902929.0,2905378.0,2449.0,78,R,2903875,2904281,408,1428.6,566.6,3762,right
42,2,continuous,28,100,trial,2902929.0,2905378.0,2449.0,78,R,2904309,2904651,344,1385.4,444.5,3696,right
42,2,continuous,28,100,trial,2902929.0,2905378.0,2449.0,78,R,2904685,2905021,338,1298.2,603.0,3688,right
42,2,continuous,28,100,trial,2902929.0,2905378.0,2449.0,78,R,2905087,2905309,224,557.1,535.7,3941,left
42,2,continuous,28,100,trial,2902929.0,2905378.0,2449.0,78,R,2905379,2905639,262,1318.0,972.9,3888,NA
42,2,continuous,29,72,trial,2906079.0,2908596.0,2517.0,79,R,2905849,2906229,382,876.4,502.8,4220,NA
42,2,continuous,29,72,trial,2906079.0,2908596.0,2517.0,79,R,2906261,2906371,112,645.2,429.9,4290,left
42,2,continuous,29,72,trial,2906079.0,2908596.0,2517.0,79,R,2906437,2906495,60,633.9,416.6,4037,left
42,2,continuous,29,72,trial,2906079.0,2908596.0,2517.0,79,R,2906521,2906581,62,633.2,409.1,3908,left
42,2,continuous,29,72,trial,2906079.0,2908596.0,2517.0,79,R,2906639,2906957,320,1321.2,488.5,3696,right
42,2,continuous,29,72,trial,2906079.0,2908596.0,2517.0,79,R,2906981,2907235,256,1361.9,581.4,3612,right
42,2,continuous,29,72,trial,2906079.0,2908596.0,2517.0,79,R,2907301,2907659,360,616.4,356.5,3595,left
42,2,continuous,29,72,trial,2906079.0,2908596.0,2517.0,79,R,2907709,2907741,34,612.1,354.2,3666,left
42,2,continuous,29,72,trial,2906079.0,2908596.0,2517.0,79,R,2907765,2907837,74,612.5,355.4,3746,left
42,2,continuous,29,72,trial,2906079.0,2908596.0,2517.0,79,R,2908031,2908439,410,1324.9,521.1,3891,right
42,2,continuous,29,72,trial,2906079.0,2908596.0,2517.0,79,R,2908469,2908867,400,1370.3,599.2,3991,right
42,2,continuous,29,72,postResponse,2906079.0,2908596.0,2517.0,79,R,2908885,2908939,56,1271.5,604.6,3965,right
42,2,continuous,30,1,fixationCross,2909295.0,2912562.0,3267.0,80,R,2909013,2909093,82,1264.0,601.7,3918,right
42,2,continuous,30,1,trial,2909295.0,2912562.0,3267.0,80,R,2909131,2909375,246,1051.7,577.5,4082,NA
42,2,continuous,30,1,trial,2909295.0,2912562.0,3267.0,80,R,2909393,2909493,102,993.3,563.7,4317,NA
42,2,continuous,30,1,trial,2909295.0,2912562.0,3267.0,80,R,2909535,2909759,226,605.6,549.0,4345,left
42,2,continuous,30,1,trial,2909295.0,2912562.0,3267.0,80,R,2909795,2910071,278,379.9,576.5,4035,left
42,2,continuous,30,1,trial,2909295.0,2912562.0,3267.0,80,R,2910147,2910393,248,1425.1,558.9,3813,right
42,2,continuous,30,1,trial,2909295.0,2912562.0,3267.0,80,R,2910415,2910625,212,1525.1,571.5,3812,right
42,2,continuous,30,1,trial,2909295.0,2912562.0,3267.0,80,R,2910699,2911117,420,630.6,518.3,3889,left
42,2,continuous,30,1,trial,2909295.0,2912562.0,3267.0,80,R,2911287,2911613,328,1478.0,548.3,3813,right
42,2,continuous,30,1,trial,2909295.0,2912562.0,3267.0,80,R,2911635,2911813,180,1404.7,614.8,3933,right
42,2,continuous,30,1,trial,2909295.0,2912562.0,3267.0,80,R,2911887,2912325,440,611.1,588.4,4001,left
42,2,continuous,30,1,trial,2909295.0,2912562.0,3267.0,80,R,2912359,2912589,232,470.6,539.2,4124,left
42,2,continuous,30,1,trial,2909295.0,2912562.0,3267.0,80,R,2912609,2912821,214,378.3,548.2,4173,left
42,2,continuous,31,1,fixationCross,2913246.0,2915545.0,2299.0,81,R,2912989,2912995,8,1093.5,492.1,4042,NA
42,2,continuous,31,1,fixationCross,2913246.0,2915545.0,2299.0,81,R,2913019,2913061,44,1091.2,523.4,4018,NA
42,2,continuous,31,1,fixationCross,2913246.0,2915545.0,2299.0,81,R,2913083,2913223,142,1096.9,511.1,4065,NA
42,2,continuous,31,1,trial,2913246.0,2915545.0,2299.0,81,R,2913251,2913427,178,944.5,471.4,4294,NA
42,2,continuous,31,1,trial,2913246.0,2915545.0,2299.0,81,R,2913467,2913701,236,577.1,544.9,4277,left
42,2,continuous,31,1,trial,2913246.0,2915545.0,2299.0,81,R,2913727,2914057,332,505.4,480.4,3869,left
42,2,continuous,31,1,trial,2913246.0,2915545.0,2299.0,81,R,2914125,2914441,318,1369.0,490.7,3567,right
42,2,continuous,31,1,trial,2913246.0,2915545.0,2299.0,81,R,2914461,2914793,334,1433.1,544.0,3626,right
42,2,continuous,31,1,trial,2913246.0,2915545.0,2299.0,81,R,2914859,2915083,226,630.7,658.3,3939,left
42,2,continuous,31,1,trial,2913246.0,2915545.0,2299.0,81,R,2915109,2915481,374,459.6,570.5,3971,left
42,2,continuous,31,1,trial,2913246.0,2915545.0,2299.0,81,R,2915505,2915783,280,510.8,493.3,3889,left
42,2,continuous,32,100,trial,2916279.0,2918029.0,1750.0,82,R,2915991,2916351,362,840.5,476.7,3957,NA
42,2,continuous,32,100,trial,2916279.0,2918029.0,1750.0,82,R,2916377,2916479,104,932.4,461.0,4091,NA
42,2,continuous,32,100,trial,2916279.0,2918029.0,1750.0,82,R,2916529,2916839,312,518.4,430.6,3832,left
42,2,continuous,32,100,trial,2916279.0,2918029.0,1750.0,82,R,2916907,2917247,342,1414.3,503.5,3476,right
42,2,continuous,32,100,trial,2916279.0,2918029.0,1750.0,82,R,2917261,2917613,354,1467.8,531.1,3557,right
42,2,continuous,32,100,trial,2916279.0,2918029.0,1750.0,82,R,2917661,2917821,162,1267.8,1088.6,3733,NA
42,2,continuous,32,100,trial,2916279.0,2918029.0,1750.0,82,R,2917843,2917973,132,1350.3,1102.0,3809,NA
42,2,continuous,32,100,postResponse,2916279.0,2918029.0,1750.0,82,R,2918023,2918373,352,1384.4,512.1,3867,right
42,2,continuous,33,50,fixationCross,2918712.0,2921663.0,2951.0,83,R,2918447,2918651,206,1111.4,476.0,4062,NA
42,2,continuous,33,50,trial,2918712.0,2921663.0,2951.0,83,R,2918701,2918877,178,709.6,485.9,4174,left
42,2,continuous,33,50,trial,2918712.0,2921663.0,2951.0,83,R,2918909,2919251,344,496.2,524.9,4135,left
42,2,continuous,33,50,trial,2918712.0,2921663.0,2951.0,83,R,2919313,2919601,290,1320.0,475.8,3824,right
42,2,continuous,33,50,trial,2918712.0,2921663.0,2951.0,83,R,2919627,2919731,106,1446.0,541.1,3765,right
42,2,continuous,33,50,trial,2918712.0,2921663.0,2951.0,83,R,2919879,2920049,172,1564.2,612.9,3644,right
42,2,continuous,33,50,trial,2918712.0,2921663.0,2951.0,83,R,2920075,2920355,282,1447.4,550.8,3758,right
42,2,continuous,33,50,trial,2918712.0,2921663.0,2951.0,83,R,2920427,2921023,598,507.2,459.0,3814,left
42,2,continuous,33,50,trial,2918712.0,2921663.0,2951.0,83,R,2921047,2921139,94,503.4,407.0,3845,left
