participantNo,block,task,blockTrial,response,trialStage,trialStartTime,trialFinishTime,rt,trial,eye,fixStart,fixEnd,fixLength,fixPosX,fixPosY,dilation,aoi
60,1,binary,1,2,fixationCross,21673171.0,21678072.0,4901.0,1,R,21672382,21672836,456,864.1,441.7,5209,NA
60,1,binary,1,2,trial,21673171.0,21678072.0,4901.0,1,R,21672862,21673406,546,933.6,550.3,5185,NA
60,1,binary,1,2,trial,21673171.0,21678072.0,4901.0,1,R,21673452,21673658,208,509.2,498.5,5330,left
60,1,binary,1,2,trial,21673171.0,21678072.0,4901.0,1,R,21673716,21674154,440,920.7,1006.4,4922,likertHorizontal
60,1,binary,1,2,trial,21673171.0,21678072.0,4901.0,1,R,21674198,21674352,156,435.4,968.7,4924,NA
60,1,binary,1,2,trial,21673171.0,21678072.0,4901.0,1,R,21674514,21674548,36,438.2,511.6,5105,left
60,1,binary,1,2,trial,21673171.0,21678072.0,4901.0,1,R,21674562,21674708,148,444.2,480.6,5154,left
60,1,binary,1,2,trial,21673171.0,21678072.0,4901.0,1,R,21674734,21674942,210,518.8,602.5,5154,left
60,1,binary,1,2,trial,21673171.0,21678072.0,4901.0,1,R,21675000,21675352,354,1365.8,551.5,4706,right
60,1,binary,1,2,trial,21673171.0,21678072.0,4901.0,1,R,21675376,21675642,268,1471.1,591.7,4334,right
60,1,binary,1,2,trial,21673171.0,21678072.0,4901.0,1,R,21675662,21675908,248,1398.9,629.6,4339,right
60,1,binary,1,2,trial,21673171.0,21678072.0,4901.0,1,R,21675936,21676090,156,1593.2,575.6,4390,right
60,1,binary,1,2,trial,21673171.0,21678072.0,4901.0,1,R,21676134,21676334,202,1430.7,1028.5,4613,NA
60,1,binary,1,2,trial,21673171.0,21678072.0,4901.0,1,R,21676408,21676604,198,419.6,635.4,4583,left
60,1,binary,1,2,trial,21673171.0,21678072.0,4901.0,1,R,21676634,21676928,296,484.1,473.1,4636,left
60,1,binary,1,2,trial,21673171.0,21678072.0,4901.0,1,R,21676958,21677394,438,554.8,603.1,4653,left
60,1,binary,1,2,trial,21673171.0,21678072.0,4901.0,1,R,21677458,21677704,248,1389.8,560.8,4611,right
60,1,binary,1,2,trial,21673171.0,21678072.0,4901.0,1,R,21677726,21677898,174,1538.5,588.5,4435,right
60,1,binary,1,2,postResponse,21673171.0,21678072.0,4901.0,1,R,21677924,21678394,472,1385.7,631.0,4358,right
60,1,binary,2,2,fixationCross,21679238.0,21682072.0,2834.0,2,R,21678534,21678754,222,827.0,446.6,4743,NA
60,1,binary,2,2,fixationCross,21679238.0,21682072.0,2834.0,2,R,21678778,21678912,136,677.9,418.3,4988,left
60,1,binary,2,2,fixationCross,21679238.0,21682072.0,2834.0,2,R,21678954,21679158,206,912.7,527.0,5201,NA
60,1,binary,2,2,trial,21679238.0,21682072.0,2834.0,2,R,21679172,21679258,88,956.5,548.5,5323,NA
60,1,binary,2,2,trial,21679238.0,21682072.0,2834.0,2,R,21679496,21679550,56,981.1,448.8,5553,NA
60,1,binary,2,2,trial,21679238.0,21682072.0,2834.0,2,R,21679596,21679934,340,484.4,442.9,5418,left
60,1,binary,2,2,trial,21679238.0,21682072.0,2834.0,2,R,21680002,21680266,266,1408.7,489.7,4446,right
60,1,binary,2,2,trial,21679238.0,21682072.0,2834.0,2,R,21680282,21680306,26,1412.7,560.3,4047,right
60,1,binary,2,2,trial,21679238.0,21682072.0,2834.0,2,R,21680340,21680360,22,1419.7,704.0,3552,right
60,1,binary,2,2,trial,21679238.0,21682072.0,2834.0,2,R,21680464,21680636,174,1443.0,1020.7,4219,NA
60,1,binary,2,2,trial,21679238.0,21682072.0,2834.0,2,R,21680658,21680786,130,1340.5,973.7,4480,NA
60,1,binary,2,2,trial,21679238.0,21682072.0,2834.0,2,R,21680862,21681028,168,403.2,913.4,4763,NA
60,1,binary,2,2,trial,21679238.0,21682072.0,2834.0,2,R,21681178,21681228,52,388.4,634.3,4851,left
60,1,binary,2,2,trial,21679238.0,21682072.0,2834.0,2,R,21681276,21681532,258,429.2,459.4,4916,left
60,1,binary,2,2,trial,21679238.0,21682072.0,2834.0,2,R,21681620,21682294,676,1420.6,546.9,4450,right
60,1,binary,3,1,fixationCross,21683271.0,21687605.0,4334.0,3,R,21682518,21682742,226,817.9,412.7,5091,NA
60,1,binary,3,1,fixationCross,21683271.0,21687605.0,4334.0,3,R,21682776,21682924,150,693.8,477.2,5288,left
60,1,binary,3,1,trial,21683271.0,21687605.0,4334.0,3,R,21682958,21683424,468,905.0,519.9,5431,NA
60,1,binary,3,1,trial,21683271.0,21687605.0,4334.0,3,R,21683470,21683820,352,481.4,532.0,5112,left
60,1,binary,3,1,trial,21683271.0,21687605.0,4334.0,3,R,21683836,21683998,164,431.8,582.5,4466,left
60,1,binary,3,1,trial,21683271.0,21687605.0,4334.0,3,R,21684060,21684428,370,1357.7,454.7,4150,right
60,1,binary,3,1,trial,21683271.0,21687605.0,4334.0,3,R,21684438,21685128,692,1380.1,463.6,4088,right
60,1,binary,3,1,trial,21683271.0,21687605.0,4334.0,3,R,21685198,21685440,244,486.4,537.6,4347,left
60,1,binary,3,1,trial,21683271.0,21687605.0,4334.0,3,R,21685460,21685846,388,441.6,590.0,4253,left
60,1,binary,3,1,trial,21683271.0,21687605.0,4334.0,3,R,21685868,21686216,350,369.3,565.8,4353,left
60,1,binary,3,1,trial,21683271.0,21687605.0,4334.0,3,R,21686290,21686570,282,1430.9,514.6,4335,right
60,1,binary,3,1,trial,21683271.0,21687605.0,4334.0,3,R,21686620,21686764,146,1439.3,1013.5,4363,NA
60,1,binary,3,1,trial,21683271.0,21687605.0,4334.0,3,R,21686816,21686916,102,814.1,902.0,4505,likertHorizontal
60,1,binary,3,1,trial,21683271.0,21687605.0,4334.0,3,R,21686974,21687586,614,382.2,544.9,4640,left
60,1,binary,3,1,postResponse,21683271.0,21687605.0,4334.0,3,R,21687618,21687942,326,481.9,462.0,4845,left
60,1,binary,4,1,fixationCross,21689305.0,21691455.0,2150.0,4,R,21688060,21688200,142,668.8,478.9,4911,left
60,1,binary,4,1,fixationCross,21689305.0,21691455.0,2150.0,4,R,21688224,21688448,226,555.9,480.0,5126,left
60,1,binary,4,1,fixationCross,21689305.0,21691455.0,2150.0,4,R,21688486,21688756,272,851.9,497.8,5322,NA
60,1,binary,4,1,fixationCross,21689305.0,21691455.0,2150.0,4,R,21688784,21688986,204,737.1,500.1,5517,NA
60,1,binary,4,1,fixationCross,21689305.0,21691455.0,2150.0,4,R,21689028,21689170,144,907.0,546.8,5651,NA
60,1,binary,4,1,trial,21689305.0,21691455.0,2150.0,4,R,21689564,21689826,264,556.5,489.4,5722,left
60,1,binary,4,1,trial,21689305.0,21691455.0,2150.0,4,R,21689848,21689992,146,572.1,419.3,5265,left
60,1,binary,4,1,trial,21689305.0,21691455.0,2150.0,4,R,21690016,21690076,62,465.9,495.3,4945,left
60,1,binary,4,1,trial,21689305.0,21691455.0,2150.0,4,R,21690142,21690376,236,1413.0,520.3,4501,right
60,1,binary,4,1,trial,21689305.0,21691455.0,2150.0,4,R,21690402,21690788,388,1537.8,422.8,4421,right
60,1,binary,4,1,trial,21689305.0,21691455.0,2150.0,4,R,21690862,21691206,346,461.2,498.6,4745,left
60,1,binary,4,1,trial,21689305.0,21691455.0,2150.0,4,R,21691232,21691756,526,357.2,583.4,4559,left
60,1,binary,5,1,fixationCross,21692572.0,21694506.0,1934.0,5,R,21691886,21692010,126,733.2,486.8,4416,left
60,1,binary,5,1,fixationCross,21692572.0,21694506.0,1934.0,5,R,21692036,21692240,206,614.3,483.5,4622,left
60,1,binary,5,1,trial,21692572.0,21694506.0,1934.0,5,R,21692274,21692636,364,904.1,505.8,4976,NA
60,1,binary,5,1,trial,21692572.0,21694506.0,1934.0,5,R,21692658,21692760,104,809.8,507.1,5193,NA
60,1,binary,5,1,trial,21692572.0,21694506.0,1934.0,5,R,21692796,21692992,198,523.0,464.3,5135,left
60,1,binary,5,1,trial,21692572.0,21694506.0,1934.0,5,R,21693004,21693208,206,526.9,428.1,4652,left
60,1,binary,5,1,trial,21692572.0,21694506.0,1934.0,5,R,21693270,21693540,272,1309.4,526.1,4204,right
60,1,binary,5,1,trial,21692572.0,21694506.0,1934.0,5,R,21693576,21693904,330,1585.9,563.9,4209,right
60,1,binary,5,1,trial,21692572.0,21694506.0,1934.0,5,R,21693926,21694024,100,1576.3,478.9,4211,right
60,1,binary,5,1,trial,21692572.0,21694506.0,1934.0,5,R,21694100,21694740,642,467.2,476.9,4326,left
60,1,binary,6,1,fixationCross,21696422.0,21698422.0,2000.0,6,R,21694944,21694954,12,483.0,953.0,3041,NA
60,1,binary,6,1,fixationCross,21696422.0,21698422.0,2000.0,6,R,21695054,21695296,244,641.6,525.1,4815,left
60,1,binary,6,1,fixationCross,21696422.0,21698422.0,2000.0,6,R,21695324,21696118,796,859.0,471.2,5314,NA
60,1,binary,6,1,fixationCross,21696422.0,21698422.0,2000.0,6,R,21696144,21696368,226,981.0,455.7,5558,NA
60,1,binary,6,1,trial,21696422.0,21698422.0,2000.0,6,R,21696388,21696482,96,910.5,470.1,5660,NA
60,1,binary,6,1,trial,21696422.0,21698422.0,2000.0,6,R,21696662,21696748,88,655.5,494.0,5723,left
60,1,binary,6,1,trial,21696422.0,21698422.0,2000.0,6,R,21696774,21697102,330,489.6,550.4,5153,left
60,1,binary,6,1,trial,21696422.0,21698422.0,2000.0,6,R,21697176,21697704,530,1420.3,481.4,4137,right
60,1,binary,6,1,trial,21696422.0,21698422.0,2000.0,6,R,21697754,21697928,176,1447.1,993.0,4360,NA
60,1,binary,6,1,trial,21696422.0,21698422.0,2000.0,6,R,21697940,21698016,78,1422.0,1017.3,4525,NA
60,1,binary,6,1,trial,21696422.0,21698422.0,2000.0,6,R,21698084,21698302,220,493.5,591.8,4597,left
60,1,binary,6,1,trial,21696422.0,21698422.0,2000.0,6,R,21698326,21698642,318,498.4,473.8,4331,left
60,1,binary,7,1,fixationCross,21699589.0,21704188.0,4599.0,7,R,21698864,21699286,424,650.7,382.3,4780,left
60,1,binary,7,1,trial,21699589.0,21704188.0,4599.0,7,R,21699328,21699660,334,951.9,524.4,5340,NA
60,1,binary,7,1,trial,21699589.0,21704188.0,4599.0,7,R,21699688,21699790,104,855.9,521.6,5433,NA
60,1,binary,7,1,trial,21699589.0,21704188.0,4599.0,7,R,21699834,21700114,282,519.8,612.8,5151,left
60,1,binary,7,1,trial,21699589.0,21704188.0,4599.0,7,R,21700130,21700242,114,468.8,655.3,4672,left
60,1,binary,7,1,trial,21699589.0,21704188.0,4599.0,7,R,21700300,21700474,176,1296.7,590.6,4382,right
60,1,binary,7,1,trial,21699589.0,21704188.0,4599.0,7,R,21700498,21700784,288,1464.6,522.0,4131,right
60,1,binary,7,1,trial,21699589.0,21704188.0,4599.0,7,R,21700794,21701268,476,1493.3,528.1,4046,right
60,1,binary,7,1,trial,21699589.0,21704188.0,4599.0,7,R,21701340,21701540,202,509.2,537.1,4342,left
60,1,binary,7,1,trial,21699589.0,21704188.0,4599.0,7,R,21701564,21701880,318,469.8,637.5,4358,left
60,1,binary,7,1,trial,21699589.0,21704188.0,4599.0,7,R,21701914,21702144,232,430.4,479.3,4225,left
60,1,binary,7,1,trial,21699589.0,21704188.0,4599.0,7,R,21702174,21702570,398,481.2,559.5,4173,left
60,1,binary,7,1,trial,21699589.0,21704188.0,4599.0,7,R,21702590,21702890,302,458.3,607.6,4204,left
60,1,binary,7,1,trial,21699589.0,21704188.0,4599.0,7,R,21702908,21703404,498,460.1,660.2,4381,left
60,1,binary,7,1,trial,21699589.0,21704188.0,4599.0,7,R,21703474,21703744,272,1405.0,609.5,4288,right
60,1,binary,7,1,trial,21699589.0,21704188.0,4599.0,7,R,21703766,21704050,286,1316.3,631.8,4092,right
60,1,binary,7,1,trial,21699589.0,21704188.0,4599.0,7,R,21704084,21704402,320,1507.9,518.0,4071,right
60,1,binary,8,1,fixationCross,21705339.0,21707606.0,2267.0,8,R,21704598,21704848,252,640.8,355.5,4457,left
60,1,binary,8,1,fixationCross,21705339.0,21707606.0,2267.0,8,R,21704888,21705100,214,973.2,433.0,4762,NA
60,1,binary,8,1,trial,21705339.0,21707606.0,2267.0,8,R,21705124,21705504,382,929.0,518.8,5019,NA
60,1,binary,8,1,trial,21705339.0,21707606.0,2267.0,8,R,21705552,21705980,430,476.5,490.8,4734,left
60,1,binary,8,1,trial,21705339.0,21707606.0,2267.0,8,R,21705992,21706080,90,413.7,499.3,4356,left
60,1,binary,8,1,trial,21705339.0,21707606.0,2267.0,8,R,21706144,21706440,298,1403.0,514.2,4277,right
60,1,binary,8,1,trial,21705339.0,21707606.0,2267.0,8,R,21706456,21706848,394,1438.1,485.3,4329,right
60,1,binary,8,1,trial,21705339.0,21707606.0,2267.0,8,R,21706918,21707232,316,448.8,492.8,4484,left
60,1,binary,8,1,trial,21705339.0,21707606.0,2267.0,8,R,21707260,21707540,282,470.5,620.9,4413,left
60,1,binary,8,1,trial,21705339.0,21707606.0,2267.0,8,R,21707558,21707812,256,424.2,663.4,4405,left
60,1,binary,9,1,fixationCross,21708739.0,21713055.0,4316.0,9,R,21708012,21708180,170,867.4,401.2,4425,NA
60,1,binary,9,1,fixationCross,21708739.0,21713055.0,4316.0,9,R,21708202,21708418,218,752.5,475.7,4644,NA
60,1,binary,9,1,trial,21708739.0,21713055.0,4316.0,9,R,21708446,21708930,486,914.8,483.5,4934,NA
60,1,binary,9,1,trial,21708739.0,21713055.0,4316.0,9,R,21708982,21709344,364,565.8,514.1,4789,left
60,1,binary,9,1,trial,21708739.0,21713055.0,4316.0,9,R,21709370,21709680,312,467.3,563.4,4459,left
60,1,binary,9,1,trial,21708739.0,21713055.0,4316.0,9,R,21709746,21710010,266,1383.5,525.1,4305,right
60,1,binary,9,1,trial,21708739.0,21713055.0,4316.0,9,R,21710028,21710390,364,1426.3,540.6,4204,right
60,1,binary,9,1,trial,21708739.0,21713055.0,4316.0,9,R,21710400,21710840,442,1454.0,514.8,4053,right
60,1,binary,9,1,trial,21708739.0,21713055.0,4316.0,9,R,21710874,21711242,370,1437.2,706.9,4170,right
60,1,binary,9,1,trial,21708739.0,21713055.0,4316.0,9,R,21711268,21711652,386,1483.7,605.6,4143,right
60,1,binary,9,1,trial,21708739.0,21713055.0,4316.0,9,R,21711666,21711818,154,1435.1,609.0,4127,right
60,1,binary,9,1,trial,21708739.0,21713055.0,4316.0,9,R,21711892,21712150,260,463.2,561.4,4309,left
60,1,binary,9,1,trial,21708739.0,21713055.0,4316.0,9,R,21712174,21712530,358,535.6,487.8,4120,left
60,1,binary,9,1,trial,21708739.0,21713055.0,4316.0,9,R,21712552,21713260,710,527.1,422.5,4307,left
60,1,binary,10,1,fixationCross,21715439.0,21717638.0,2199.0,10,R,21713466,21713818,354,672.7,484.9,4651,left
60,1,binary,10,1,fixationCross,21715439.0,21717638.0,2199.0,10,R,21713846,21714160,316,871.2,490.1,4858,NA
60,1,binary,10,1,fixationCross,21715439.0,21717638.0,2199.0,10,R,21714182,21714882,702,766.0,484.4,5033,NA
60,1,binary,10,1,fixationCross,21715439.0,21717638.0,2199.0,10,R,21714902,21715024,124,862.5,492.2,5305,NA
60,1,binary,10,1,trial,21715439.0,21717638.0,2199.0,10,R,21715312,21715498,188,921.5,490.3,5516,NA
60,1,binary,10,1,trial,21715439.0,21717638.0,2199.0,10,R,21715524,21715640,118,947.7,572.3,5618,NA
60,1,binary,10,1,trial,21715439.0,21717638.0,2199.0,10,R,21715684,21715940,258,511.4,525.8,5112,left
60,1,binary,10,1,trial,21715439.0,21717638.0,2199.0,10,R,21715960,21716330,372,425.9,568.0,4125,left
60,1,binary,10,1,trial,21715439.0,21717638.0,2199.0,10,R,21716400,21716786,388,1432.7,526.0,3796,right
60,1,binary,10,1,trial,21715439.0,21717638.0,2199.0,10,R,21716854,21717050,198,513.5,500.9,3897,left
60,1,binary,10,1,trial,21715439.0,21717638.0,2199.0,10,R,21717076,21717614,540,407.9,590.7,3959,left
60,1,binary,10,1,trial,21715439.0,21717638.0,2199.0,10,R,21717642,21717870,230,493.0,442.8,4171,left
60,1,binary,11,1,fixationCross,21718789.0,21720722.0,1933.0,11,R,21718108,21718446,340,785.1,398.5,4356,NA
60,1,binary,11,1,trial,21718789.0,21720722.0,1933.0,11,R,21718486,21718792,308,959.3,459.4,4774,NA
60,1,binary,11,1,trial,21718789.0,21720722.0,1933.0,11,R,21718814,21718958,146,849.3,502.8,4873,NA
60,1,binary,11,1,trial,21718789.0,21720722.0,1933.0,11,R,21718998,21719390,394,499.1,542.5,4662,left
60,1,binary,11,1,trial,21718789.0,21720722.0,1933.0,11,R,21719404,21719504,102,540.3,551.5,4274,left
60,1,binary,11,1,trial,21718789.0,21720722.0,1933.0,11,R,21719562,21719796,236,1366.3,497.3,4127,right
60,1,binary,11,1,trial,21718789.0,21720722.0,1933.0,11,R,21719822,21720636,816,1517.1,444.4,4194,right
60,1,binary,11,1,trial,21718789.0,21720722.0,1933.0,11,R,21720708,21720932,226,537.6,465.0,4585,left
60,1,binary,12,2,fixationCross,21724455.0,21727039.0,2584.0,12,R,21721146,21721150,6,590.3,478.1,4280,left
60,1,binary,12,2,fixationCross,21724455.0,21727039.0,2584.0,12,R,21721164,21721568,406,618.2,406.2,4630,left
60,1,binary,12,2,fixationCross,21724455.0,21727039.0,2584.0,12,R,21721606,21721780,176,896.8,389.1,4895,NA
60,1,binary,12,2,fixationCross,21724455.0,21727039.0,2584.0,12,R,21721810,21722124,316,699.9,427.3,4969,left
60,1,binary,12,2,fixationCross,21724455.0,21727039.0,2584.0,12,R,21722150,21722722,574,631.6,444.9,5158,left
60,1,binary,12,2,fixationCross,21724455.0,21727039.0,2584.0,12,R,21722744,21722964,222,614.6,443.6,5316,left
60,1,binary,12,2,fixationCross,21724455.0,21727039.0,2584.0,12,R,21723004,21723298,296,861.8,477.9,5364,NA
60,1,binary,12,2,trial,21724455.0,21727039.0,2584.0,12,R,21724170,21724662,494,893.6,508.1,5719,NA
60,1,binary,12,2,trial,21724455.0,21727039.0,2584.0,12,R,21724706,21724992,288,443.4,503.5,4703,left
60,1,binary,12,2,trial,21724455.0,21727039.0,2584.0,12,R,21725060,21725374,316,1384.5,525.8,3944,right
60,1,binary,12,2,trial,21724455.0,21727039.0,2584.0,12,R,21725396,21725838,444,1331.2,601.9,3887,right
60,1,binary,12,2,trial,21724455.0,21727039.0,2584.0,12,R,21725886,21726092,208,1420.8,1045.8,3883,NA
60,1,binary,12,2,trial,21724455.0,21727039.0,2584.0,12,R,21726142,21726256,116,1405.9,540.2,3920,right
60,1,binary,12,2,trial,21724455.0,21727039.0,2584.0,12,R,21726324,21726610,288,453.9,519.6,4158,left
60,1,binary,12,2,trial,21724455.0,21727039.0,2584.0,12,R,21726634,21726964,332,415.3,575.8,4198,left
60,1,binary,12,2,trial,21724455.0,21727039.0,2584.0,12,R,21727010,21727102,94,396.7,988.5,4255,NA
60,1,binary,12,2,trial,21724455.0,21727039.0,2584.0,12,R,21727150,21727250,102,397.0,501.7,4267,left
60,1,binary,13,2,fixationCross,21728256.0,21731822.0,3566.0,13,R,21727480,21727938,460,786.7,332.4,4483,NA
60,1,binary,13,2,trial,21728256.0,21731822.0,3566.0,13,R,21727966,21728308,344,913.2,474.2,4891,NA
60,1,binary,13,2,trial,21728256.0,21731822.0,3566.0,13,R,21728336,21728478,144,751.0,466.2,4993,NA
60,1,binary,13,2,trial,21728256.0,21731822.0,3566.0,13,R,21728502,21728710,210,611.9,399.6,4895,left
60,1,binary,13,2,trial,21728256.0,21731822.0,3566.0,13,R,21728772,21729062,292,1484.3,421.9,4468,right
60,1,binary,13,2,trial,21728256.0,21731822.0,3566.0,13,R,21729074,21729626,554,1497.6,400.5,4544,right
60,1,binary,13,2,trial,21728256.0,21731822.0,3566.0,13,R,21729694,21729930,238,591.2,404.1,4760,left
60,1,binary,13,2,trial,21728256.0,21731822.0,3566.0,13,R,21729960,21730260,302,466.8,518.8,4662,left
60,1,binary,13,2,trial,21728256.0,21731822.0,3566.0,13,R,21730334,21730994,662,1464.6,526.9,4496,right
60,1,binary,13,2,trial,21728256.0,21731822.0,3566.0,13,R,21731064,21731438,376,501.7,562.5,4838,left
60,1,binary,13,2,trial,21728256.0,21731822.0,3566.0,13,R,21731458,21731854,398,429.5,533.6,4422,left
60,1,binary,13,2,trial,21728256.0,21731822.0,3566.0,13,R,21731924,21732020,98,1344.4,506.9,4273,right
60,1,binary,14,1,fixationCross,21733056.0,21735006.0,1950.0,14,R,21732268,21732744,478,765.9,305.2,4630,NA
60,1,binary,14,1,trial,21733056.0,21735006.0,1950.0,14,R,21732774,21733110,338,896.6,477.5,4892,NA
60,1,binary,14,1,trial,21733056.0,21735006.0,1950.0,14,R,21733134,21733248,116,895.5,530.2,4876,NA
60,1,binary,14,1,trial,21733056.0,21735006.0,1950.0,14,R,21733292,21733564,274,472.1,452.5,4680,left
60,1,binary,14,1,trial,21733056.0,21735006.0,1950.0,14,R,21733632,21733962,332,1439.1,471.9,4108,right
60,1,binary,14,1,trial,21733056.0,21735006.0,1950.0,14,R,21733986,21734360,376,1308.3,440.3,4121,right
60,1,binary,14,1,trial,21733056.0,21735006.0,1950.0,14,R,21734398,21734622,226,1526.2,705.9,4149,right
60,1,binary,14,1,trial,21733056.0,21735006.0,1950.0,14,R,21734632,21734976,346,1497.6,717.1,4157,right
60,1,binary,14,1,trial,21733056.0,21735006.0,1950.0,14,R,21735056,21735244,190,375.6,506.1,4333,left
60,1,binary,15,2,fixationCross,21737239.0,21740955.0,3716.0,15,R,21735452,21735728,278,652.2,364.8,4355,left
60,1,binary,15,2,fixationCross,21737239.0,21740955.0,3716.0,15,R,21735764,21735838,76,540.1,456.5,4678,left
60,1,binary,15,2,fixationCross,21737239.0,21740955.0,3716.0,15,R,21735874,21737228,1356,851.4,492.3,5073,NA
60,1,binary,15,2,trial,21737239.0,21740955.0,3716.0,15,R,21737250,21737482,234,951.9,526.7,5649,NA
60,1,binary,15,2,trial,21737239.0,21740955.0,3716.0,15,R,21737532,21737756,226,458.7,509.2,5392,left
60,1,binary,15,2,trial,21737239.0,21740955.0,3716.0,15,R,21737818,21738062,246,1434.3,535.5,4653,right
60,1,binary,15,2,trial,21737239.0,21740955.0,3716.0,15,R,21738088,21738568,482,1434.8,633.0,4408,right
60,1,binary,15,2,trial,21737239.0,21740955.0,3716.0,15,R,21738586,21739058,474,1396.4,668.1,4461,right
60,1,binary,15,2,trial,21737239.0,21740955.0,3716.0,15,R,21739074,21739494,422,1431.8,693.3,4544,right
60,1,binary,15,2,trial,21737239.0,21740955.0,3716.0,15,R,21739514,21739656,144,1467.1,748.2,4621,NA
60,1,binary,15,2,trial,21737239.0,21740955.0,3716.0,15,R,21739732,21740046,316,453.4,538.7,4718,left
60,1,binary,15,2,trial,21737239.0,21740955.0,3716.0,15,R,21740076,21740352,278,331.5,414.2,4206,left
60,1,binary,15,2,trial,21737239.0,21740955.0,3716.0,15,R,21740382,21740478,98,511.4,515.7,4065,left
60,1,binary,15,2,trial,21737239.0,21740955.0,3716.0,15,R,21740550,21740738,190,1517.8,460.3,3948,right
60,1,binary,15,2,trial,21737239.0,21740955.0,3716.0,15,R,21740766,21741172,408,1505.8,562.8,4157,right
60,1,binary,16,2,fixationCross,21744206.0,21747089.0,2883.0,16,R,21741380,21741380,2,477.6,505.1,3986,left
60,1,binary,16,2,fixationCross,21744206.0,21747089.0,2883.0,16,R,21741398,21741690,294,506.1,357.3,4444,left
60,1,binary,16,2,fixationCross,21744206.0,21747089.0,2883.0,16,R,21741724,21742182,460,851.1,481.1,4718,NA
60,1,binary,16,2,fixationCross,21744206.0,21747089.0,2883.0,16,R,21742202,21742490,290,791.8,522.3,4864,NA
60,1,binary,16,2,fixationCross,21744206.0,21747089.0,2883.0,16,R,21742528,21742782,256,654.7,482.2,4992,left
60,1,binary,16,2,fixationCross,21744206.0,21747089.0,2883.0,16,R,21742816,21743066,252,787.4,494.9,5167,NA
60,1,binary,16,2,fixationCross,21744206.0,21747089.0,2883.0,16,R,21743662,21743746,86,860.9,506.6,5680,NA
60,1,binary,16,2,trial,21744206.0,21747089.0,2883.0,16,R,21744012,21744422,412,906.9,498.3,5613,NA
60,1,binary,16,2,trial,21744206.0,21747089.0,2883.0,16,R,21744470,21744692,224,425.1,567.3,5152,left
60,1,binary,16,2,trial,21744206.0,21747089.0,2883.0,16,R,21744760,21745116,358,1379.1,449.6,4195,right
60,1,binary,16,2,trial,21744206.0,21747089.0,2883.0,16,R,21745138,21745758,622,1508.8,439.2,4227,right
60,1,binary,16,2,trial,21744206.0,21747089.0,2883.0,16,R,21745830,21746210,382,435.4,545.8,4540,left
60,1,binary,16,2,trial,21744206.0,21747089.0,2883.0,16,R,21746226,21746714,490,403.0,587.7,4166,left
60,1,binary,16,2,trial,21744206.0,21747089.0,2883.0,16,R,21746782,21747066,286,1430.3,531.0,4165,right
60,1,binary,16,2,trial,21744206.0,21747089.0,2883.0,16,R,21747090,21747290,202,1379.5,422.8,4283,right
60,1,binary,17,2,fixationCross,21748222.0,21750122.0,1900.0,17,R,21747530,21747896,368,707.0,356.9,4590,left
60,1,binary,17,2,trial,21748222.0,21750122.0,1900.0,17,R,21747938,21748376,440,887.6,518.9,4918,NA
60,1,binary,17,2,trial,21748222.0,21750122.0,1900.0,17,R,21748414,21748618,206,518.3,485.0,4881,left
60,1,binary,17,2,trial,21748222.0,21750122.0,1900.0,17,R,21748652,21748920,270,347.0,410.7,4289,left
60,1,binary,17,2,trial,21748222.0,21750122.0,1900.0,17,R,21748944,21749286,344,481.0,486.4,4116,left
60,1,binary,17,2,trial,21748222.0,21750122.0,1900.0,17,R,21749312,21749656,346,561.7,576.5,4213,left
60,1,binary,17,2,trial,21748222.0,21750122.0,1900.0,17,R,21749716,21750000,286,1383.5,524.6,4209,right
60,1,binary,17,2,trial,21748222.0,21750122.0,1900.0,17,R,21750022,21750312,292,1429.2,593.0,4122,right
60,1,binary,18,2,fixationCross,21753972.0,21757139.0,3167.0,18,R,21750536,21750758,224,765.5,250.0,4281,NA
60,1,binary,18,2,fixationCross,21753972.0,21757139.0,3167.0,18,R,21750804,21750986,184,638.4,488.5,4708,left
60,1,binary,18,2,fixationCross,21753972.0,21757139.0,3167.0,18,R,21751020,21751250,232,890.8,460.9,4835,NA
60,1,binary,18,2,fixationCross,21753972.0,21757139.0,3167.0,18,R,21751278,21751556,280,695.9,465.9,4936,left
60,1,binary,18,2,fixationCross,21753972.0,21757139.0,3167.0,18,R,21751586,21751828,244,581.1,485.7,5041,left
60,1,binary,18,2,fixationCross,21753972.0,21757139.0,3167.0,18,R,21751852,21752124,274,743.6,481.4,5119,NA
60,1,binary,18,2,fixationCross,21753972.0,21757139.0,3167.0,18,R,21752140,21752402,264,703.6,492.9,5224,left
60,1,binary,18,2,fixationCross,21753972.0,21757139.0,3167.0,18,R,21752424,21752564,142,834.1,456.8,5341,NA
60,1,binary,18,2,fixationCross,21753972.0,21757139.0,3167.0,18,R,21752912,21752968,58,848.0,501.6,5486,NA
60,1,binary,18,2,fixationCross,21753972.0,21757139.0,3167.0,18,R,21753728,21753898,172,933.4,503.5,5760,NA
60,1,binary,18,2,trial,21753972.0,21757139.0,3167.0,18,R,21753932,21754146,216,1042.4,577.7,5723,NA
60,1,binary,18,2,trial,21753972.0,21757139.0,3167.0,18,R,21754190,21754456,268,554.9,489.4,5130,left
60,1,binary,18,2,trial,21753972.0,21757139.0,3167.0,18,R,21754480,21754670,192,469.5,573.5,4368,left
60,1,binary,18,2,trial,21753972.0,21757139.0,3167.0,18,R,21754726,21754998,274,1309.2,442.8,3944,right
60,1,binary,18,2,trial,21753972.0,21757139.0,3167.0,18,R,21755010,21755528,520,1339.7,415.4,3946,right
60,1,binary,18,2,trial,21753972.0,21757139.0,3167.0,18,R,21755594,21755862,270,537.2,559.4,4392,left
60,1,binary,18,2,trial,21753972.0,21757139.0,3167.0,18,R,21755882,21756454,574,480.9,612.4,4105,left
60,1,binary,18,2,trial,21753972.0,21757139.0,3167.0,18,R,21756522,21757340,820,1365.1,457.2,3837,right
60,1,binary,19,1,fixationCross,21758256.0,21759789.0,1533.0,19,R,21757560,21757946,388,787.7,351.7,4421,NA
60,1,binary,19,1,trial,21758256.0,21759789.0,1533.0,19,R,21757978,21758284,308,918.3,509.4,4781,NA
60,1,binary,19,1,trial,21758256.0,21759789.0,1533.0,19,R,21758308,21758476,170,773.8,518.5,4833,NA
60,1,binary,19,1,trial,21758256.0,21759789.0,1533.0,19,R,21758514,21758730,218,489.4,515.8,4771,left
60,1,binary,19,1,trial,21758256.0,21759789.0,1533.0,19,R,21758788,21759114,328,1306.0,467.8,4377,right
60,1,binary,19,1,trial,21758256.0,21759789.0,1533.0,19,R,21759128,21759480,354,1341.0,442.6,4276,right
60,1,binary,19,1,trial,21758256.0,21759789.0,1533.0,19,R,21759546,21759980,436,467.9,540.9,4601,left
60,1,binary,20,1,fixationCross,21760956.0,21765872.0,4916.0,20,R,21760228,21760654,428,863.6,313.8,4674,NA
60,1,binary,20,1,trial,21760956.0,21765872.0,4916.0,20,R,21760696,21761128,434,952.8,546.3,5045,NA
60,1,binary,20,1,trial,21760956.0,21765872.0,4916.0,20,R,21761172,21761526,356,494.6,483.1,4892,left
60,1,binary,20,1,trial,21760956.0,21765872.0,4916.0,20,R,21761540,21761820,282,482.8,443.8,4616,left
60,1,binary,20,1,trial,21760956.0,21765872.0,4916.0,20,R,21761884,21762152,270,1346.1,521.5,4487,right
60,1,binary,20,1,trial,21760956.0,21765872.0,4916.0,20,R,21762176,21762424,250,1479.0,554.8,4625,right
60,1,binary,20,1,trial,21760956.0,21765872.0,4916.0,20,R,21762448,21762764,318,1336.2,618.4,4694,right
60,1,binary,20,1,trial,21760956.0,21765872.0,4916.0,20,R,21762792,21763170,380,1505.3,628.0,4619,right
60,1,binary,20,1,trial,21760956.0,21765872.0,4916.0,20,R,21763188,21763370,184,1521.8,581.9,4439,right
60,1,binary,20,1,trial,21760956.0,21765872.0,4916.0,20,R,21763444,21763772,330,486.1,502.0,4484,left
60,1,binary,20,1,trial,21760956.0,21765872.0,4916.0,20,R,21763788,21764206,420,461.6,456.2,4324,left
60,1,binary,20,1,trial,21760956.0,21765872.0,4916.0,20,R,21764232,21764652,422,442.0,558.7,4353,left
60,1,binary,20,1,trial,21760956.0,21765872.0,4916.0,20,R,21764684,21764946,264,482.6,425.6,4365,left
60,1,binary,20,1,trial,21760956.0,21765872.0,4916.0,20,R,21765016,21765266,252,1410.2,473.6,4337,right
60,1,binary,20,1,trial,21760956.0,21765872.0,4916.0,20,R,21765290,21765816,528,1325.3,547.4,4460,right
60,1,binary,20,1,trial,21760956.0,21765872.0,4916.0,20,R,21765886,21766080,196,461.9,918.3,4658,NA
60,1,binary,21,1,fixationCross,21767073.0,21771339.0,4266.0,21,R,21766338,21766770,434,820.2,362.5,4716,NA
60,1,binary,21,1,trial,21767073.0,21771339.0,4266.0,21,R,21766800,21767228,430,898.2,515.0,5019,NA
60,1,binary,21,1,trial,21767073.0,21771339.0,4266.0,21,R,21767272,21767628,358,485.6,465.3,4729,left
60,1,binary,21,1,trial,21767073.0,21771339.0,4266.0,21,R,21767644,21768088,446,550.9,466.8,4069,left
60,1,binary,21,1,trial,21767073.0,21771339.0,4266.0,21,R,21768120,21768632,514,352.5,438.9,3987,left
60,1,binary,21,1,trial,21767073.0,21771339.0,4266.0,21,R,21768650,21768882,234,453.7,434.7,4294,left
60,1,binary,21,1,trial,21767073.0,21771339.0,4266.0,21,R,21768900,21769348,450,568.8,454.9,4544,left
60,1,binary,21,1,trial,21767073.0,21771339.0,4266.0,21,R,21769408,21769658,252,1323.0,446.4,4484,right
60,1,binary,21,1,trial,21767073.0,21771339.0,4266.0,21,R,21769730,21769954,226,436.4,489.9,4645,left
60,1,binary,21,1,trial,21767073.0,21771339.0,4266.0,21,R,21770022,21770452,432,1425.4,516.3,4373,right
60,1,binary,21,1,trial,21767073.0,21771339.0,4266.0,21,R,21770470,21770830,362,1388.6,566.6,4516,right
60,1,binary,21,1,trial,21767073.0,21771339.0,4266.0,21,R,21770902,21771234,334,391.3,505.5,4550,left
60,1,binary,21,1,trial,21767073.0,21771339.0,4266.0,21,R,21771258,21771512,256,530.6,465.1,4331,left
60,1,binary,22,2,fixationCross,21772439.0,21774639.0,2200.0,22,R,21771770,21771892,124,1017.9,317.8,4150,NA
60,1,binary,22,2,fixationCross,21772439.0,21774639.0,2200.0,22,R,21771944,21772136,194,769.6,545.7,4473,NA
60,1,binary,22,2,trial,21772439.0,21774639.0,2200.0,22,R,21772168,21772486,320,962.7,532.1,4769,NA
60,1,binary,22,2,trial,21772439.0,21774639.0,2200.0,22,R,21772510,21772630,122,942.1,522.7,4831,NA
60,1,binary,22,2,trial,21772439.0,21774639.0,2200.0,22,R,21772672,21772878,208,535.2,461.5,4699,left
60,1,binary,22,2,trial,21772439.0,21774639.0,2200.0,22,R,21772938,21773358,422,1359.7,470.0,4117,right
60,1,binary,22,2,trial,21772439.0,21774639.0,2200.0,22,R,21773374,21773556,184,1364.9,515.2,4221,right
60,1,binary,22,2,trial,21772439.0,21774639.0,2200.0,22,R,21773574,21773672,100,1427.6,482.7,4306,right
60,1,binary,22,2,trial,21772439.0,21774639.0,2200.0,22,R,21773742,21773924,184,397.9,463.4,4386,left
60,1,binary,22,2,trial,21772439.0,21774639.0,2200.0,22,R,21773944,21774488,546,313.9,474.5,4244,left
60,1,binary,22,2,trial,21772439.0,21774639.0,2200.0,22,R,21774562,21774824,264,1375.1,454.1,4215,right
60,1,binary,23,1,fixationCross,21775823.0,21780039.0,4216.0,23,R,21775082,21775498,418,745.5,387.1,4637,NA
60,1,binary,23,1,trial,21775823.0,21780039.0,4216.0,23,R,21775522,21776014,494,875.5,497.1,4870,NA
60,1,binary,23,1,trial,21775823.0,21780039.0,4216.0,23,R,21776064,21776612,550,1464.8,513.8,4467,right
60,1,binary,23,1,trial,21775823.0,21780039.0,4216.0,23,R,21776672,21776894,224,524.2,585.5,4580,left
60,1,binary,23,1,trial,21775823.0,21780039.0,4216.0,23,R,21776922,21777398,478,379.2,669.8,4389,left
60,1,binary,23,1,trial,21775823.0,21780039.0,4216.0,23,R,21777410,21777578,170,398.0,678.8,4259,left
60,1,binary,23,1,trial,21775823.0,21780039.0,4216.0,23,R,21777654,21777924,272,1518.6,562.3,4177,right
60,1,binary,23,1,trial,21775823.0,21780039.0,4216.0,23,R,21777948,21778818,872,1461.9,481.9,4334,right
60,1,binary,23,1,trial,21775823.0,21780039.0,4216.0,23,R,21778894,21779118,226,506.1,554.1,4522,left
60,1,binary,23,1,trial,21775823.0,21780039.0,4216.0,23,R,21779152,21779528,378,374.1,652.4,4267,left
60,1,binary,23,1,trial,21775823.0,21780039.0,4216.0,23,R,21779564,21779948,386,493.5,523.1,4071,left
60,1,binary,23,1,trial,21775823.0,21780039.0,4216.0,23,R,21779986,21780242,258,380.0,715.3,4138,left
60,1,binary,24,1,fixationCross,21781256.0,21783056.0,1800.0,24,R,21780532,21780678,148,1078.1,305.5,4149,NA
60,1,binary,24,1,fixationCross,21781256.0,21783056.0,1800.0,24,R,21780718,21780948,232,819.7,464.6,4483,NA
60,1,binary,24,1,fixationCross,21781256.0,21783056.0,1800.0,24,R,21780976,21781204,230,921.5,513.6,4690,NA
60,1,binary,24,1,trial,21781256.0,21783056.0,1800.0,24,R,21781232,21781424,194,833.4,596.6,4701,NA
60,1,binary,24,1,trial,21781256.0,21783056.0,1800.0,24,R,21781466,21781686,222,431.3,497.4,4574,left
60,1,binary,24,1,trial,21781256.0,21783056.0,1800.0,24,R,21781756,21782254,500,1432.3,545.7,3792,right
60,1,binary,24,1,trial,21781256.0,21783056.0,1800.0,24,R,21782332,21782616,286,326.9,525.9,3633,left
60,1,binary,24,1,trial,21781256.0,21783056.0,1800.0,24,R,21782630,21783018,390,381.5,532.6,3844,left
60,1,binary,24,1,trial,21781256.0,21783056.0,1800.0,24,R,21783036,21783260,226,367.1,468.8,4036,left
60,1,binary,25,2,fixationCross,21785006.0,21789823.0,4817.0,25,R,21783500,21783946,448,878.3,363.6,4393,NA
60,1,binary,25,2,fixationCross,21785006.0,21789823.0,4817.0,25,R,21783968,21784362,396,868.0,486.5,4820,NA
60,1,binary,25,2,fixationCross,21785006.0,21789823.0,4817.0,25,R,21784386,21784712,328,811.1,559.9,4886,NA
60,1,binary,25,2,trial,21785006.0,21789823.0,4817.0,25,R,21784730,21785198,470,891.1,528.7,5112,NA
60,1,binary,25,2,trial,21785006.0,21789823.0,4817.0,25,R,21785240,21785632,394,517.7,490.1,4850,left
60,1,binary,25,2,trial,21785006.0,21789823.0,4817.0,25,R,21785650,21786104,456,433.7,484.5,4272,left
60,1,binary,25,2,trial,21785006.0,21789823.0,4817.0,25,R,21786174,21786526,354,1379.6,617.4,4201,right
60,1,binary,25,2,trial,21785006.0,21789823.0,4817.0,25,R,21786568,21786756,190,1249.4,417.3,4217,right
60,1,binary,25,2,trial,21785006.0,21789823.0,4817.0,25,R,21786774,21787262,490,1251.9,361.7,4251,right
60,1,binary,25,2,trial,21785006.0,21789823.0,4817.0,25,R,21787306,21787962,658,1440.7,611.9,4485,right
60,1,binary,25,2,trial,21785006.0,21789823.0,4817.0,25,R,21787976,21788142,168,1489.7,587.3,4402,right
60,1,binary,25,2,trial,21785006.0,21789823.0,4817.0,25,R,21788216,21788584,370,491.5,483.1,4441,left
60,1,binary,25,2,trial,21785006.0,21789823.0,4817.0,25,R,21788604,21788980,378,396.9,489.2,4208,left
60,1,binary,25,2,trial,21785006.0,21789823.0,4817.0,25,R,21789000,21789116,118,346.1,538.2,4104,left
60,1,binary,25,2,trial,21785006.0,21789823.0,4817.0,25,R,21789184,21789478,296,1313.4,577.9,4002,right
60,1,binary,25,2,trial,21785006.0,21789823.0,4817.0,25,R,21789512,21789768,258,1259.7,420.8,4081,right
60,1,binary,25,2,trial,21785006.0,21789823.0,4817.0,25,R,21789804,21789988,186,1268.6,661.6,4189,right
60,1,binary,26,2,fixationCross,21814690.0,21818307.0,3617.0,26,R,21814063,21814309,248,142.7,38.8,5206,NA
60,1,binary,26,2,trial,21814690.0,21818307.0,3617.0,26,R,21814391,21814749,360,911.6,553.2,4847,NA
60,1,binary,26,2,trial,21814690.0,21818307.0,3617.0,26,R,21814759,21814973,216,942.7,539.7,5209,NA
60,1,binary,26,2,trial,21814690.0,21818307.0,3617.0,26,R,21815019,21815321,304,469.4,492.3,5033,left
60,1,binary,26,2,trial,21814690.0,21818307.0,3617.0,26,R,21815347,21815461,116,562.2,568.3,4636,left
60,1,binary,26,2,trial,21814690.0,21818307.0,3617.0,26,R,21815521,21815827,308,1363.2,565.2,4144,right
60,1,binary,26,2,trial,21814690.0,21818307.0,3617.0,26,R,21815847,21816055,210,1437.7,582.7,3996,right
60,1,binary,26,2,trial,21814690.0,21818307.0,3617.0,26,R,21816123,21816551,430,483.5,513.6,4113,left
60,1,binary,26,2,trial,21814690.0,21818307.0,3617.0,26,R,21816571,21817005,436,445.4,560.7,4096,left
60,1,binary,26,2,trial,21814690.0,21818307.0,3617.0,26,R,21817023,21817351,330,532.3,575.7,4113,left
60,1,binary,26,2,trial,21814690.0,21818307.0,3617.0,26,R,21817415,21817809,396,1401.4,584.7,4047,right
60,1,binary,26,2,trial,21814690.0,21818307.0,3617.0,26,R,21817833,21818487,656,1497.6,553.7,4052,right
60,1,binary,27,2,fixationCross,21819457.0,21820790.0,1333.0,27,R,21818747,21819109,364,769.1,439.4,4597,NA
60,1,binary,27,2,fixationCross,21819457.0,21820790.0,1333.0,27,R,21819133,21819431,300,926.4,477.6,4914,NA
60,1,binary,27,2,trial,21819457.0,21820790.0,1333.0,27,R,21819465,21819649,186,845.0,521.5,5019,NA
60,1,binary,27,2,trial,21819457.0,21820790.0,1333.0,27,R,21819687,21819909,224,554.1,505.9,4928,left
60,1,binary,27,2,trial,21819457.0,21820790.0,1333.0,27,R,21819973,21820307,336,1378.6,540.0,4192,right
60,1,binary,27,2,trial,21819457.0,21820790.0,1333.0,27,R,21820377,21820819,444,481.4,470.9,4000,left
60,1,binary,27,2,trial,21819457.0,21820790.0,1333.0,27,R,21820841,21820875,36,593.4,411.8,3930,left
60,1,binary,28,1,fixationCross,21822006.0,21823406.0,1400.0,28,R,21821241,21821461,222,991.6,391.0,4333,NA
60,1,binary,28,1,fixationCross,21822006.0,21823406.0,1400.0,28,R,21821493,21821711,220,741.1,429.8,4730,NA
60,1,binary,28,1,trial,21822006.0,21823406.0,1400.0,28,R,21821739,21822043,306,927.8,465.4,4904,NA
60,1,binary,28,1,trial,21822006.0,21823406.0,1400.0,28,R,21822067,21822215,150,806.2,502.0,4994,NA
60,1,binary,28,1,trial,21822006.0,21823406.0,1400.0,28,R,21822243,21822535,294,616.4,515.7,4727,left
60,1,binary,28,1,trial,21822006.0,21823406.0,1400.0,28,R,21822587,21822889,304,1300.1,584.2,3998,right
60,1,binary,28,1,trial,21822006.0,21823406.0,1400.0,28,R,21822909,21823341,434,1388.3,591.3,3980,right
60,1,binary,28,1,trial,21822006.0,21823406.0,1400.0,28,R,21823367,21823623,258,1540.9,611.7,4187,right
60,1,binary,29,1,fixationCross,21825057.0,21827190.0,2133.0,29,R,21823863,21823897,36,622.9,438.6,4358,left
60,1,binary,29,1,fixationCross,21825057.0,21827190.0,2133.0,29,R,21823907,21824161,256,626.3,384.6,4606,left
60,1,binary,29,1,fixationCross,21825057.0,21827190.0,2133.0,29,R,21824191,21824519,330,845.5,432.8,4944,NA
60,1,binary,29,1,fixationCross,21825057.0,21827190.0,2133.0,29,R,21824543,21824735,194,763.2,464.3,5020,NA
60,1,binary,29,1,trial,21825057.0,21827190.0,2133.0,29,R,21824759,21825065,308,894.9,471.8,5034,NA
60,1,binary,29,1,trial,21825057.0,21827190.0,2133.0,29,R,21825087,21825255,170,839.9,498.7,5145,NA
60,1,binary,29,1,trial,21825057.0,21827190.0,2133.0,29,R,21825291,21825485,196,559.1,482.4,5099,left
60,1,binary,29,1,trial,21825057.0,21827190.0,2133.0,29,R,21825517,21825671,156,432.7,639.8,4694,left
60,1,binary,29,1,trial,21825057.0,21827190.0,2133.0,29,R,21825735,21825983,250,1375.6,483.5,4264,right
60,1,binary,29,1,trial,21825057.0,21827190.0,2133.0,29,R,21826009,21826269,262,1583.7,470.6,4093,right
60,1,binary,29,1,trial,21825057.0,21827190.0,2133.0,29,R,21826291,21826651,362,1481.1,470.0,4273,right
60,1,binary,29,1,trial,21825057.0,21827190.0,2133.0,29,R,21826735,21827167,434,393.2,699.5,4424,left
60,1,binary,29,1,trial,21825057.0,21827190.0,2133.0,29,R,21827187,21827371,186,450.7,641.0,4136,left
60,1,binary,30,1,fixationCross,21828339.0,21830390.0,2051.0,30,R,21827649,21827753,106,832.7,365.9,4102,NA
60,1,binary,30,1,fixationCross,21828339.0,21830390.0,2051.0,30,R,21827781,21828027,248,679.8,435.2,4418,left
60,1,binary,30,1,fixationCross,21828339.0,21830390.0,2051.0,30,R,21828071,21828323,254,927.4,498.1,4755,NA
60,1,binary,30,1,trial,21828339.0,21830390.0,2051.0,30,R,21828349,21828505,158,837.5,514.5,4829,NA
60,1,binary,30,1,trial,21828339.0,21830390.0,2051.0,30,R,21828549,21828913,366,444.8,490.9,4505,left
60,1,binary,30,1,trial,21828339.0,21830390.0,2051.0,30,R,21828929,21829159,232,457.5,518.8,3986,left
60,1,binary,30,1,trial,21828339.0,21830390.0,2051.0,30,R,21829185,21829505,322,472.4,596.7,3933,left
60,1,binary,30,1,trial,21828339.0,21830390.0,2051.0,30,R,21829569,21829873,306,1356.1,584.3,3730,right
60,1,binary,30,1,trial,21828339.0,21830390.0,2051.0,30,R,21829895,21830357,464,1413.0,655.2,3847,right
60,1,binary,30,1,trial,21828339.0,21830390.0,2051.0,30,R,21830433,21830585,154,453.0,401.6,4189,left
60,1,binary,31,1,fixationCross,21831539.0,21833840.0,2301.0,31,R,21830825,21831043,220,710.3,348.4,4288,left
60,1,binary,31,1,fixationCross,21831539.0,21833840.0,2301.0,31,R,21831091,21831217,128,601.2,511.3,4633,left
60,1,binary,31,1,fixationCross,21831539.0,21833840.0,2301.0,31,R,21831255,21831499,246,897.0,489.0,4758,NA
60,1,binary,31,1,trial,21831539.0,21833840.0,2301.0,31,R,21831531,21831723,194,741.0,496.4,4883,NA
60,1,binary,31,1,trial,21831539.0,21833840.0,2301.0,31,R,21831753,21831901,150,555.7,524.1,4892,left
60,1,binary,31,1,trial,21831539.0,21833840.0,2301.0,31,R,21831933,21832119,188,342.2,599.4,4377,left
60,1,binary,31,1,trial,21831539.0,21833840.0,2301.0,31,R,21832189,21832663,476,1380.9,554.4,3917,right
60,1,binary,31,1,trial,21831539.0,21833840.0,2301.0,31,R,21832675,21833059,386,1419.4,530.1,4223,right
60,1,binary,31,1,trial,21831539.0,21833840.0,2301.0,31,R,21833139,21833373,236,306.2,582.6,4549,left
60,1,binary,31,1,trial,21831539.0,21833840.0,2301.0,31,R,21833397,21833723,328,262.2,645.9,4216,left
60,1,binary,31,1,trial,21831539.0,21833840.0,2301.0,31,R,21833763,21834009,248,399.0,958.2,4129,NA
60,1,binary,32,1,fixationCross,21834990.0,21837140.0,2150.0,32,R,21834287,21834647,362,566.9,518.9,4441,left
60,1,binary,32,1,fixationCross,21834990.0,21837140.0,2150.0,32,R,21834677,21834941,266,897.8,501.0,4745,NA
60,1,binary,32,1,trial,21834990.0,21837140.0,2150.0,32,R,21834963,21835151,190,772.9,499.3,4839,NA
60,1,binary,32,1,trial,21834990.0,21837140.0,2150.0,32,R,21835185,21835401,218,512.5,478.8,4789,left
60,1,binary,32,1,trial,21834990.0,21837140.0,2150.0,32,R,21835429,21835525,98,629.8,577.4,4361,left
60,1,binary,32,1,trial,21834990.0,21837140.0,2150.0,32,R,21835585,21835903,320,1382.4,572.9,3986,right
60,1,binary,32,1,trial,21834990.0,21837140.0,2150.0,32,R,21835923,21836225,304,1503.7,550.6,4020,right
60,1,binary,32,1,trial,21834990.0,21837140.0,2150.0,32,R,21836263,21836543,282,1323.0,402.4,4069,right
60,1,binary,32,1,trial,21834990.0,21837140.0,2150.0,32,R,21836607,21836825,220,502.7,467.9,4358,left
60,1,binary,32,1,trial,21834990.0,21837140.0,2150.0,32,R,21836843,21837317,476,452.5,424.3,4079,left
60,1,binary,33,2,fixationCross,21839590.0,21844857.0,5267.0,33,R,21837579,21837787,210,965.8,298.3,4139,NA
60,1,binary,33,2,fixationCross,21839590.0,21844857.0,5267.0,33,R,21837817,21838047,232,743.6,396.2,4525,NA
60,1,binary,33,2,fixationCross,21839590.0,21844857.0,5267.0,33,R,21838073,21838287,216,886.5,415.9,4734,NA
60,1,binary,33,2,fixationCross,21839590.0,21844857.0,5267.0,33,R,21838311,21838763,454,827.2,499.2,4819,NA
60,1,binary,33,2,fixationCross,21839590.0,21844857.0,5267.0,33,R,21838785,21838983,200,727.1,492.1,4892,left
60,1,binary,33,2,fixationCross,21839590.0,21844857.0,5267.0,33,R,21839017,21839287,272,878.0,472.1,4960,NA
60,1,binary,33,2,fixationCross,21839590.0,21844857.0,5267.0,33,R,21839307,21839501,196,969.6,500.7,5125,NA
60,1,binary,33,2,trial,21839590.0,21844857.0,5267.0,33,R,21839511,21839759,250,944.6,516.2,5295,NA
60,1,binary,33,2,trial,21839590.0,21844857.0,5267.0,33,R,21839799,21840055,258,569.0,555.7,5162,left
60,1,binary,33,2,trial,21839590.0,21844857.0,5267.0,33,R,21840065,21840935,872,556.3,534.6,4367,left
60,1,binary,33,2,trial,21839590.0,21844857.0,5267.0,33,R,21841001,21841217,218,1419.5,525.3,4488,right
60,1,binary,33,2,trial,21839590.0,21844857.0,5267.0,33,R,21841237,21841475,240,1311.3,554.0,4350,right
60,1,binary,33,2,trial,21839590.0,21844857.0,5267.0,33,R,21841501,21841977,478,1417.1,454.2,4256,right
60,1,binary,33,2,trial,21839590.0,21844857.0,5267.0,33,R,21842043,21842217,176,593.4,556.5,4539,left
60,1,binary,33,2,trial,21839590.0,21844857.0,5267.0,33,R,21842233,21842593,362,565.6,527.7,4518,left
60,1,binary,33,2,trial,21839590.0,21844857.0,5267.0,33,R,21842611,21842977,368,548.3,541.7,4451,left
60,1,binary,33,2,trial,21839590.0,21844857.0,5267.0,33,R,21844791,21845093,304,1373.3,663.6,5077,right
60,1,binary,33,2,postResponse,21839590.0,21844857.0,5267.0,33,R,21845155,21845191,38,1998.9,516.2,5102,NA
60,1,binary,34,2,fixationCross,21846207.0,21849823.0,3616.0,34,R,21845339,21845743,406,927.1,424.7,5434,NA
60,1,binary,34,2,fixationCross,21846207.0,21849823.0,3616.0,34,R,21845827,21845915,90,1903.4,435.9,5522,NA
60,1,binary,34,2,trial,21846207.0,21849823.0,3616.0,34,R,21845983,21846229,248,889.2,509.5,5712,NA
60,1,binary,34,2,trial,21846207.0,21849823.0,3616.0,34,R,21846247,21846415,170,948.0,517.5,5720,NA
60,1,binary,34,2,trial,21846207.0,21849823.0,3616.0,34,R,21846463,21846625,164,482.2,454.6,5527,left
60,1,binary,34,2,trial,21846207.0,21849823.0,3616.0,34,R,21846687,21846975,290,1363.0,628.2,5143,right
60,1,binary,34,2,trial,21846207.0,21849823.0,3616.0,34,R,21846999,21847371,374,1437.0,698.5,4902,right
60,1,binary,34,2,trial,21846207.0,21849823.0,3616.0,34,R,21847393,21847707,316,1325.8,655.2,4939,right
60,1,binary,34,2,trial,21846207.0,21849823.0,3616.0,34,R,21847739,21847905,168,1472.0,545.9,5013,right
60,1,binary,34,2,trial,21846207.0,21849823.0,3616.0,34,R,21848145,21848475,332,1417.6,564.7,5289,right
60,1,binary,34,2,trial,21846207.0,21849823.0,3616.0,34,R,21848493,21848809,318,1381.7,621.7,5475,right
60,1,binary,34,2,trial,21846207.0,21849823.0,3616.0,34,R,21848829,21848961,134,1420.2,667.2,5366,right
60,1,binary,34,2,trial,21846207.0,21849823.0,3616.0,34,R,21849027,21849451,426,484.7,499.7,5150,left
60,1,binary,34,2,trial,21846207.0,21849823.0,3616.0,34,R,21849523,21849995,474,1445.9,678.4,5175,right
60,1,binary,35,1,fixationCross,21850990.0,21852740.0,1750.0,35,R,21850289,21850325,38,728.2,376.0,5030,left
60,1,binary,35,1,fixationCross,21850990.0,21852740.0,1750.0,35,R,21850339,21850673,336,716.8,397.2,5224,left
60,1,binary,35,1,fixationCross,21850990.0,21852740.0,1750.0,35,R,21850705,21850951,248,936.5,488.2,5494,NA
60,1,binary,35,1,trial,21850990.0,21852740.0,1750.0,35,R,21850977,21851161,186,900.7,535.9,5384,NA
60,1,binary,35,1,trial,21850990.0,21852740.0,1750.0,35,R,21851201,21851405,206,605.9,479.1,5236,left
60,1,binary,35,1,trial,21850990.0,21852740.0,1750.0,35,R,21851447,21851627,182,306.5,489.1,4812,left
60,1,binary,35,1,trial,21850990.0,21852740.0,1750.0,35,R,21851695,21852197,504,1415.6,472.8,4388,right
60,1,binary,35,1,trial,21850990.0,21852740.0,1750.0,35,R,21852267,21852479,214,503.7,450.9,4368,left
60,1,binary,35,1,trial,21850990.0,21852740.0,1750.0,35,R,21852499,21852667,170,599.7,440.4,4380,left
60,1,binary,35,1,trial,21850990.0,21852740.0,1750.0,35,R,21852703,21852943,242,279.3,487.8,4430,left
60,1,binary,36,1,fixationCross,21853840.0,21855974.0,2134.0,36,R,21853265,21853523,260,1086.5,277.7,4556,NA
60,1,binary,36,1,trial,21853840.0,21855974.0,2134.0,36,R,21853557,21853999,444,940.4,474.4,5002,NA
60,1,binary,36,1,trial,21853840.0,21855974.0,2134.0,36,R,21854047,21854229,184,543.9,462.5,5020,left
60,1,binary,36,1,trial,21853840.0,21855974.0,2134.0,36,R,21854245,21854587,344,496.9,431.6,4513,left
60,1,binary,36,1,trial,21853840.0,21855974.0,2134.0,36,R,21854649,21854955,308,1423.0,481.9,4136,right
60,1,binary,36,1,trial,21853840.0,21855974.0,2134.0,36,R,21854981,21855433,454,1434.4,590.1,4093,right
60,1,binary,36,1,trial,21853840.0,21855974.0,2134.0,36,R,21855455,21855627,174,1355.1,652.4,4067,right
60,1,binary,36,1,trial,21853840.0,21855974.0,2134.0,36,R,21855703,21855883,182,362.3,641.8,4324,left
60,1,binary,36,1,trial,21853840.0,21855974.0,2134.0,36,R,21855905,21856165,262,316.6,677.3,4354,left
60,1,binary,37,2,fixationCross,21857157.0,21859157.0,2000.0,37,R,21856397,21856431,36,900.8,314.8,4377,NA
60,1,binary,37,2,fixationCross,21857157.0,21859157.0,2000.0,37,R,21856441,21856849,410,888.5,349.4,4570,NA
60,1,binary,37,2,trial,21857157.0,21859157.0,2000.0,37,R,21856879,21857339,462,934.1,503.4,4949,NA
60,1,binary,37,2,trial,21857157.0,21859157.0,2000.0,37,R,21857381,21857727,348,531.4,481.2,4665,left
60,1,binary,37,2,trial,21857157.0,21859157.0,2000.0,37,R,21857749,21857953,206,635.1,470.3,4185,left
60,1,binary,37,2,trial,21857157.0,21859157.0,2000.0,37,R,21858009,21858259,252,1354.0,416.4,3996,right
60,1,binary,37,2,trial,21857157.0,21859157.0,2000.0,37,R,21858281,21858565,286,1446.5,469.8,4070,right
60,1,binary,37,2,trial,21857157.0,21859157.0,2000.0,37,R,21858583,21858783,202,1370.8,460.4,4186,right
60,1,binary,37,2,trial,21857157.0,21859157.0,2000.0,37,R,21858843,21859189,348,600.8,506.5,4310,left
60,1,binary,37,2,trial,21857157.0,21859157.0,2000.0,37,R,21859247,21859357,112,1399.0,442.0,4086,right
60,1,binary,38,2,fixationCross,21860224.0,21862057.0,1833.0,38,R,21859609,21859911,304,1102.7,293.1,4272,NA
60,1,binary,38,2,trial,21860224.0,21862057.0,1833.0,38,R,21859949,21860393,446,940.5,521.1,4666,NA
60,1,binary,38,2,trial,21860224.0,21862057.0,1833.0,38,R,21860441,21860811,372,473.2,489.4,4473,left
60,1,binary,38,2,trial,21860224.0,21862057.0,1833.0,38,R,21860835,21860971,138,426.9,561.5,4213,left
60,1,binary,38,2,trial,21860224.0,21862057.0,1833.0,38,R,21861043,21861217,176,1447.0,456.5,4068,right
60,1,binary,38,2,trial,21860224.0,21862057.0,1833.0,38,R,21861239,21862003,766,1568.4,448.6,4194,right
60,1,binary,38,2,trial,21860224.0,21862057.0,1833.0,38,R,21862077,21862239,164,486.4,476.2,4426,left
60,1,binary,39,1,fixationCross,21864373.0,21867490.0,3117.0,39,R,21862599,21862661,64,1134.5,278.3,4369,NA
60,1,binary,39,1,fixationCross,21864373.0,21867490.0,3117.0,39,R,21862695,21862999,306,887.0,363.6,4670,NA
60,1,binary,39,1,fixationCross,21864373.0,21867490.0,3117.0,39,R,21863023,21863333,312,932.6,438.7,4907,NA
60,1,binary,39,1,fixationCross,21864373.0,21867490.0,3117.0,39,R,21863351,21863897,548,862.0,465.4,4984,NA
60,1,binary,39,1,fixationCross,21864373.0,21867490.0,3117.0,39,R,21863917,21864141,226,832.0,472.5,5212,NA
60,1,binary,39,1,trial,21864373.0,21867490.0,3117.0,39,R,21864159,21864549,392,923.5,463.6,5379,NA
60,1,binary,39,1,trial,21864373.0,21867490.0,3117.0,39,R,21864591,21864813,224,568.9,422.4,5265,left
60,1,binary,39,1,trial,21864373.0,21867490.0,3117.0,39,R,21864845,21865119,276,387.2,528.6,4590,left
60,1,binary,39,1,trial,21864373.0,21867490.0,3117.0,39,R,21865151,21865245,96,562.3,395.4,4234,left
60,1,binary,39,1,trial,21864373.0,21867490.0,3117.0,39,R,21865309,21865631,324,1321.5,460.4,3805,right
60,1,binary,39,1,trial,21864373.0,21867490.0,3117.0,39,R,21865663,21865967,306,1526.9,497.5,3954,right
60,1,binary,39,1,trial,21864373.0,21867490.0,3117.0,39,R,21865979,21866535,558,1562.1,489.6,4407,right
60,1,binary,39,1,trial,21864373.0,21867490.0,3117.0,39,R,21866609,21866969,362,556.6,412.7,4624,left
60,1,binary,39,1,trial,21864373.0,21867490.0,3117.0,39,R,21867001,21867435,436,347.4,512.2,4143,left
60,1,binary,39,1,trial,21864373.0,21867490.0,3117.0,39,R,21867457,21867637,182,462.8,529.3,3857,left
60,1,binary,40,2,fixationCross,21869257.0,21872773.0,3516.0,40,R,21867939,21868041,104,1162.0,263.6,3905,NA
60,1,binary,40,2,fixationCross,21869257.0,21872773.0,3516.0,40,R,21868079,21868565,488,913.1,357.2,4379,NA
60,1,binary,40,2,fixationCross,21869257.0,21872773.0,3516.0,40,R,21868593,21869245,654,894.0,463.7,4650,NA
60,1,binary,40,2,trial,21869257.0,21872773.0,3516.0,40,R,21869393,21869531,140,913.9,451.6,4742,NA
60,1,binary,40,2,trial,21869257.0,21872773.0,3516.0,40,R,21869575,21869795,222,464.3,516.2,4828,left
60,1,binary,40,2,trial,21869257.0,21872773.0,3516.0,40,R,21869813,21870117,306,470.9,460.1,4369,left
60,1,binary,40,2,trial,21869257.0,21872773.0,3516.0,40,R,21870143,21870571,430,476.8,593.0,4182,left
60,1,binary,40,2,trial,21869257.0,21872773.0,3516.0,40,R,21870631,21870865,236,1328.4,479.2,4202,right
60,1,binary,40,2,trial,21869257.0,21872773.0,3516.0,40,R,21870877,21871731,856,1298.9,471.5,4248,right
60,1,binary,40,2,trial,21869257.0,21872773.0,3516.0,40,R,21871745,21871859,116,1278.3,502.5,4517,right
60,1,binary,40,2,trial,21869257.0,21872773.0,3516.0,40,R,21871977,21872221,246,1318.2,467.8,4669,right
60,1,binary,40,2,trial,21869257.0,21872773.0,3516.0,40,R,21872287,21872677,392,380.5,522.7,4496,left
60,1,binary,40,2,trial,21869257.0,21872773.0,3516.0,40,R,21872701,21872977,278,485.4,567.3,4020,left
60,1,binary,41,2,fixationCross,21873974.0,21876723.0,2749.0,41,R,21873207,21873381,176,1073.0,387.3,4137,NA
60,1,binary,41,2,fixationCross,21873974.0,21876723.0,2749.0,41,R,21873427,21873671,246,871.1,435.6,4483,NA
60,1,binary,41,2,fixationCross,21873974.0,21876723.0,2749.0,41,R,21873691,21873973,284,945.1,459.1,4720,NA
60,1,binary,41,2,trial,21873974.0,21876723.0,2749.0,41,R,21873993,21874177,186,872.9,494.3,4798,NA
60,1,binary,41,2,trial,21873974.0,21876723.0,2749.0,41,R,21874225,21874473,250,417.7,504.8,4729,left
60,1,binary,41,2,trial,21873974.0,21876723.0,2749.0,41,R,21874495,21874721,228,385.3,581.9,4437,left
60,1,binary,41,2,trial,21873974.0,21876723.0,2749.0,41,R,21874789,21875153,366,1381.2,593.5,4257,right
60,1,binary,41,2,trial,21873974.0,21876723.0,2749.0,41,R,21875169,21875457,290,1428.3,587.3,4213,right
60,1,binary,41,2,trial,21873974.0,21876723.0,2749.0,41,R,21875529,21875777,250,424.1,530.8,4231,left
60,1,binary,41,2,trial,21873974.0,21876723.0,2749.0,41,R,21875795,21876077,284,394.2,548.5,4153,left
60,1,binary,41,2,trial,21873974.0,21876723.0,2749.0,41,R,21876109,21876607,500,546.8,604.8,4198,left
60,1,binary,41,2,trial,21873974.0,21876723.0,2749.0,41,R,21876671,21876907,238,1438.5,573.1,4178,right
60,1,binary,42,1,fixationCross,21877974.0,21882623.0,4649.0,42,R,21877159,21877371,214,1452.0,138.5,4187,NA
60,1,binary,42,1,fixationCross,21877974.0,21882623.0,4649.0,42,R,21877425,21877657,234,1103.6,295.8,4511,NA
60,1,binary,42,1,trial,21877974.0,21882623.0,4649.0,42,R,21877697,21877999,304,948.1,513.1,4617,NA
60,1,binary,42,1,trial,21877974.0,21882623.0,4649.0,42,R,21878019,21878147,130,968.0,493.4,4693,NA
60,1,binary,42,1,trial,21877974.0,21882623.0,4649.0,42,R,21878199,21878397,200,426.2,448.8,4695,left
60,1,binary,42,1,trial,21877974.0,21882623.0,4649.0,42,R,21878411,21878669,260,434.2,424.3,4246,left
60,1,binary,42,1,trial,21877974.0,21882623.0,4649.0,42,R,21878687,21878999,314,397.1,462.3,3970,left
60,1,binary,42,1,trial,21877974.0,21882623.0,4649.0,42,R,21879077,21879421,346,1436.4,521.3,3937,right
60,1,binary,42,1,trial,21877974.0,21882623.0,4649.0,42,R,21879439,21880537,1100,1468.3,567.2,4114,right
60,1,binary,42,1,trial,21877974.0,21882623.0,4649.0,42,R,21880605,21880815,212,573.5,494.2,4368,left
60,1,binary,42,1,trial,21877974.0,21882623.0,4649.0,42,R,21880841,21881231,392,437.7,524.8,4263,left
60,1,binary,42,1,trial,21877974.0,21882623.0,4649.0,42,R,21881269,21881445,178,360.3,726.4,4227,left
60,1,binary,42,1,trial,21877974.0,21882623.0,4649.0,42,R,21881573,21881957,386,466.2,450.2,4187,left
60,1,binary,42,1,trial,21877974.0,21882623.0,4649.0,42,R,21882029,21882387,360,1487.2,543.2,4009,right
60,1,binary,42,1,trial,21877974.0,21882623.0,4649.0,42,R,21882395,21882635,242,1466.5,550.9,4061,right
60,1,binary,42,1,trial,21877974.0,21882623.0,4649.0,42,R,21882647,21882805,160,1484.6,569.8,4121,right
60,1,binary,43,1,fixationCross,21883924.0,21886557.0,2633.0,43,R,21883057,21883249,194,928.6,328.2,4241,NA
60,1,binary,43,1,fixationCross,21883924.0,21886557.0,2633.0,43,R,21883293,21883485,194,745.6,524.7,4511,NA
60,1,binary,43,1,fixationCross,21883924.0,21886557.0,2633.0,43,R,21883511,21883645,136,898.3,487.3,4549,NA
60,1,binary,43,1,trial,21883924.0,21886557.0,2633.0,43,R,21883795,21884105,312,859.5,427.9,4594,NA
60,1,binary,43,1,trial,21883924.0,21886557.0,2633.0,43,R,21884143,21884491,350,488.6,469.9,4365,left
60,1,binary,43,1,trial,21883924.0,21886557.0,2633.0,43,R,21884513,21885109,598,406.2,527.2,3911,left
60,1,binary,43,1,trial,21883924.0,21886557.0,2633.0,43,R,21885125,21885381,258,469.0,531.8,3940,left
60,1,binary,43,1,trial,21883924.0,21886557.0,2633.0,43,R,21885451,21885685,236,1471.5,524.8,3885,right
60,1,binary,43,1,trial,21883924.0,21886557.0,2633.0,43,R,21885705,21886723,1020,1542.8,553.0,3962,right
60,1,binary,44,1,fixationCross,21890674.0,21893057.0,2383.0,44,R,21887001,21887775,776,814.5,415.5,4390,NA
60,1,binary,44,1,fixationCross,21890674.0,21893057.0,2383.0,44,R,21887791,21888245,456,884.4,420.7,4515,NA
60,1,binary,44,1,fixationCross,21890674.0,21893057.0,2383.0,44,R,21888269,21888501,234,797.8,423.4,4690,NA
60,1,binary,44,1,fixationCross,21890674.0,21893057.0,2383.0,44,R,21888533,21888733,202,904.3,434.7,4710,NA
60,1,binary,44,1,fixationCross,21890674.0,21893057.0,2383.0,44,R,21889007,21889269,264,869.7,398.0,4998,NA
60,1,binary,44,1,fixationCross,21890674.0,21893057.0,2383.0,44,R,21889305,21889569,266,962.9,433.2,5077,NA
60,1,binary,44,1,fixationCross,21890674.0,21893057.0,2383.0,44,R,21889589,21889739,152,880.8,442.5,4852,NA
60,1,binary,44,1,fixationCross,21890674.0,21893057.0,2383.0,44,R,21890031,21890421,392,886.6,379.5,4777,NA
60,1,binary,44,1,fixationCross,21890674.0,21893057.0,2383.0,44,R,21890451,21890635,186,899.7,533.5,4758,NA
60,1,binary,44,1,trial,21890674.0,21893057.0,2383.0,44,R,21890649,21890893,246,934.8,551.0,4699,NA
60,1,binary,44,1,trial,21890674.0,21893057.0,2383.0,44,R,21890943,21891335,394,405.1,430.0,4481,left
60,1,binary,44,1,trial,21890674.0,21893057.0,2383.0,44,R,21891357,21891687,332,511.9,464.7,4067,left
60,1,binary,44,1,trial,21890674.0,21893057.0,2383.0,44,R,21891755,21892073,320,1382.6,443.3,4031,right
60,1,binary,44,1,trial,21890674.0,21893057.0,2383.0,44,R,21892087,21892369,284,1395.2,396.9,3972,right
60,1,binary,44,1,trial,21890674.0,21893057.0,2383.0,44,R,21892443,21892685,244,383.3,410.2,4075,left
60,1,binary,44,1,trial,21890674.0,21893057.0,2383.0,44,R,21892705,21893083,380,399.1,339.1,3919,NA
60,1,binary,44,1,trial,21890674.0,21893057.0,2383.0,44,R,21893101,21893257,158,449.6,375.1,3869,left
60,1,binary,45,1,fixationCross,21896608.0,21899341.0,2733.0,45,R,21893495,21893751,258,1086.0,139.1,3959,NA
60,1,binary,45,1,fixationCross,21896608.0,21899341.0,2733.0,45,R,21893799,21894161,364,834.1,374.7,4296,NA
60,1,binary,45,1,fixationCross,21896608.0,21899341.0,2733.0,45,R,21894185,21894625,442,952.2,408.1,4320,NA
60,1,binary,45,1,fixationCross,21896608.0,21899341.0,2733.0,45,R,21894647,21894785,140,898.2,397.4,4394,NA
60,1,binary,45,1,fixationCross,21896608.0,21899341.0,2733.0,45,R,21894975,21895339,366,882.1,409.1,4580,NA
60,1,binary,45,1,fixationCross,21896608.0,21899341.0,2733.0,45,R,21895363,21895555,194,977.2,384.9,4652,NA
60,1,binary,45,1,fixationCross,21896608.0,21899341.0,2733.0,45,R,21895575,21895987,414,885.2,372.0,4543,NA
60,1,binary,45,1,fixationCross,21896608.0,21899341.0,2733.0,45,R,21896023,21896203,182,978.3,327.5,4614,NA
60,1,binary,45,1,trial,21896608.0,21899341.0,2733.0,45,R,21896507,21896819,314,947.2,382.5,4919,NA
60,1,binary,45,1,trial,21896608.0,21899341.0,2733.0,45,R,21896867,21897129,264,397.2,486.6,4832,left
60,1,binary,45,1,trial,21896608.0,21899341.0,2733.0,45,R,21897161,21897423,264,422.6,606.8,4234,left
60,1,binary,45,1,trial,21896608.0,21899341.0,2733.0,45,R,21897435,21897845,412,398.5,616.4,3976,left
60,1,binary,45,1,trial,21896608.0,21899341.0,2733.0,45,R,21897913,21898255,344,1332.4,381.4,3709,right
60,1,binary,45,1,trial,21896608.0,21899341.0,2733.0,45,R,21898285,21898585,302,1516.9,498.3,3848,right
60,1,binary,45,1,trial,21896608.0,21899341.0,2733.0,45,R,21898665,21898869,206,343.2,413.5,4057,left
60,1,binary,45,1,trial,21896608.0,21899341.0,2733.0,45,R,21898887,21899065,180,378.4,374.0,3909,left
60,1,binary,45,1,trial,21896608.0,21899341.0,2733.0,45,R,21899101,21899315,216,430.6,595.5,3845,left
60,1,binary,45,1,trial,21896608.0,21899341.0,2733.0,45,R,21899325,21899547,224,404.0,602.9,3884,left
60,1,binary,46,1,fixationCross,21902091.0,21904624.0,2533.0,46,R,21899755,21899851,98,1453.9,235.9,3771,NA
60,1,binary,46,1,fixationCross,21902091.0,21904624.0,2533.0,46,R,21899909,21900139,232,960.2,357.7,3986,NA
60,1,binary,46,1,fixationCross,21902091.0,21904624.0,2533.0,46,R,21900167,21900731,566,891.9,456.4,4236,NA
60,1,binary,46,1,fixationCross,21902091.0,21904624.0,2533.0,46,R,21900755,21901043,290,819.0,435.5,4240,NA
60,1,binary,46,1,fixationCross,21902091.0,21904624.0,2533.0,46,R,21901255,21901403,150,800.9,398.7,4429,NA
60,1,binary,46,1,fixationCross,21902091.0,21904624.0,2533.0,46,R,21901429,21901501,74,912.7,383.3,4487,NA
60,1,binary,46,1,fixationCross,21902091.0,21904624.0,2533.0,46,R,21901797,21901955,160,912.6,334.8,4650,NA
60,1,binary,46,1,trial,21902091.0,21904624.0,2533.0,46,R,21902265,21902405,142,936.3,362.1,4632,NA
60,1,binary,46,1,trial,21902091.0,21904624.0,2533.0,46,R,21902455,21902715,262,522.9,474.9,4417,left
60,1,binary,46,1,trial,21902091.0,21904624.0,2533.0,46,R,21902737,21903151,416,587.7,455.9,3791,left
60,1,binary,46,1,trial,21902091.0,21904624.0,2533.0,46,R,21903169,21903339,172,522.4,486.2,3651,left
60,1,binary,46,1,trial,21902091.0,21904624.0,2533.0,46,R,21903403,21903773,372,1400.5,530.2,3603,right
60,1,binary,46,1,trial,21902091.0,21904624.0,2533.0,46,R,21903789,21904167,380,1452.8,495.4,3545,right
60,1,binary,46,1,trial,21902091.0,21904624.0,2533.0,46,R,21904191,21904283,94,1362.7,470.1,3587,right
60,1,binary,46,1,trial,21902091.0,21904624.0,2533.0,46,R,21904341,21904601,262,602.6,459.6,3721,left
60,1,binary,46,1,trial,21902091.0,21904624.0,2533.0,46,R,21904617,21904835,220,553.8,457.2,3787,left
60,1,binary,47,2,fixationCross,21905858.0,21911058.0,5200.0,47,R,21905041,21905187,148,1102.2,189.8,3890,NA
60,1,binary,47,2,fixationCross,21905858.0,21911058.0,5200.0,47,R,21905237,21905549,314,866.7,330.1,4163,NA
60,1,binary,47,2,trial,21905858.0,21911058.0,5200.0,47,R,21905581,21905919,340,918.1,476.1,4334,NA
60,1,binary,47,2,trial,21905858.0,21911058.0,5200.0,47,R,21905943,21906121,180,814.6,424.6,4348,NA
60,1,binary,47,2,trial,21905858.0,21911058.0,5200.0,47,R,21906161,21906481,322,490.5,472.7,4155,left
60,1,binary,47,2,trial,21905858.0,21911058.0,5200.0,47,R,21906539,21906969,432,1322.6,537.2,3789,right
60,1,binary,47,2,trial,21905858.0,21911058.0,5200.0,47,R,21906983,21907259,278,1366.2,543.5,3825,right
60,1,binary,47,2,trial,21905858.0,21911058.0,5200.0,47,R,21907269,21907821,554,1383.3,563.5,4052,right
60,1,binary,47,2,trial,21905858.0,21911058.0,5200.0,47,R,21907887,21908217,332,514.4,505.6,4100,left
60,1,binary,47,2,trial,21905858.0,21911058.0,5200.0,47,R,21908239,21908477,240,422.9,547.5,3948,left
60,1,binary,47,2,trial,21905858.0,21911058.0,5200.0,47,R,21908503,21908783,282,320.6,622.4,3885,left
60,1,binary,47,2,trial,21905858.0,21911058.0,5200.0,47,R,21909057,21909417,362,452.0,499.3,3953,left
60,1,binary,47,2,trial,21905858.0,21911058.0,5200.0,47,R,21909731,21909927,198,499.5,470.2,3967,left
60,1,binary,47,2,trial,21905858.0,21911058.0,5200.0,47,R,21909945,21910083,140,540.5,493.2,4153,left
60,1,binary,47,2,trial,21905858.0,21911058.0,5200.0,47,R,21910147,21910393,248,1430.3,523.7,4176,right
60,1,binary,47,2,trial,21905858.0,21911058.0,5200.0,47,R,21910405,21910573,170,1383.5,516.9,4063,right
60,1,binary,47,2,trial,21905858.0,21911058.0,5200.0,47,R,21910595,21910935,342,1285.1,527.2,4119,right
60,1,binary,47,2,postResponse,21905858.0,21911058.0,5200.0,47,R,21910967,21911391,426,1350.8,373.9,4255,right
60,1,binary,48,1,fixationCross,21912157.0,21913191.0,1034.0,48,R,21911465,21911547,84,1356.9,372.7,4365,right
60,1,binary,48,1,fixationCross,21912157.0,21913191.0,1034.0,48,R,21911599,21911855,258,1088.6,599.5,4631,NA
60,1,binary,48,1,trial,21912157.0,21913191.0,1034.0,48,R,21911881,21912187,308,936.2,559.8,4891,NA
60,1,binary,48,1,trial,21912157.0,21913191.0,1034.0,48,R,21912385,21912735,352,526.7,536.3,5110,left
60,1,binary,48,1,trial,21912157.0,21913191.0,1034.0,48,R,21912757,21913157,402,625.5,544.5,4568,left
60,1,binary,48,1,trial,21912157.0,21913191.0,1034.0,48,R,21913197,21913367,172,299.2,536.6,4478,left
60,1,binary,49,1,fixationCross,21914408.0,21918007.0,3599.0,49,R,21913605,21913787,184,952.8,335.8,4588,NA
60,1,binary,49,1,fixationCross,21914408.0,21918007.0,3599.0,49,R,21913835,21914109,276,722.5,497.2,4970,left
60,1,binary,49,1,fixationCross,21914408.0,21918007.0,3599.0,49,R,21914151,21914395,246,959.8,512.4,5192,NA
60,1,binary,49,1,trial,21914408.0,21918007.0,3599.0,49,R,21914417,21914585,170,918.0,525.6,5220,NA
60,1,binary,49,1,trial,21914408.0,21918007.0,3599.0,49,R,21914627,21914889,264,499.3,514.8,5127,left
60,1,binary,49,1,trial,21914408.0,21918007.0,3599.0,49,R,21914909,21915163,256,619.5,531.7,4560,left
60,1,binary,49,1,trial,21914408.0,21918007.0,3599.0,49,R,21915187,21915507,322,456.1,501.4,4284,left
60,1,binary,49,1,trial,21914408.0,21918007.0,3599.0,49,R,21915529,21915883,356,366.4,471.7,4245,left
60,1,binary,49,1,trial,21914408.0,21918007.0,3599.0,49,R,21915903,21916203,302,309.9,507.1,4178,left
60,1,binary,49,1,trial,21914408.0,21918007.0,3599.0,49,R,21916223,21916467,246,373.8,460.0,4098,left
60,1,binary,49,1,trial,21914408.0,21918007.0,3599.0,49,R,21916495,21916649,156,505.0,488.1,3980,left
60,1,binary,49,1,trial,21914408.0,21918007.0,3599.0,49,R,21916713,21916935,224,1438.4,490.7,3871,right
60,1,binary,49,1,trial,21914408.0,21918007.0,3599.0,49,R,21916953,21917323,372,1502.4,492.8,3900,right
60,1,binary,49,1,trial,21914408.0,21918007.0,3599.0,49,R,21917357,21917551,196,1495.1,341.9,3887,NA
60,1,binary,49,1,trial,21914408.0,21918007.0,3599.0,49,R,21917589,21917991,404,1346.4,573.4,4044,right
60,1,binary,49,1,trial,21914408.0,21918007.0,3599.0,49,R,21918005,21918183,180,1328.3,599.0,4118,right
60,1,binary,50,1,fixationCross,21919191.0,21923424.0,4233.0,50,R,21918449,21918459,12,658.3,345.3,4370,NA
60,1,binary,50,1,fixationCross,21919191.0,21923424.0,4233.0,50,R,21918483,21918887,406,812.6,380.1,4519,NA
60,1,binary,50,1,trial,21919191.0,21923424.0,4233.0,50,R,21918929,21919247,320,912.9,501.6,4824,NA
60,1,binary,50,1,trial,21919191.0,21923424.0,4233.0,50,R,21919267,21919431,166,927.4,523.7,4880,NA
60,1,binary,50,1,trial,21919191.0,21923424.0,4233.0,50,R,21919479,21920039,562,472.9,473.4,4371,left
60,1,binary,50,1,trial,21919191.0,21923424.0,4233.0,50,R,21920059,21920181,124,551.5,418.8,4083,left
60,1,binary,50,1,trial,21919191.0,21923424.0,4233.0,50,R,21920247,21920751,506,1402.2,514.6,4048,right
60,1,binary,50,1,trial,21919191.0,21923424.0,4233.0,50,R,21920765,21921435,672,1412.7,480.7,4107,right
60,1,binary,50,1,trial,21919191.0,21923424.0,4233.0,50,R,21921503,21921683,182,537.7,484.2,4433,left
60,1,binary,50,1,trial,21919191.0,21923424.0,4233.0,50,R,21921709,21922035,328,359.4,515.3,4319,left
60,1,binary,50,1,trial,21919191.0,21923424.0,4233.0,50,R,21922081,21922237,158,393.2,961.2,4325,NA
60,1,binary,50,1,trial,21919191.0,21923424.0,4233.0,50,R,21922311,21922507,198,1483.9,829.3,4475,NA
60,1,binary,50,1,trial,21919191.0,21923424.0,4233.0,50,R,21922545,21923621,1078,1426.6,580.4,4692,right
60,2,continuous,1,100,fixationCross,22021976.0,22026942.0,4966.0,51,R,22021253,22021445,194,1070.0,883.1,5581,likertHorizontal
60,2,continuous,1,100,fixationCross,22021976.0,22026942.0,4966.0,51,R,22021491,22021677,188,801.1,589.9,5648,NA
60,2,continuous,1,100,trial,22021976.0,22026942.0,4966.0,51,R,22021701,22022213,514,948.2,566.6,5976,NA
60,2,continuous,1,100,trial,22021976.0,22026942.0,4966.0,51,R,22022267,22022393,128,919.1,1031.4,6178,likertHorizontal
60,2,continuous,1,100,trial,22021976.0,22026942.0,4966.0,51,R,22022445,22022763,320,389.1,465.2,5422,left
60,2,continuous,1,100,trial,22021976.0,22026942.0,4966.0,51,R,22022837,22023305,470,1397.5,487.2,4709,right
60,2,continuous,1,100,trial,22021976.0,22026942.0,4966.0,51,R,22023325,22023757,434,1443.1,522.5,4710,right
60,2,continuous,1,100,trial,22021976.0,22026942.0,4966.0,51,R,22023833,22024209,378,368.9,502.0,4672,left
60,2,continuous,1,100,trial,22021976.0,22026942.0,4966.0,51,R,22024269,22024467,200,1002.1,986.0,4347,likertHorizontal
60,2,continuous,1,100,trial,22021976.0,22026942.0,4966.0,51,R,22024485,22024909,426,958.6,998.8,4339,likertHorizontal
60,2,continuous,1,100,trial,22021976.0,22026942.0,4966.0,51,R,22024951,22025219,270,1296.1,717.3,4668,right
60,2,continuous,1,100,trial,22021976.0,22026942.0,4966.0,51,R,22025313,22025375,64,1245.1,1110.1,3797,NA
60,2,continuous,1,100,trial,22021976.0,22026942.0,4966.0,51,R,22025385,22025435,52,1259.6,1075.0,3901,NA
60,2,continuous,1,100,trial,22021976.0,22026942.0,4966.0,51,R,22025481,22025513,34,1283.1,969.5,4261,NA
60,2,continuous,1,100,trial,22021976.0,22026942.0,4966.0,51,R,22025531,22025551,22,1274.2,938.9,4387,NA
60,2,continuous,1,100,trial,22021976.0,22026942.0,4966.0,51,R,22025605,22025695,92,1333.7,777.3,4539,NA
60,2,continuous,1,100,trial,22021976.0,22026942.0,4966.0,51,R,22025719,22025851,134,1332.4,772.6,4711,NA
60,2,continuous,1,100,trial,22021976.0,22026942.0,4966.0,51,R,22025873,22025907,36,1333.5,756.1,4874,NA
60,2,continuous,1,100,trial,22021976.0,22026942.0,4966.0,51,R,22025925,22025961,38,1336.4,745.9,4966,NA
60,2,continuous,1,100,trial,22021976.0,22026942.0,4966.0,51,R,22026005,22026745,742,1430.8,665.5,5293,right
60,2,continuous,1,100,trial,22021976.0,22026942.0,4966.0,51,R,22026791,22027195,406,1446.0,993.6,5633,NA
60,2,continuous,2,100,fixationCross,22027976.0,22030592.0,2616.0,52,R,22027353,22027469,118,727.9,432.1,5063,left
60,2,continuous,2,100,fixationCross,22027976.0,22030592.0,2616.0,52,R,22027691,22027875,186,916.4,569.1,5461,NA
60,2,continuous,2,100,trial,22027976.0,22030592.0,2616.0,52,R,22027889,22028153,266,962.0,576.8,5726,NA
60,2,continuous,2,100,trial,22027976.0,22030592.0,2616.0,52,R,22028197,22028487,292,506.6,507.0,5392,left
60,2,continuous,2,100,trial,22027976.0,22030592.0,2616.0,52,R,22028517,22028689,174,335.9,569.2,4648,left
60,2,continuous,2,100,trial,22027976.0,22030592.0,2616.0,52,R,22028715,22028953,240,518.4,470.7,4322,left
60,2,continuous,2,100,trial,22027976.0,22030592.0,2616.0,52,R,22029015,22029233,220,1412.2,517.2,4096,right
60,2,continuous,2,100,trial,22027976.0,22030592.0,2616.0,52,R,22029247,22029877,632,1443.8,532.0,4044,right
60,2,continuous,2,100,trial,22027976.0,22030592.0,2616.0,52,R,22029897,22030781,886,1379.3,537.0,4799,right
60,2,continuous,3,36,fixationCross,22031676.0,22047176.0,15500.0,53,R,22031017,22031377,362,780.3,538.9,5677,NA
60,2,continuous,3,36,trial,22031676.0,22047176.0,15500.0,53,R,22031403,22031847,446,976.8,543.5,5855,NA
60,2,continuous,3,36,trial,22031676.0,22047176.0,15500.0,53,R,22031893,22032043,152,490.8,468.3,5769,left
60,2,continuous,3,36,trial,22031676.0,22047176.0,15500.0,53,R,22032057,22032211,156,445.6,427.8,5208,left
60,2,continuous,3,36,trial,22031676.0,22047176.0,15500.0,53,R,22032279,22032583,306,1436.4,561.5,4442,right
60,2,continuous,3,36,trial,22031676.0,22047176.0,15500.0,53,R,22032597,22032813,218,1438.9,589.1,4337,right
60,2,continuous,3,36,trial,22031676.0,22047176.0,15500.0,53,R,22032883,22033095,214,415.9,456.4,4456,left
60,2,continuous,3,36,trial,22031676.0,22047176.0,15500.0,53,R,22033105,22033475,372,413.6,428.4,4257,left
60,2,continuous,3,36,trial,22031676.0,22047176.0,15500.0,53,R,22033539,22033789,252,1383.1,583.9,4266,right
60,2,continuous,3,36,trial,22031676.0,22047176.0,15500.0,53,R,22033807,22034807,1002,1444.3,577.3,4834,right
60,2,continuous,3,36,trial,22031676.0,22047176.0,15500.0,53,R,22034853,22035085,234,991.7,970.6,5321,likertHorizontal
60,2,continuous,3,36,trial,22031676.0,22047176.0,15500.0,53,R,22035127,22035337,212,550.1,1001.2,5008,NA
60,2,continuous,3,36,trial,22031676.0,22047176.0,15500.0,53,R,22035395,22035743,350,1100.6,904.7,4794,likertHorizontal
60,2,continuous,3,36,trial,22031676.0,22047176.0,15500.0,53,R,22035801,22036057,258,477.9,546.5,5028,left
60,2,continuous,3,36,trial,22031676.0,22047176.0,15500.0,53,R,22036245,22036391,148,1005.0,933.3,4995,likertHorizontal
60,2,continuous,3,36,trial,22031676.0,22047176.0,15500.0,53,R,22036431,22036921,492,962.8,1063.8,5142,likertHorizontal
60,2,continuous,3,36,trial,22031676.0,22047176.0,15500.0,53,R,22036983,22037135,154,1382.7,703.7,4964,right
60,2,continuous,3,36,trial,22031676.0,22047176.0,15500.0,53,R,22037365,22037487,124,1916.5,279.2,4757,NA
60,2,continuous,3,36,trial,22031676.0,22047176.0,15500.0,53,R,22037545,22038473,930,1252.6,643.9,5124,right
60,2,continuous,3,36,trial,22031676.0,22047176.0,15500.0,53,R,22038499,22038901,404,1123.3,776.1,5549,likertHorizontal
60,2,continuous,3,36,trial,22031676.0,22047176.0,15500.0,53,R,22038935,22039277,344,1145.3,994.2,5839,likertHorizontal
60,2,continuous,3,36,trial,22031676.0,22047176.0,15500.0,53,R,22039315,22039525,212,745.2,976.5,5831,likertHorizontal
60,2,continuous,3,36,trial,22031676.0,22047176.0,15500.0,53,R,22039583,22039753,172,552.9,539.7,5658,left
60,2,continuous,3,36,trial,22031676.0,22047176.0,15500.0,53,R,22039813,22040313,502,1404.4,597.0,5323,right
60,2,continuous,3,36,trial,22031676.0,22047176.0,15500.0,53,R,22040543,22040595,54,1444.8,636.1,5123,right
60,2,continuous,3,36,trial,22031676.0,22047176.0,15500.0,53,R,22040661,22040849,190,484.3,489.7,5531,left
60,2,continuous,3,36,trial,22031676.0,22047176.0,15500.0,53,R,22040871,22041363,494,427.0,426.2,5147,left
60,2,continuous,3,36,trial,22031676.0,22047176.0,15500.0,53,R,22041431,22042187,758,1439.6,586.7,4990,right
60,2,continuous,3,36,trial,22031676.0,22047176.0,15500.0,53,R,22042259,22042567,310,433.4,471.3,5126,left
60,2,continuous,3,36,trial,22031676.0,22047176.0,15500.0,53,R,22042583,22043133,552,429.8,441.2,4868,left
60,2,continuous,3,36,trial,22031676.0,22047176.0,15500.0,53,R,22043151,22043587,438,431.6,480.0,5216,left
60,2,continuous,3,36,trial,22031676.0,22047176.0,15500.0,53,R,22043603,22043869,268,450.7,440.6,5280,left
60,2,continuous,3,36,trial,22031676.0,22047176.0,15500.0,53,R,22043905,22044269,366,542.3,641.1,5181,left
60,2,continuous,3,36,trial,22031676.0,22047176.0,15500.0,53,R,22044303,22044521,220,472.7,547.5,5184,left
60,2,continuous,3,36,trial,22031676.0,22047176.0,15500.0,53,R,22044553,22045069,518,448.6,427.9,5048,left
60,2,continuous,3,36,trial,22031676.0,22047176.0,15500.0,53,R,22045143,22045413,272,1400.5,539.3,5105,right
60,2,continuous,3,36,trial,22031676.0,22047176.0,15500.0,53,R,22045435,22046073,640,1487.4,570.0,5078,right
60,2,continuous,3,36,trial,22031676.0,22047176.0,15500.0,53,R,22046145,22047373,1230,458.1,464.5,5047,left
60,2,continuous,4,15,fixationCross,22048342.0,22051059.0,2717.0,54,R,22047639,22047839,202,871.0,438.8,5555,NA
60,2,continuous,4,15,fixationCross,22048342.0,22051059.0,2717.0,54,R,22047869,22048025,158,726.2,521.0,5749,left
60,2,continuous,4,15,trial,22048342.0,22051059.0,2717.0,54,R,22048057,22048415,360,922.4,534.7,5777,NA
60,2,continuous,4,15,trial,22048342.0,22051059.0,2717.0,54,R,22048441,22048583,144,789.8,533.7,5826,NA
60,2,continuous,4,15,trial,22048342.0,22051059.0,2717.0,54,R,22048619,22048889,272,493.4,530.5,5403,left
60,2,continuous,4,15,trial,22048342.0,22051059.0,2717.0,54,R,22048913,22049025,114,420.5,591.7,4961,left
60,2,continuous,4,15,trial,22048342.0,22051059.0,2717.0,54,R,22049087,22049331,246,1373.2,526.1,4628,right
60,2,continuous,4,15,trial,22048342.0,22051059.0,2717.0,54,R,22049351,22049503,154,1449.7,494.9,4366,right
60,2,continuous,4,15,trial,22048342.0,22051059.0,2717.0,54,R,22049531,22049721,192,1274.0,573.7,4285,right
60,2,continuous,4,15,trial,22048342.0,22051059.0,2717.0,54,R,22049737,22049893,158,1247.3,603.0,4361,right
60,2,continuous,4,15,trial,22048342.0,22051059.0,2717.0,54,R,22049957,22050161,206,447.6,553.5,4524,left
60,2,continuous,4,15,trial,22048342.0,22051059.0,2717.0,54,R,22050183,22050751,570,413.8,580.5,4594,left
60,2,continuous,4,15,trial,22048342.0,22051059.0,2717.0,54,R,22050797,22050949,154,532.2,952.4,4589,NA
60,2,continuous,4,15,trial,22048342.0,22051059.0,2717.0,54,R,22051021,22051233,214,520.6,610.3,4609,left
60,2,continuous,5,10,fixationCross,22052109.0,22054992.0,2883.0,55,R,22051491,22051811,322,1050.0,408.4,4684,NA
60,2,continuous,5,10,trial,22052109.0,22054992.0,2883.0,55,R,22051841,22052295,456,953.2,542.5,5141,NA
60,2,continuous,5,10,trial,22052109.0,22054992.0,2883.0,55,R,22052345,22052521,178,571.7,570.9,5017,left
60,2,continuous,5,10,trial,22052109.0,22054992.0,2883.0,55,R,22052573,22052847,276,1259.9,466.6,4324,right
60,2,continuous,5,10,trial,22052109.0,22054992.0,2883.0,55,R,22052873,22053153,282,1436.8,529.5,4211,right
60,2,continuous,5,10,trial,22052109.0,22054992.0,2883.0,55,R,22053229,22053391,164,452.3,584.3,4496,left
60,2,continuous,5,10,trial,22052109.0,22054992.0,2883.0,55,R,22053413,22053691,280,338.3,604.7,4427,left
60,2,continuous,5,10,trial,22052109.0,22054992.0,2883.0,55,R,22053721,22053997,278,387.6,496.2,4228,left
60,2,continuous,5,10,trial,22052109.0,22054992.0,2883.0,55,R,22054017,22054287,272,311.8,485.6,4093,left
60,2,continuous,5,10,trial,22052109.0,22054992.0,2883.0,55,R,22054333,22054709,378,525.8,948.1,4188,NA
60,2,continuous,5,10,trial,22052109.0,22054992.0,2883.0,55,R,22054755,22054983,230,631.8,551.9,4309,left
60,2,continuous,5,10,trial,22052109.0,22054992.0,2883.0,55,R,22055041,22055223,184,1406.2,458.5,4400,right
60,2,continuous,6,4,fixationCross,22056076.0,22058626.0,2550.0,56,R,22055441,22055761,322,882.9,388.1,4782,NA
60,2,continuous,6,4,fixationCross,22056076.0,22058626.0,2550.0,56,R,22055787,22055945,160,895.3,517.1,5084,NA
60,2,continuous,6,4,trial,22056076.0,22058626.0,2550.0,56,R,22055965,22056251,288,965.6,533.6,5220,NA
60,2,continuous,6,4,trial,22056076.0,22058626.0,2550.0,56,R,22056299,22056475,178,402.0,462.7,5116,left
60,2,continuous,6,4,trial,22056076.0,22058626.0,2550.0,56,R,22056489,22056691,204,345.9,433.7,4717,left
60,2,continuous,6,4,trial,22056076.0,22058626.0,2550.0,56,R,22056763,22056941,180,1397.7,501.9,4439,right
60,2,continuous,6,4,trial,22056076.0,22058626.0,2550.0,56,R,22056969,22057201,234,1497.0,576.1,4485,right
60,2,continuous,6,4,trial,22056076.0,22058626.0,2550.0,56,R,22057211,22057479,270,1510.4,563.9,4579,right
60,2,continuous,6,4,trial,22056076.0,22058626.0,2550.0,56,R,22057553,22057747,196,365.7,472.9,4646,left
60,2,continuous,6,4,trial,22056076.0,22058626.0,2550.0,56,R,22057765,22058077,314,351.8,422.8,4582,left
60,2,continuous,6,4,trial,22056076.0,22058626.0,2550.0,56,R,22058129,22058353,226,638.6,875.7,4775,NA
60,2,continuous,6,4,trial,22056076.0,22058626.0,2550.0,56,R,22058381,22058805,426,520.1,887.4,4901,NA
60,2,continuous,7,100,fixationCross,22059726.0,22065792.0,6066.0,57,R,22059059,22059177,120,943.3,411.5,4973,NA
60,2,continuous,7,100,fixationCross,22059726.0,22065792.0,6066.0,57,R,22059205,22059421,218,777.4,460.3,5148,NA
60,2,continuous,7,100,trial,22059726.0,22065792.0,6066.0,57,R,22059449,22059929,482,953.2,543.0,5461,NA
60,2,continuous,7,100,trial,22059726.0,22065792.0,6066.0,57,R,22059971,22060419,450,578.4,498.8,5065,left
60,2,continuous,7,100,trial,22059726.0,22065792.0,6066.0,57,R,22060433,22060577,146,603.5,468.9,4722,left
60,2,continuous,7,100,trial,22059726.0,22065792.0,6066.0,57,R,22060639,22060943,306,1470.9,443.6,4523,right
60,2,continuous,7,100,trial,22059726.0,22065792.0,6066.0,57,R,22060961,22061479,520,1380.0,458.0,4352,right
60,2,continuous,7,100,trial,22059726.0,22065792.0,6066.0,57,R,22061489,22061679,192,1405.5,450.3,4325,right
60,2,continuous,7,100,trial,22059726.0,22065792.0,6066.0,57,R,22061715,22062145,432,1333.6,617.1,4561,right
60,2,continuous,7,100,trial,22059726.0,22065792.0,6066.0,57,R,22062207,22062689,484,566.4,494.5,4817,left
60,2,continuous,7,100,trial,22059726.0,22065792.0,6066.0,57,R,22062705,22063381,678,610.3,469.3,4830,left
60,2,continuous,7,100,trial,22059726.0,22065792.0,6066.0,57,R,22063397,22063967,572,697.9,520.9,4940,left
60,2,continuous,7,100,trial,22059726.0,22065792.0,6066.0,57,R,22063993,22064193,202,595.9,481.9,5080,left
60,2,continuous,7,100,trial,22059726.0,22065792.0,6066.0,57,R,22064227,22064365,140,405.8,454.7,5068,left
60,2,continuous,7,100,trial,22059726.0,22065792.0,6066.0,57,R,22064555,22064785,232,408.2,456.7,5007,left
60,2,continuous,7,100,trial,22059726.0,22065792.0,6066.0,57,R,22064797,22065009,214,441.7,448.3,4954,left
60,2,continuous,7,100,trial,22059726.0,22065792.0,6066.0,57,R,22065043,22065281,240,414.9,656.7,4744,left
60,2,continuous,7,100,trial,22059726.0,22065792.0,6066.0,57,R,22065353,22065991,640,1398.9,500.2,4571,right
60,2,continuous,8,50,fixationCross,22066826.0,22068943.0,2117.0,58,R,22066223,22066533,312,568.0,480.6,5266,left
60,2,continuous,8,50,trial,22066826.0,22068943.0,2117.0,58,R,22066575,22066885,312,930.8,524.3,5550,NA
60,2,continuous,8,50,trial,22066826.0,22068943.0,2117.0,58,R,22066911,22067031,122,760.5,512.7,5565,NA
60,2,continuous,8,50,trial,22066826.0,22068943.0,2117.0,58,R,22067069,22067399,332,452.7,510.5,5180,left
60,2,continuous,8,50,trial,22066826.0,22068943.0,2117.0,58,R,22067425,22067531,108,560.4,583.3,4702,left
60,2,continuous,8,50,trial,22066826.0,22068943.0,2117.0,58,R,22067591,22067915,326,1422.3,502.2,4444,right
60,2,continuous,8,50,trial,22066826.0,22068943.0,2117.0,58,R,22067947,22068305,360,1456.7,658.6,4717,right
60,2,continuous,8,50,trial,22066826.0,22068943.0,2117.0,58,R,22068319,22068525,208,1457.2,687.8,4846,right
60,2,continuous,8,50,trial,22066826.0,22068943.0,2117.0,58,R,22068561,22068893,334,1456.9,491.7,5000,right
60,2,continuous,8,50,trial,22066826.0,22068943.0,2117.0,58,R,22068975,22069149,176,518.0,495.9,5143,left
60,2,continuous,9,50,fixationCross,22070043.0,22072476.0,2433.0,59,R,22069385,22069725,342,666.4,479.0,5161,left
60,2,continuous,9,50,trial,22070043.0,22072476.0,2433.0,59,R,22069767,22070057,292,956.3,535.9,5522,NA
60,2,continuous,9,50,trial,22070043.0,22072476.0,2433.0,59,R,22070095,22070215,122,856.0,540.4,5572,NA
60,2,continuous,9,50,trial,22070043.0,22072476.0,2433.0,59,R,22070255,22070469,216,497.9,519.4,5321,left
60,2,continuous,9,50,trial,22070043.0,22072476.0,2433.0,59,R,22070491,22070721,232,389.8,501.8,4558,left
60,2,continuous,9,50,trial,22070043.0,22072476.0,2433.0,59,R,22070743,22070869,128,514.9,526.8,4251,left
60,2,continuous,9,50,trial,22070043.0,22072476.0,2433.0,59,R,22070921,22071247,328,1337.9,504.5,4060,right
60,2,continuous,9,50,trial,22070043.0,22072476.0,2433.0,59,R,22071261,22072093,834,1355.6,471.4,4218,right
60,2,continuous,9,50,trial,22070043.0,22072476.0,2433.0,59,R,22072159,22072421,264,574.4,485.1,4782,left
60,2,continuous,9,50,trial,22070043.0,22072476.0,2433.0,59,R,22072447,22072641,196,418.3,469.2,4565,left
60,2,continuous,10,18,fixationCross,22073543.0,22077093.0,3550.0,60,R,22072889,22073223,336,998.5,374.6,4818,NA
60,2,continuous,10,18,fixationCross,22073543.0,22077093.0,3550.0,60,R,22073249,22073463,216,925.2,498.8,5105,NA
60,2,continuous,10,18,trial,22073543.0,22077093.0,3550.0,60,R,22073485,22073709,226,958.0,535.5,5235,NA
60,2,continuous,10,18,trial,22073543.0,22077093.0,3550.0,60,R,22073751,22073925,176,552.2,495.3,5133,left
60,2,continuous,10,18,trial,22073543.0,22077093.0,3550.0,60,R,22073985,22074359,376,1385.4,519.0,4294,right
60,2,continuous,10,18,trial,22073543.0,22077093.0,3550.0,60,R,22074381,22074775,396,1443.6,561.2,4165,right
60,2,continuous,10,18,trial,22073543.0,22077093.0,3550.0,60,R,22074787,22075017,232,1448.0,580.4,4420,right
60,2,continuous,10,18,trial,22073543.0,22077093.0,3550.0,60,R,22075041,22075441,402,1465.0,483.0,4523,right
60,2,continuous,10,18,trial,22073543.0,22077093.0,3550.0,60,R,22075515,22075817,304,481.7,502.1,4690,left
60,2,continuous,10,18,trial,22073543.0,22077093.0,3550.0,60,R,22075839,22076465,628,584.3,541.2,4530,left
60,2,continuous,10,18,trial,22073543.0,22077093.0,3550.0,60,R,22076493,22077053,562,404.0,538.6,4540,left
60,2,continuous,10,18,trial,22073543.0,22077093.0,3550.0,60,R,22077101,22077269,170,617.0,953.5,4502,NA
60,2,continuous,11,87,fixationCross,22077959.0,22081392.0,3433.0,61,R,22077543,22077851,310,985.9,446.9,4450,NA
60,2,continuous,11,87,trial,22077959.0,22081392.0,3433.0,61,R,22077875,22078113,240,947.4,538.0,4818,NA
60,2,continuous,11,87,trial,22077959.0,22081392.0,3433.0,61,R,22078159,22078387,230,496.1,481.6,4769,left
60,2,continuous,11,87,trial,22077959.0,22081392.0,3433.0,61,R,22078409,22078603,196,386.9,448.7,4180,left
60,2,continuous,11,87,trial,22077959.0,22081392.0,3433.0,61,R,22078669,22079119,452,1443.1,497.5,3841,right
60,2,continuous,11,87,trial,22077959.0,22081392.0,3433.0,61,R,22079135,22080193,1060,1400.6,517.1,4078,right
60,2,continuous,11,87,trial,22077959.0,22081392.0,3433.0,61,R,22080243,22080517,276,1300.0,853.2,4634,NA
60,2,continuous,11,87,trial,22077959.0,22081392.0,3433.0,61,R,22080547,22080713,168,1379.0,992.0,4536,NA
60,2,continuous,11,87,trial,22077959.0,22081392.0,3433.0,61,R,22080795,22081109,316,411.1,466.5,4524,left
60,2,continuous,11,87,trial,22077959.0,22081392.0,3433.0,61,R,22081139,22081323,186,549.9,584.9,4319,left
60,2,continuous,11,87,trial,22077959.0,22081392.0,3433.0,61,R,22081349,22081553,206,638.9,665.6,4296,left
60,2,continuous,12,100,fixationCross,22082493.0,22085310.0,2817.0,62,R,22081823,22082189,368,778.9,427.4,4337,NA
60,2,continuous,12,100,trial,22082493.0,22085310.0,2817.0,62,R,22082215,22082509,296,931.8,483.4,4682,NA
60,2,continuous,12,100,trial,22082493.0,22085310.0,2817.0,62,R,22082533,22082693,162,914.1,545.3,4802,NA
60,2,continuous,12,100,trial,22082493.0,22085310.0,2817.0,62,R,22082735,22083065,332,525.7,495.7,4572,left
60,2,continuous,12,100,trial,22082493.0,22085310.0,2817.0,62,R,22083093,22083343,252,363.1,551.6,4220,left
60,2,continuous,12,100,trial,22082493.0,22085310.0,2817.0,62,R,22083379,22083485,108,559.9,608.7,4176,left
60,2,continuous,12,100,trial,22082493.0,22085310.0,2817.0,62,R,22083549,22083863,316,1417.5,507.9,4035,right
60,2,continuous,12,100,trial,22082493.0,22085310.0,2817.0,62,R,22083887,22084229,344,1406.0,420.7,3884,right
60,2,continuous,12,100,trial,22082493.0,22085310.0,2817.0,62,R,22084269,22084807,540,1281.7,545.6,4023,right
60,2,continuous,12,100,trial,22082493.0,22085310.0,2817.0,62,R,22084831,22085055,226,1268.3,672.8,4292,right
60,2,continuous,12,100,trial,22082493.0,22085310.0,2817.0,62,R,22085089,22085393,306,1542.8,686.6,4538,right
60,2,continuous,12,100,trial,22082493.0,22085310.0,2817.0,62,R,22085431,22085525,96,1432.1,969.2,4591,NA
60,2,continuous,13,100,fixationCross,22086426.0,22088910.0,2484.0,63,R,22085757,22086087,332,586.2,364.1,4732,left
60,2,continuous,13,100,trial,22086426.0,22088910.0,2484.0,63,R,22086129,22086473,346,907.3,498.4,5011,NA
60,2,continuous,13,100,trial,22086426.0,22088910.0,2484.0,63,R,22086519,22086641,124,685.3,479.6,5047,left
60,2,continuous,13,100,trial,22086426.0,22088910.0,2484.0,63,R,22086671,22086895,226,506.4,447.3,4918,left
60,2,continuous,13,100,trial,22086426.0,22088910.0,2484.0,63,R,22086921,22087099,180,556.5,538.8,4688,left
60,2,continuous,13,100,trial,22086426.0,22088910.0,2484.0,63,R,22087109,22087229,122,529.4,527.2,4654,left
60,2,continuous,13,100,trial,22086426.0,22088910.0,2484.0,63,R,22087295,22087545,252,1415.4,464.9,4488,right
60,2,continuous,13,100,trial,22086426.0,22088910.0,2484.0,63,R,22087565,22087777,214,1430.5,398.3,4492,right
60,2,continuous,13,100,trial,22086426.0,22088910.0,2484.0,63,R,22087791,22088243,454,1447.8,429.6,4552,right
60,2,continuous,13,100,trial,22086426.0,22088910.0,2484.0,63,R,22088275,22088539,266,1487.0,625.5,4689,right
60,2,continuous,13,100,trial,22086426.0,22088910.0,2484.0,63,R,22088555,22088897,344,1524.3,657.8,4898,right
60,2,continuous,13,100,trial,22086426.0,22088910.0,2484.0,63,R,22088923,22089121,200,1346.2,631.4,4937,right
60,2,continuous,14,69,fixationCross,22090110.0,22095143.0,5033.0,64,R,22089335,22089817,484,826.4,451.6,5106,NA
60,2,continuous,14,69,fixationCross,22090110.0,22095143.0,5033.0,64,R,22089841,22090075,236,935.7,479.5,5400,NA
60,2,continuous,14,69,trial,22090110.0,22095143.0,5033.0,64,R,22090109,22090275,168,763.8,500.5,5416,NA
60,2,continuous,14,69,trial,22090110.0,22095143.0,5033.0,64,R,22090307,22090623,318,539.8,509.9,5175,left
60,2,continuous,14,69,trial,22090110.0,22095143.0,5033.0,64,R,22090685,22090965,282,1292.4,475.6,4418,right
60,2,continuous,14,69,trial,22090110.0,22095143.0,5033.0,64,R,22090977,22091145,170,1296.1,447.0,4307,right
60,2,continuous,14,69,trial,22090110.0,22095143.0,5033.0,64,R,22091177,22091417,242,1599.9,529.1,4333,right
60,2,continuous,14,69,trial,22090110.0,22095143.0,5033.0,64,R,22091495,22091977,484,466.0,538.8,4410,left
60,2,continuous,14,69,trial,22090110.0,22095143.0,5033.0,64,R,22091991,22092563,574,474.5,507.1,4117,left
60,2,continuous,14,69,trial,22090110.0,22095143.0,5033.0,64,R,22092625,22092845,222,1267.2,442.6,4194,right
60,2,continuous,14,69,trial,22090110.0,22095143.0,5033.0,64,R,22092857,22093227,372,1306.5,442.4,4210,right
60,2,continuous,14,69,trial,22090110.0,22095143.0,5033.0,64,R,22093247,22093517,272,1332.1,484.0,4521,right
60,2,continuous,14,69,trial,22090110.0,22095143.0,5033.0,64,R,22093553,22093843,292,1608.1,510.8,4599,right
60,2,continuous,14,69,trial,22090110.0,22095143.0,5033.0,64,R,22093861,22094013,154,1624.6,554.6,4572,right
60,2,continuous,14,69,trial,22090110.0,22095143.0,5033.0,64,R,22094053,22094929,878,1313.4,470.5,4521,right
60,2,continuous,14,69,trial,22090110.0,22095143.0,5033.0,64,R,22094979,22095285,308,1188.7,970.5,4948,NA
60,2,continuous,15,50,fixationCross,22096293.0,22100360.0,4067.0,65,R,22095557,22095983,428,758.6,399.3,4806,NA
60,2,continuous,15,50,trial,22096293.0,22100360.0,4067.0,65,R,22096011,22096447,438,891.7,554.2,5254,NA
60,2,continuous,15,50,trial,22096293.0,22100360.0,4067.0,65,R,22096499,22096735,238,469.2,505.4,5221,left
60,2,continuous,15,50,trial,22096293.0,22100360.0,4067.0,65,R,22096755,22096969,216,563.5,492.5,4848,left
60,2,continuous,15,50,trial,22096293.0,22100360.0,4067.0,65,R,22096981,22097075,96,597.7,503.9,4730,left
60,2,continuous,15,50,trial,22096293.0,22100360.0,4067.0,65,R,22097133,22097503,372,1340.2,523.1,4595,right
60,2,continuous,15,50,trial,22096293.0,22100360.0,4067.0,65,R,22097527,22098023,498,1519.7,479.5,4866,right
60,2,continuous,15,50,trial,22096293.0,22100360.0,4067.0,65,R,22098053,22098561,510,1322.8,454.4,5068,right
60,2,continuous,15,50,trial,22096293.0,22100360.0,4067.0,65,R,22098633,22098793,162,479.9,440.8,5319,left
60,2,continuous,15,50,trial,22096293.0,22100360.0,4067.0,65,R,22098821,22099201,382,431.8,514.7,5038,left
60,2,continuous,15,50,trial,22096293.0,22100360.0,4067.0,65,R,22099225,22099643,420,603.4,504.2,4622,left
60,2,continuous,15,50,trial,22096293.0,22100360.0,4067.0,65,R,22099667,22099881,216,461.5,512.5,4686,left
60,2,continuous,15,50,trial,22096293.0,22100360.0,4067.0,65,R,22099893,22100545,654,442.5,518.6,4719,left
60,2,continuous,16,68,fixationCross,22101410.0,22107310.0,5900.0,66,R,22100791,22101113,324,991.1,429.2,4788,NA
60,2,continuous,16,68,trial,22101410.0,22107310.0,5900.0,66,R,22101141,22101589,450,921.0,545.1,5141,NA
60,2,continuous,16,68,trial,22101410.0,22107310.0,5900.0,66,R,22101631,22102141,512,504.5,492.1,4640,left
60,2,continuous,16,68,trial,22101410.0,22107310.0,5900.0,66,R,22102157,22102465,310,561.6,455.8,4207,left
60,2,continuous,16,68,trial,22101410.0,22107310.0,5900.0,66,R,22102489,22102793,306,422.7,457.6,4028,left
60,2,continuous,16,68,trial,22101410.0,22107310.0,5900.0,66,R,22102821,22103557,738,584.7,485.6,3820,left
60,2,continuous,16,68,trial,22101410.0,22107310.0,5900.0,66,R,22103573,22103897,326,609.6,496.7,3678,left
60,2,continuous,16,68,trial,22101410.0,22107310.0,5900.0,66,R,22103921,22104225,306,590.5,607.4,3757,left
60,2,continuous,16,68,trial,22101410.0,22107310.0,5900.0,66,R,22104259,22104673,416,310.3,483.7,3792,left
60,2,continuous,16,68,trial,22101410.0,22107310.0,5900.0,66,R,22104699,22104807,110,413.3,437.5,3769,left
60,2,continuous,16,68,trial,22101410.0,22107310.0,5900.0,66,R,22104879,22105169,292,1382.9,534.5,3735,right
60,2,continuous,16,68,trial,22101410.0,22107310.0,5900.0,66,R,22105191,22105531,342,1406.3,604.0,3938,right
60,2,continuous,16,68,trial,22101410.0,22107310.0,5900.0,66,R,22105555,22105809,256,1505.1,513.9,4029,right
60,2,continuous,16,68,trial,22101410.0,22107310.0,5900.0,66,R,22105883,22106091,210,440.5,516.2,4280,left
60,2,continuous,16,68,trial,22101410.0,22107310.0,5900.0,66,R,22106123,22106419,298,301.8,472.0,4052,left
60,2,continuous,16,68,trial,22101410.0,22107310.0,5900.0,66,R,22106457,22106947,492,316.9,687.1,3848,left
60,2,continuous,16,68,trial,22101410.0,22107310.0,5900.0,66,R,22106981,22107387,408,543.2,530.6,3801,left
60,2,continuous,16,68,trial,22101410.0,22107310.0,5900.0,66,R,22107411,22107481,72,612.2,603.3,3894,left
60,2,continuous,17,73,fixationCross,22108510.0,22112160.0,3650.0,67,R,22107749,22107983,236,1024.4,325.0,4088,NA
60,2,continuous,17,73,fixationCross,22108510.0,22112160.0,3650.0,67,R,22108023,22108203,182,810.8,474.0,4510,NA
60,2,continuous,17,73,trial,22108510.0,22112160.0,3650.0,67,R,22108227,22108589,364,914.4,515.4,4700,NA
60,2,continuous,17,73,trial,22108510.0,22112160.0,3650.0,67,R,22108621,22108705,86,698.9,470.7,4765,left
60,2,continuous,17,73,trial,22108510.0,22112160.0,3650.0,67,R,22108739,22108919,182,442.9,437.0,4612,left
60,2,continuous,17,73,trial,22108510.0,22112160.0,3650.0,67,R,22108939,22109285,348,339.7,438.0,4042,left
60,2,continuous,17,73,trial,22108510.0,22112160.0,3650.0,67,R,22109299,22109467,170,362.4,398.9,3936,left
60,2,continuous,17,73,trial,22108510.0,22112160.0,3650.0,67,R,22109535,22109829,296,1352.4,431.5,4049,right
60,2,continuous,17,73,trial,22108510.0,22112160.0,3650.0,67,R,22109857,22110129,274,1305.5,541.5,4353,right
60,2,continuous,17,73,trial,22108510.0,22112160.0,3650.0,67,R,22110155,22110369,216,1455.3,527.9,4374,right
60,2,continuous,17,73,trial,22108510.0,22112160.0,3650.0,67,R,22110445,22111353,910,320.9,421.4,4135,left
60,2,continuous,17,73,trial,22108510.0,22112160.0,3650.0,67,R,22111425,22112049,626,1291.7,519.6,4098,right
60,2,continuous,17,73,trial,22108510.0,22112160.0,3650.0,67,R,22112081,22112353,274,1507.4,554.5,4381,right
60,2,continuous,18,24,fixationCross,22113310.0,22116860.0,3550.0,68,R,22112585,22112797,214,833.6,363.8,4595,NA
60,2,continuous,18,24,fixationCross,22113310.0,22116860.0,3550.0,68,R,22112841,22112989,150,678.1,479.3,4856,left
60,2,continuous,18,24,fixationCross,22113310.0,22116860.0,3550.0,68,R,22113019,22113243,226,884.5,503.4,5077,NA
60,2,continuous,18,24,trial,22113310.0,22116860.0,3550.0,68,R,22113279,22113471,194,672.4,451.3,5058,left
60,2,continuous,18,24,trial,22113310.0,22116860.0,3550.0,68,R,22113501,22113655,156,493.9,447.8,5010,left
60,2,continuous,18,24,trial,22113310.0,22116860.0,3550.0,68,R,22113679,22114119,442,408.9,520.2,4299,left
60,2,continuous,18,24,trial,22113310.0,22116860.0,3550.0,68,R,22114189,22114825,638,1397.1,514.5,3924,right
60,2,continuous,18,24,trial,22113310.0,22116860.0,3550.0,68,R,22114897,22115075,180,471.3,423.5,4171,left
60,2,continuous,18,24,trial,22113310.0,22116860.0,3550.0,68,R,22115089,22115447,360,498.4,398.8,4046,left
60,2,continuous,18,24,trial,22113310.0,22116860.0,3550.0,68,R,22115473,22116307,836,419.8,502.2,4087,left
60,2,continuous,18,24,trial,22113310.0,22116860.0,3550.0,68,R,22116333,22116593,262,510.0,570.5,4410,left
60,2,continuous,18,24,trial,22113310.0,22116860.0,3550.0,68,R,22116613,22116819,208,561.4,618.6,4462,left
60,2,continuous,18,24,trial,22113310.0,22116860.0,3550.0,68,R,22116861,22117029,170,694.7,983.9,4498,NA
60,2,continuous,19,30,fixationCross,22117993.0,22122993.0,5000.0,69,R,22117305,22117429,126,1008.2,360.5,4190,NA
60,2,continuous,19,30,fixationCross,22117993.0,22122993.0,5000.0,69,R,22117465,22117679,216,742.8,509.3,4549,NA
60,2,continuous,19,30,trial,22117993.0,22122993.0,5000.0,69,R,22117709,22118215,508,886.5,538.9,4875,NA
60,2,continuous,19,30,trial,22117993.0,22122993.0,5000.0,69,R,22118261,22118475,216,456.3,536.7,4671,left
60,2,continuous,19,30,trial,22117993.0,22122993.0,5000.0,69,R,22118539,22118819,282,1441.1,504.4,4311,right
60,2,continuous,19,30,trial,22117993.0,22122993.0,5000.0,69,R,22118833,22119259,428,1406.8,504.2,4319,right
60,2,continuous,19,30,trial,22117993.0,22122993.0,5000.0,69,R,22119273,22119457,186,1455.1,512.5,4484,right
60,2,continuous,19,30,trial,22117993.0,22122993.0,5000.0,69,R,22119527,22119841,316,536.8,606.2,4818,left
60,2,continuous,19,30,trial,22117993.0,22122993.0,5000.0,69,R,22119855,22120181,328,601.1,620.9,4630,left
60,2,continuous,19,30,trial,22117993.0,22122993.0,5000.0,69,R,22120221,22120497,278,360.7,515.3,4484,left
60,2,continuous,19,30,trial,22117993.0,22122993.0,5000.0,69,R,22120573,22120791,220,1514.0,509.8,4224,right
60,2,continuous,19,30,trial,22117993.0,22122993.0,5000.0,69,R,22120807,22121255,450,1446.6,506.1,4325,right
60,2,continuous,19,30,trial,22117993.0,22122993.0,5000.0,69,R,22121287,22121523,238,1444.4,683.2,4618,right
60,2,continuous,19,30,trial,22117993.0,22122993.0,5000.0,69,R,22121585,22122765,1182,624.0,479.0,4662,left
60,2,continuous,19,30,trial,22117993.0,22122993.0,5000.0,69,R,22122789,22123163,376,689.0,580.7,4819,left
60,2,continuous,20,27,fixationCross,22124143.0,22127726.0,3583.0,70,R,22123449,22123825,378,843.7,408.3,4983,NA
60,2,continuous,20,27,fixationCross,22124143.0,22127726.0,3583.0,70,R,22123855,22124023,170,978.9,509.9,5264,NA
60,2,continuous,20,27,trial,22124143.0,22127726.0,3583.0,70,R,22124043,22124307,266,887.6,527.7,5145,NA
60,2,continuous,20,27,trial,22124143.0,22127726.0,3583.0,70,R,22124351,22124617,268,474.0,498.3,4903,left
60,2,continuous,20,27,trial,22124143.0,22127726.0,3583.0,70,R,22124639,22124787,150,553.3,557.0,4478,left
60,2,continuous,20,27,trial,22124143.0,22127726.0,3583.0,70,R,22124839,22125191,354,1316.4,560.6,4271,right
60,2,continuous,20,27,trial,22124143.0,22127726.0,3583.0,70,R,22125217,22125491,276,1558.0,543.1,4462,right
60,2,continuous,20,27,trial,22124143.0,22127726.0,3583.0,70,R,22125503,22125987,486,1596.1,548.5,4511,right
60,2,continuous,20,27,trial,22124143.0,22127726.0,3583.0,70,R,22126063,22126267,206,470.1,495.5,4568,left
60,2,continuous,20,27,trial,22124143.0,22127726.0,3583.0,70,R,22126293,22126631,340,421.2,575.0,4388,left
60,2,continuous,20,27,trial,22124143.0,22127726.0,3583.0,70,R,22126661,22127217,558,575.5,540.1,4137,left
60,2,continuous,20,27,trial,22124143.0,22127726.0,3583.0,70,R,22127263,22127541,280,723.2,943.9,4183,NA
60,2,continuous,20,27,trial,22124143.0,22127726.0,3583.0,70,R,22127605,22127905,302,1410.4,665.1,4056,right
60,2,continuous,21,10,fixationCross,22128810.0,22131711.0,2901.0,71,R,22128193,22128497,306,1051.3,350.7,4605,NA
60,2,continuous,21,10,trial,22128810.0,22131711.0,2901.0,71,R,22128531,22128989,460,930.0,543.4,4982,NA
60,2,continuous,21,10,trial,22128810.0,22131711.0,2901.0,71,R,22129037,22129227,192,416.9,508.8,4803,left
60,2,continuous,21,10,trial,22128810.0,22131711.0,2901.0,71,R,22129249,22129341,94,339.2,560.4,4495,left
60,2,continuous,21,10,trial,22128810.0,22131711.0,2901.0,71,R,22129409,22129759,352,1396.4,447.9,4086,right
60,2,continuous,21,10,trial,22128810.0,22131711.0,2901.0,71,R,22129777,22130123,348,1465.8,448.7,4200,right
60,2,continuous,21,10,trial,22128810.0,22131711.0,2901.0,71,R,22130159,22130359,202,1231.5,569.2,4439,right
60,2,continuous,21,10,trial,22128810.0,22131711.0,2901.0,71,R,22130427,22130651,226,371.7,562.2,4554,left
60,2,continuous,21,10,trial,22128810.0,22131711.0,2901.0,71,R,22130665,22131339,676,331.3,562.0,4270,left
60,2,continuous,21,10,trial,22128810.0,22131711.0,2901.0,71,R,22131351,22131563,214,381.7,549.8,4245,left
60,2,continuous,21,10,trial,22128810.0,22131711.0,2901.0,71,R,22131619,22131889,272,560.4,1013.6,4470,NA
60,2,continuous,22,20,fixationCross,22132910.0,22137027.0,4117.0,72,R,22132165,22132605,442,858.3,429.5,4452,NA
60,2,continuous,22,20,fixationCross,22132910.0,22137027.0,4117.0,72,R,22132625,22132857,234,934.1,449.5,4765,NA
60,2,continuous,22,20,trial,22132910.0,22137027.0,4117.0,72,R,22132885,22133117,234,814.8,460.2,4753,NA
60,2,continuous,22,20,trial,22132910.0,22137027.0,4117.0,72,R,22133163,22133463,302,1344.2,524.2,4468,right
60,2,continuous,22,20,trial,22132910.0,22137027.0,4117.0,72,R,22133485,22133745,262,1455.9,538.3,4435,right
60,2,continuous,22,20,trial,22132910.0,22137027.0,4117.0,72,R,22133769,22134225,458,1385.7,573.0,4897,right
60,2,continuous,22,20,trial,22132910.0,22137027.0,4117.0,72,R,22134297,22134551,256,443.1,603.5,5041,left
60,2,continuous,22,20,trial,22132910.0,22137027.0,4117.0,72,R,22134577,22134949,374,318.6,493.2,4427,left
60,2,continuous,22,20,trial,22132910.0,22137027.0,4117.0,72,R,22134981,22135311,332,607.5,603.3,4249,left
60,2,continuous,22,20,trial,22132910.0,22137027.0,4117.0,72,R,22135365,22135611,248,1350.7,508.9,4181,right
60,2,continuous,22,20,trial,22132910.0,22137027.0,4117.0,72,R,22135635,22135979,346,1465.8,519.2,4414,right
60,2,continuous,22,20,trial,22132910.0,22137027.0,4117.0,72,R,22136009,22136421,414,1371.5,579.0,4783,right
60,2,continuous,22,20,trial,22132910.0,22137027.0,4117.0,72,R,22136501,22136709,210,628.5,942.0,4985,NA
60,2,continuous,22,20,trial,22132910.0,22137027.0,4117.0,72,R,22136901,22137253,354,483.5,526.9,4347,left
60,2,continuous,23,77,fixationCross,22138144.0,22143343.0,5199.0,73,R,22137441,22137631,192,841.1,403.4,4333,NA
