participantNo,block,task,blockTrial,response,trialStage,trialStartTime,trialFinishTime,rt,trial,eye,fixStart,fixEnd,fixLength,fixPosX,fixPosY,dilation,aoi
26,1,binary,1,2,fixationCross,9868279.0,9869580.0,1301.0,1,L,9857991,9858285,296,934.2,580.2,8018,NA
26,1,binary,1,2,fixationCross,9868279.0,9869580.0,1301.0,1,L,9858377,9859065,690,942.8,542.8,8058,NA
26,1,binary,1,2,fixationCross,9868279.0,9869580.0,1301.0,1,L,9859237,9859987,752,949.2,557.5,7670,NA
26,1,binary,1,2,fixationCross,9868279.0,9869580.0,1301.0,1,L,9860163,9860283,122,949.7,555.8,7209,NA
26,1,binary,1,2,fixationCross,9868279.0,9869580.0,1301.0,1,L,9860441,9861529,1090,943.1,568.6,7153,NA
26,1,binary,1,2,fixationCross,9868279.0,9869580.0,1301.0,1,L,9861667,9862323,658,948.7,551.9,7383,NA
26,1,binary,1,2,fixationCross,9868279.0,9869580.0,1301.0,1,L,9862453,9862769,318,942.4,537.7,7646,NA
26,1,binary,1,2,fixationCross,9868279.0,9869580.0,1301.0,1,L,9862927,9863833,908,953.4,549.5,7467,NA
26,1,binary,1,2,fixationCross,9868279.0,9869580.0,1301.0,1,L,9863995,9866255,2262,955.2,554.7,7420,NA
26,1,binary,1,2,fixationCross,9868279.0,9869580.0,1301.0,1,L,9866419,9867261,844,941.3,542.8,7598,NA
26,1,binary,1,2,fixationCross,9868279.0,9869580.0,1301.0,1,L,9867443,9867671,230,945.5,549.7,7727,NA
26,1,binary,1,2,fixationCross,9868279.0,9869580.0,1301.0,1,L,9867815,9868113,300,1256.7,555.1,7855,right
26,1,binary,1,2,trial,9868279.0,9869580.0,1301.0,1,L,9868157,9868439,284,948.2,555.1,7789,NA
26,1,binary,1,2,trial,9868279.0,9869580.0,1301.0,1,L,9868495,9868605,112,570.4,550.8,7404,left
26,1,binary,1,2,trial,9868279.0,9869580.0,1301.0,1,L,9868667,9868795,130,486.8,932.4,7276,NA
26,1,binary,1,2,trial,9868279.0,9869580.0,1301.0,1,L,9868877,9868947,72,1440.4,749.4,7126,NA
26,1,binary,1,2,trial,9868279.0,9869580.0,1301.0,1,L,9868991,9869283,294,1406.4,438.1,6918,right
26,1,binary,1,2,trial,9868279.0,9869580.0,1301.0,1,L,9869349,9869825,478,1432.2,930.1,7617,NA
26,1,binary,1,2,postResponse,9868279.0,9869580.0,1301.0,1,L,9869909,9869947,40,939.0,555.3,7931,NA
26,1,binary,2,2,fixationCross,9880313.0,9886080.0,5767.0,2,L,9870047,9870325,280,942.8,552.7,8061,NA
26,1,binary,2,2,fixationCross,9880313.0,9886080.0,5767.0,2,L,9870443,9870535,94,963.8,491.6,8012,NA
26,1,binary,2,2,fixationCross,9880313.0,9886080.0,5767.0,2,L,9870551,9870983,434,954.5,537.9,7833,NA
26,1,binary,2,2,fixationCross,9880313.0,9886080.0,5767.0,2,L,9871153,9871571,420,955.5,534.9,7419,NA
26,1,binary,2,2,fixationCross,9880313.0,9886080.0,5767.0,2,L,9871751,9872009,260,952.2,542.1,7301,NA
26,1,binary,2,2,fixationCross,9880313.0,9886080.0,5767.0,2,L,9872061,9872431,372,1373.5,534.8,7249,right
26,1,binary,2,2,fixationCross,9880313.0,9886080.0,5767.0,2,L,9872481,9872613,134,980.3,539.6,7234,NA
26,1,binary,2,2,fixationCross,9880313.0,9886080.0,5767.0,2,L,9872623,9872851,230,950.8,546.8,7123,NA
26,1,binary,2,2,fixationCross,9880313.0,9886080.0,5767.0,2,L,9872875,9873091,218,818.0,558.7,7164,NA
26,1,binary,2,2,fixationCross,9880313.0,9886080.0,5767.0,2,L,9873117,9873279,164,924.7,558.2,7246,NA
26,1,binary,2,2,fixationCross,9880313.0,9886080.0,5767.0,2,L,9873287,9873935,650,944.7,555.6,7310,NA
26,1,binary,2,2,fixationCross,9880313.0,9886080.0,5767.0,2,L,9874051,9875695,1646,945.7,552.9,7423,NA
26,1,binary,2,2,fixationCross,9880313.0,9886080.0,5767.0,2,L,9875843,9876135,294,941.9,548.1,8091,NA
26,1,binary,2,2,fixationCross,9880313.0,9886080.0,5767.0,2,L,9876227,9876661,436,1812.4,752.9,7726,NA
26,1,binary,2,2,fixationCross,9880313.0,9886080.0,5767.0,2,L,9876737,9876933,198,990.0,567.3,7514,NA
26,1,binary,2,2,fixationCross,9880313.0,9886080.0,5767.0,2,L,9876953,9877321,370,937.7,557.6,7549,NA
26,1,binary,2,2,fixationCross,9880313.0,9886080.0,5767.0,2,L,9877431,9879075,1646,940.5,553.3,7894,NA
26,1,binary,2,2,fixationCross,9880313.0,9886080.0,5767.0,2,L,9879185,9879345,162,959.1,567.8,8174,NA
26,1,binary,2,2,fixationCross,9880313.0,9886080.0,5767.0,2,L,9880135,9880251,118,1542.3,1032.2,7012,NA
26,1,binary,2,2,trial,9880313.0,9886080.0,5767.0,2,L,9880291,9880445,156,1768.8,952.2,6371,NA
26,1,binary,2,2,trial,9880313.0,9886080.0,5767.0,2,L,9880535,9880677,144,1074.9,614.6,7542,NA
26,1,binary,2,2,trial,9880313.0,9886080.0,5767.0,2,L,9880741,9880869,130,649.6,765.5,7474,NA
26,1,binary,2,2,trial,9880313.0,9886080.0,5767.0,2,L,9880901,9880951,52,527.1,608.2,7392,left
26,1,binary,2,2,trial,9880313.0,9886080.0,5767.0,2,L,9881103,9881219,118,491.8,598.5,7674,left
26,1,binary,2,2,trial,9880313.0,9886080.0,5767.0,2,L,9881237,9881557,322,478.4,636.7,7884,left
26,1,binary,2,2,trial,9880313.0,9886080.0,5767.0,2,L,9881637,9881877,242,1333.8,568.4,7958,right
26,1,binary,2,2,trial,9880313.0,9886080.0,5767.0,2,L,9881925,9882147,224,1420.5,940.2,7915,NA
26,1,binary,2,2,trial,9880313.0,9886080.0,5767.0,2,L,9882197,9882677,482,1394.1,540.4,7731,right
26,1,binary,2,2,trial,9880313.0,9886080.0,5767.0,2,L,9882749,9883687,940,489.7,579.0,7968,left
26,1,binary,2,2,trial,9880313.0,9886080.0,5767.0,2,L,9883747,9883915,170,486.3,921.0,8268,NA
26,1,binary,2,2,trial,9880313.0,9886080.0,5767.0,2,L,9883971,9884507,538,465.9,536.3,8074,left
26,1,binary,2,2,trial,9880313.0,9886080.0,5767.0,2,L,9884583,9885083,502,1359.5,488.1,7478,right
26,1,binary,2,2,trial,9880313.0,9886080.0,5767.0,2,L,9885135,9885305,172,1427.1,899.4,7486,NA
26,1,binary,2,2,trial,9880313.0,9886080.0,5767.0,2,L,9885385,9885689,306,519.9,648.2,7630,left
26,1,binary,2,2,trial,9880313.0,9886080.0,5767.0,2,L,9885767,9885973,208,1351.0,741.7,7987,NA
26,1,binary,2,2,postResponse,9880313.0,9886080.0,5767.0,2,L,9886013,9886429,418,1374.0,499.8,7899,right
26,1,binary,3,1,fixationCross,9896797.0,9898813.0,2016.0,3,L,9886529,9886595,68,1383.1,494.4,7525,right
26,1,binary,3,1,fixationCross,9896797.0,9898813.0,2016.0,3,L,9886633,9886841,210,1202.2,490.8,7548,right
26,1,binary,3,1,fixationCross,9896797.0,9898813.0,2016.0,3,L,9886879,9887625,748,954.0,511.1,7824,NA
26,1,binary,3,1,fixationCross,9896797.0,9898813.0,2016.0,3,L,9887693,9887851,160,957.6,520.0,7981,NA
26,1,binary,3,1,fixationCross,9896797.0,9898813.0,2016.0,3,L,9887901,9888585,686,1319.2,507.7,7871,right
26,1,binary,3,1,fixationCross,9896797.0,9898813.0,2016.0,3,L,9888631,9889587,958,956.6,523.0,7979,NA
26,1,binary,3,1,fixationCross,9896797.0,9898813.0,2016.0,3,L,9889743,9893853,4112,953.5,541.6,7452,NA
26,1,binary,3,1,fixationCross,9896797.0,9898813.0,2016.0,3,L,9893927,9894083,158,950.2,550.5,7512,NA
26,1,binary,3,1,fixationCross,9896797.0,9898813.0,2016.0,3,L,9894265,9895583,1320,963.7,553.0,6931,NA
26,1,binary,3,1,fixationCross,9896797.0,9898813.0,2016.0,3,L,9895653,9895945,294,1555.1,589.7,7179,right
26,1,binary,3,1,trial,9896797.0,9898813.0,2016.0,3,L,9896011,9897025,1016,945.2,532.4,7886,NA
26,1,binary,3,1,trial,9896797.0,9898813.0,2016.0,3,L,9897085,9897337,254,1340.0,512.9,7677,right
26,1,binary,3,1,trial,9896797.0,9898813.0,2016.0,3,L,9897399,9897521,124,1424.9,891.6,7610,NA
26,1,binary,3,1,trial,9896797.0,9898813.0,2016.0,3,L,9897567,9898065,500,1403.9,466.3,7248,right
26,1,binary,3,1,trial,9896797.0,9898813.0,2016.0,3,L,9898141,9898497,358,485.5,458.8,7280,left
26,1,binary,3,1,trial,9896797.0,9898813.0,2016.0,3,L,9898557,9898765,210,441.7,912.1,7574,NA
26,1,binary,3,1,trial,9896797.0,9898813.0,2016.0,3,L,9898779,9899029,252,472.4,940.9,7777,NA
26,1,binary,4,2,fixationCross,9909497.0,9912630.0,3133.0,4,L,9899227,9899597,372,919.1,541.6,7747,NA
26,1,binary,4,2,fixationCross,9909497.0,9912630.0,3133.0,4,L,9899609,9899829,222,946.4,546.8,7656,NA
26,1,binary,4,2,fixationCross,9909497.0,9912630.0,3133.0,4,L,9899993,9900465,474,940.5,537.7,7739,NA
26,1,binary,4,2,fixationCross,9909497.0,9912630.0,3133.0,4,L,9900609,9900755,148,963.0,537.5,7773,NA
26,1,binary,4,2,fixationCross,9909497.0,9912630.0,3133.0,4,L,9900765,9902105,1342,948.7,540.3,7837,NA
26,1,binary,4,2,fixationCross,9909497.0,9912630.0,3133.0,4,L,9902183,9902361,180,1090.4,542.9,7990,NA
26,1,binary,4,2,fixationCross,9909497.0,9912630.0,3133.0,4,L,9902395,9902601,208,971.9,588.5,8106,NA
26,1,binary,4,2,fixationCross,9909497.0,9912630.0,3133.0,4,L,9902751,9902813,64,977.4,532.6,8283,NA
26,1,binary,4,2,fixationCross,9909497.0,9912630.0,3133.0,4,L,9903023,9903201,180,1514.1,581.5,7839,right
26,1,binary,4,2,fixationCross,9909497.0,9912630.0,3133.0,4,L,9903273,9903417,146,909.8,579.5,8062,NA
26,1,binary,4,2,fixationCross,9909497.0,9912630.0,3133.0,4,L,9903453,9903791,340,952.4,594.3,7907,NA
26,1,binary,4,2,fixationCross,9909497.0,9912630.0,3133.0,4,L,9906603,9906877,276,955.7,544.5,7999,NA
26,1,binary,4,2,fixationCross,9909497.0,9912630.0,3133.0,4,L,9906911,9908449,1540,968.5,552.7,8006,NA
26,1,binary,4,2,fixationCross,9909497.0,9912630.0,3133.0,4,L,9908503,9908615,114,985.8,881.5,7413,likertHorizontal
26,1,binary,4,2,fixationCross,9909497.0,9912630.0,3133.0,4,L,9908647,9908787,142,965.8,1044.6,7495,likertHorizontal
26,1,binary,4,2,trial,9909497.0,9912630.0,3133.0,4,L,9908885,9909971,1088,950.4,494.3,8055,NA
26,1,binary,4,2,trial,9909497.0,9912630.0,3133.0,4,L,9910021,9910627,608,1371.1,471.0,7245,right
26,1,binary,4,2,trial,9909497.0,9912630.0,3133.0,4,L,9910697,9910847,152,1445.3,926.7,7066,NA
26,1,binary,4,2,trial,9909497.0,9912630.0,3133.0,4,L,9910895,9911145,252,1423.7,501.8,6773,right
26,1,binary,4,2,trial,9909497.0,9912630.0,3133.0,4,L,9911165,9911285,122,1428.1,455.4,6630,right
26,1,binary,4,2,trial,9909497.0,9912630.0,3133.0,4,L,9911359,9911933,576,507.5,469.4,6584,left
26,1,binary,4,2,trial,9909497.0,9912630.0,3133.0,4,L,9911965,9912081,118,534.0,651.8,6566,left
26,1,binary,4,2,postResponse,9909497.0,9912630.0,3133.0,4,L,9912145,9912989,846,1370.0,449.8,6453,right
26,1,binary,5,1,fixationCross,9923363.0,9925897.0,2534.0,5,L,9913089,9913107,20,1371.0,453.5,6803,right
26,1,binary,5,1,fixationCross,9923363.0,9925897.0,2534.0,5,L,9913161,9913425,266,1007.0,485.4,7068,NA
26,1,binary,5,1,fixationCross,9923363.0,9925897.0,2534.0,5,L,9913443,9913503,62,948.2,517.9,7221,NA
26,1,binary,5,1,fixationCross,9923363.0,9925897.0,2534.0,5,L,9914069,9914163,96,934.4,518.7,7738,NA
26,1,binary,5,1,fixationCross,9923363.0,9925897.0,2534.0,5,L,9914333,9914757,426,953.8,539.0,7443,NA
26,1,binary,5,1,fixationCross,9923363.0,9925897.0,2534.0,5,L,9914969,9915025,58,976.4,544.2,6485,NA
26,1,binary,5,1,fixationCross,9923363.0,9925897.0,2534.0,5,L,9915251,9918051,2802,964.1,533.2,7019,NA
26,1,binary,5,1,fixationCross,9923363.0,9925897.0,2534.0,5,L,9918189,9921019,2832,950.5,528.9,7319,NA
26,1,binary,5,1,fixationCross,9923363.0,9925897.0,2534.0,5,L,9921041,9921295,256,834.7,504.3,7676,NA
26,1,binary,5,1,fixationCross,9923363.0,9925897.0,2534.0,5,L,9921319,9922691,1374,946.8,500.7,7740,NA
26,1,binary,5,1,trial,9923363.0,9925897.0,2534.0,5,L,9922779,9923649,872,962.8,527.2,7423,NA
26,1,binary,5,1,trial,9923363.0,9925897.0,2534.0,5,L,9923701,9924349,650,526.4,571.5,6399,left
26,1,binary,5,1,trial,9923363.0,9925897.0,2534.0,5,L,9924413,9925279,868,1320.3,526.2,5802,right
26,1,binary,5,1,trial,9923363.0,9925897.0,2534.0,5,L,9925347,9926213,868,573.5,542.2,6070,left
26,1,binary,6,1,trial,9926614.0,9929080.0,2466.0,6,L,9926377,9926649,274,1075.6,523.0,6648,NA
26,1,binary,6,1,trial,9926614.0,9929080.0,2466.0,6,L,9926675,9926901,228,963.8,526.4,7024,NA
26,1,binary,6,1,trial,9926614.0,9929080.0,2466.0,6,L,9926951,9927175,226,511.4,544.6,7116,left
26,1,binary,6,1,trial,9926614.0,9929080.0,2466.0,6,L,9927261,9927567,308,1301.2,512.9,6896,right
26,1,binary,6,1,trial,9926614.0,9929080.0,2466.0,6,L,9927597,9927969,374,1425.5,495.3,6636,right
26,1,binary,6,1,trial,9926614.0,9929080.0,2466.0,6,L,9927981,9928555,576,1468.2,491.1,6345,right
26,1,binary,6,1,postResponse,9926614.0,9929080.0,2466.0,6,L,9928633,9929417,786,499.0,530.7,6570,left
26,1,binary,7,1,fixationCross,9929780.0,9931246.0,1466.0,7,L,9929597,9929695,100,671.7,550.0,6657,left
26,1,binary,7,1,trial,9929780.0,9931246.0,1466.0,7,L,9929745,9930075,332,1075.9,534.5,6821,NA
26,1,binary,7,1,trial,9929780.0,9931246.0,1466.0,7,L,9930127,9930357,232,1340.3,511.3,6895,right
26,1,binary,7,1,trial,9929780.0,9931246.0,1466.0,7,L,9930421,9931169,750,593.8,514.9,6647,left
26,1,binary,7,1,trial,9929780.0,9931246.0,1466.0,7,L,9931195,9931539,346,448.6,535.8,6576,left
26,1,binary,8,1,trial,9931913.0,9933764.0,1851.0,8,L,9931655,9932155,502,945.4,527.3,6544,NA
26,1,binary,8,1,trial,9931913.0,9933764.0,1851.0,8,L,9932209,9932375,168,1330.4,538.3,6631,right
26,1,binary,8,1,trial,9931913.0,9933764.0,1851.0,8,L,9932395,9932629,236,1393.8,488.8,6630,right
26,1,binary,8,1,trial,9931913.0,9933764.0,1851.0,8,L,9932653,9933069,418,1454.9,424.6,6276,right
26,1,binary,8,1,trial,9931913.0,9933764.0,1851.0,8,L,9933101,9933425,326,1487.4,582.9,6505,right
26,1,binary,8,1,trial,9931913.0,9933764.0,1851.0,8,L,9933507,9933987,482,438.3,587.0,7080,left
26,1,binary,9,1,trial,9934464.0,9936646.0,2182.0,9,L,9934173,9934501,330,602.9,556.3,7329,left
26,1,binary,9,1,trial,9934464.0,9936646.0,2182.0,9,L,9934557,9934691,136,876.9,518.8,7475,NA
26,1,binary,9,1,trial,9934464.0,9936646.0,2182.0,9,L,9934749,9935009,262,499.7,554.3,7032,left
26,1,binary,9,1,trial,9934464.0,9936646.0,2182.0,9,L,9935023,9935173,152,554.7,552.7,6737,left
26,1,binary,9,1,trial,9934464.0,9936646.0,2182.0,9,L,9935249,9935575,328,1390.1,487.6,6369,right
26,1,binary,9,1,trial,9934464.0,9936646.0,2182.0,9,L,9935591,9935825,236,1446.7,493.3,6198,right
26,1,binary,9,1,trial,9934464.0,9936646.0,2182.0,9,L,9935845,9936167,324,1532.6,488.3,6042,right
26,1,binary,9,1,trial,9934464.0,9936646.0,2182.0,9,L,9936247,9936565,320,561.3,545.5,6213,left
26,1,binary,9,1,trial,9934464.0,9936646.0,2182.0,9,L,9936589,9936889,302,438.4,538.8,6229,left
26,1,binary,10,2,trial,9937364.0,9939263.0,1899.0,10,L,9937095,9937501,408,1038.5,524.1,6391,NA
26,1,binary,10,2,trial,9937364.0,9939263.0,1899.0,10,L,9937543,9937753,212,1301.5,519.7,6633,right
26,1,binary,10,2,trial,9937364.0,9939263.0,1899.0,10,L,9937787,9937961,176,1455.7,510.3,6367,right
26,1,binary,10,2,trial,9937364.0,9939263.0,1899.0,10,L,9938037,9938279,244,483.8,522.2,6163,left
26,1,binary,10,2,trial,9937364.0,9939263.0,1899.0,10,L,9938309,9938527,220,349.4,400.5,6103,left
26,1,binary,10,2,trial,9937364.0,9939263.0,1899.0,10,L,9938561,9938765,206,544.4,509.6,5984,left
26,1,binary,10,2,trial,9937364.0,9939263.0,1899.0,10,L,9938837,9939575,740,1450.6,529.5,5931,right
26,1,binary,11,2,trial,9939964.0,9941847.0,1883.0,11,L,9939699,9940055,358,870.0,507.2,6578,NA
26,1,binary,11,2,trial,9939964.0,9941847.0,1883.0,11,L,9940071,9940171,102,910.7,506.1,6892,NA
26,1,binary,11,2,trial,9939964.0,9941847.0,1883.0,11,L,9940217,9940501,286,538.5,513.9,6852,left
26,1,binary,11,2,trial,9939964.0,9941847.0,1883.0,11,L,9940559,9940717,160,474.1,976.8,6598,NA
26,1,binary,11,2,trial,9939964.0,9941847.0,1883.0,11,L,9940789,9940849,62,1460.6,667.4,6190,right
26,1,binary,11,2,trial,9939964.0,9941847.0,1883.0,11,L,9940881,9941085,206,1470.9,487.9,5933,right
26,1,binary,11,2,trial,9939964.0,9941847.0,1883.0,11,L,9941107,9941579,474,1437.2,565.3,6223,right
26,1,binary,11,2,trial,9939964.0,9941847.0,1883.0,11,L,9941629,9941785,158,1442.5,947.0,6915,NA
26,1,binary,11,2,trial,9939964.0,9941847.0,1883.0,11,L,9941833,9942045,214,1366.2,508.7,6963,right
26,1,binary,12,1,trial,9942514.0,9945130.0,2616.0,12,L,9942257,9942673,418,993.4,515.2,7341,NA
26,1,binary,12,1,trial,9942514.0,9945130.0,2616.0,12,L,9942729,9942973,246,1356.2,532.6,7141,right
26,1,binary,12,1,trial,9942514.0,9945130.0,2616.0,12,L,9943047,9943563,518,549.6,559.0,6881,left
26,1,binary,12,1,trial,9942514.0,9945130.0,2616.0,12,L,9943631,9943869,240,1477.1,583.9,6026,right
26,1,binary,12,1,trial,9942514.0,9945130.0,2616.0,12,L,9943887,9944215,330,1519.8,545.3,5915,right
26,1,binary,12,1,trial,9942514.0,9945130.0,2616.0,12,L,9944245,9944623,380,1376.8,660.9,5982,right
26,1,binary,12,1,trial,9942514.0,9945130.0,2616.0,12,L,9944649,9944801,154,1402.2,540.3,6154,right
26,1,binary,12,1,postResponse,9942514.0,9945130.0,2616.0,12,L,9944877,9945463,588,532.0,610.6,6585,left
26,1,binary,13,2,fixationCross,9945864.0,9949731.0,3867.0,13,L,9945563,9945679,118,714.6,554.6,6824,left
26,1,binary,13,2,trial,9945864.0,9949731.0,3867.0,13,L,9945703,9945875,174,583.6,553.1,6900,left
26,1,binary,13,2,trial,9945864.0,9949731.0,3867.0,13,L,9945933,9946139,208,954.9,531.1,6926,NA
26,1,binary,13,2,trial,9945864.0,9949731.0,3867.0,13,L,9946187,9946611,426,535.5,566.3,6664,left
26,1,binary,13,2,trial,9945864.0,9949731.0,3867.0,13,L,9946677,9946997,322,1388.1,519.5,6082,right
26,1,binary,13,2,trial,9945864.0,9949731.0,3867.0,13,L,9947019,9948123,1106,1428.2,568.5,6380,right
26,1,binary,13,2,trial,9945864.0,9949731.0,3867.0,13,L,9948197,9948575,380,593.1,906.0,7122,NA
26,1,binary,13,2,trial,9945864.0,9949731.0,3867.0,13,L,9948593,9948931,340,548.3,864.6,7189,NA
26,1,binary,13,2,trial,9945864.0,9949731.0,3867.0,13,L,9948975,9949249,276,515.1,538.7,7410,left
26,1,binary,13,2,trial,9945864.0,9949731.0,3867.0,13,L,9949329,9950009,682,1384.9,498.3,6701,right
26,1,binary,14,2,fixationCross,9950447.0,9952047.0,1600.0,14,L,9950165,9950279,116,982.8,565.4,7045,NA
26,1,binary,14,2,trial,9950447.0,9952047.0,1600.0,14,L,9950303,9950601,300,850.6,537.8,7077,NA
26,1,binary,14,2,trial,9950447.0,9952047.0,1600.0,14,L,9950649,9950857,210,502.5,514.4,7108,left
26,1,binary,14,2,trial,9950447.0,9952047.0,1600.0,14,L,9950877,9951151,276,497.1,429.4,6682,left
26,1,binary,14,2,trial,9950447.0,9952047.0,1600.0,14,L,9951227,9951589,364,1392.7,484.7,6142,right
26,1,binary,14,2,trial,9950447.0,9952047.0,1600.0,14,L,9951605,9952277,674,1392.1,521.0,6573,right
26,1,binary,15,2,fixationCross,9952731.0,9953980.0,1249.0,15,L,9952455,9952547,94,1272.1,528.4,6916,right
26,1,binary,15,2,trial,9952731.0,9953980.0,1249.0,15,L,9952591,9952829,240,973.8,527.0,7057,NA
26,1,binary,15,2,trial,9952731.0,9953980.0,1249.0,15,L,9952845,9952929,86,926.4,531.6,7042,NA
26,1,binary,15,2,trial,9952731.0,9953980.0,1249.0,15,L,9952975,9953301,328,547.2,500.5,6588,left
26,1,binary,15,2,trial,9952731.0,9953980.0,1249.0,15,L,9953365,9954205,842,1436.9,510.4,5921,right
26,1,binary,15,2,trial,9952731.0,9953980.0,1249.0,15,L,9954219,9954251,34,1379.2,508.5,6027,right
26,1,binary,15,2,postResponse,9952731.0,9953980.0,1249.0,15,L,9954287,9954313,28,1127.8,527.1,6192,NA
26,1,binary,16,2,fixationCross,9954647.0,9956431.0,1784.0,16,L,9954387,9954533,148,1065.9,537.6,6340,NA
26,1,binary,16,2,trial,9954647.0,9956431.0,1784.0,16,L,9954559,9954807,250,880.8,510.1,6677,NA
26,1,binary,16,2,trial,9954647.0,9956431.0,1784.0,16,L,9954853,9955265,414,518.6,483.0,6880,left
26,1,binary,16,2,trial,9954647.0,9956431.0,1784.0,16,L,9955285,9955447,164,485.0,542.9,6881,left
26,1,binary,16,2,trial,9954647.0,9956431.0,1784.0,16,L,9955537,9955699,164,1536.0,388.9,6837,right
26,1,binary,16,2,trial,9954647.0,9956431.0,1784.0,16,L,9955713,9955999,288,1555.6,372.4,6984,right
26,1,binary,16,2,trial,9954647.0,9956431.0,1784.0,16,L,9956015,9956395,382,1548.1,418.0,7108,right
26,1,binary,16,2,trial,9954647.0,9956431.0,1784.0,16,L,9956423,9956703,282,1564.5,577.6,7322,right
26,1,binary,17,2,trial,9957130.0,9959098.0,1968.0,17,L,9956865,9957177,314,769.0,521.6,7535,NA
26,1,binary,17,2,trial,9957130.0,9959098.0,1968.0,17,L,9957223,9957333,112,943.2,506.5,7487,NA
26,1,binary,17,2,trial,9957130.0,9959098.0,1968.0,17,L,9957391,9957609,220,1316.8,489.9,6907,right
26,1,binary,17,2,trial,9957130.0,9959098.0,1968.0,17,L,9957681,9958037,358,479.9,591.7,6501,left
26,1,binary,17,2,trial,9957130.0,9959098.0,1968.0,17,L,9958053,9958211,160,517.2,641.0,6207,left
26,1,binary,17,2,trial,9957130.0,9959098.0,1968.0,17,L,9958241,9958399,160,675.1,622.2,6128,left
26,1,binary,17,2,trial,9957130.0,9959098.0,1968.0,17,L,9958463,9958887,426,1425.4,579.9,6048,right
26,1,binary,17,2,trial,9957130.0,9959098.0,1968.0,17,L,9958915,9959127,214,1299.1,489.5,6089,right
26,1,binary,17,2,trial,9957130.0,9959098.0,1968.0,17,L,9959151,9959357,208,1293.6,393.3,6088,right
26,1,binary,18,2,fixationCross,9959781.0,9962397.0,2616.0,18,L,9959505,9959687,184,799.0,566.8,6435,NA
26,1,binary,18,2,trial,9959781.0,9962397.0,2616.0,18,L,9959829,9959953,126,1177.0,469.2,6533,NA
26,1,binary,18,2,trial,9959781.0,9962397.0,2616.0,18,L,9959991,9960263,274,1412.6,473.2,6559,right
26,1,binary,18,2,trial,9959781.0,9962397.0,2616.0,18,L,9960341,9960555,216,470.4,514.4,6350,left
26,1,binary,18,2,trial,9959781.0,9962397.0,2616.0,18,L,9960579,9960965,388,445.8,602.4,6213,left
26,1,binary,18,2,trial,9959781.0,9962397.0,2616.0,18,L,9961037,9962035,1000,1454.6,534.6,6197,right
26,1,binary,18,2,trial,9959781.0,9962397.0,2616.0,18,L,9962053,9962289,238,1419.5,577.0,6433,right
26,1,binary,18,2,trial,9959781.0,9962397.0,2616.0,18,L,9962303,9962585,284,1436.0,622.7,6395,right
26,1,binary,19,1,fixationCross,9963114.0,9964131.0,1017.0,19,L,9962831,9963035,206,1282.0,495.2,6308,right
26,1,binary,19,1,trial,9963114.0,9964131.0,1017.0,19,L,9963075,9963267,194,1014.6,531.5,6568,NA
26,1,binary,19,1,trial,9963114.0,9964131.0,1017.0,19,L,9963321,9963515,196,1332.8,479.9,6384,right
26,1,binary,19,1,trial,9963114.0,9964131.0,1017.0,19,L,9963583,9964103,522,513.9,567.8,6238,left
26,1,binary,19,1,trial,9963114.0,9964131.0,1017.0,19,L,9964149,9964379,232,476.1,948.6,6098,NA
26,1,binary,20,2,fixationCross,9964797.0,9966130.0,1333.0,20,L,9964543,9964711,170,834.4,509.4,6243,NA
26,1,binary,20,2,trial,9964797.0,9966130.0,1333.0,20,L,9964747,9964931,186,1026.4,501.0,6542,NA
26,1,binary,20,2,trial,9964797.0,9966130.0,1333.0,20,L,9964953,9965045,94,1126.6,489.3,6756,NA
26,1,binary,20,2,trial,9964797.0,9966130.0,1333.0,20,L,9965101,9965267,168,510.4,499.5,6908,left
26,1,binary,20,2,trial,9964797.0,9966130.0,1333.0,20,L,9965283,9965529,248,560.5,493.8,6890,left
26,1,binary,20,2,trial,9964797.0,9966130.0,1333.0,20,L,9965607,9965971,366,1418.5,483.9,6579,right
26,1,binary,20,2,postResponse,9964797.0,9966130.0,1333.0,20,L,9965997,9966465,470,1506.7,515.3,6687,right
26,1,binary,21,1,trial,9966814.0,9968298.0,1484.0,21,L,9966563,9966853,292,1288.1,502.8,6598,right
26,1,binary,21,1,trial,9966814.0,9968298.0,1484.0,21,L,9966897,9967009,114,950.7,519.4,6784,NA
26,1,binary,21,1,trial,9966814.0,9968298.0,1484.0,21,L,9967059,9967281,224,502.4,518.6,6834,left
26,1,binary,21,1,trial,9966814.0,9968298.0,1484.0,21,L,9967345,9967651,308,1398.1,502.0,6246,right
26,1,binary,21,1,trial,9966814.0,9968298.0,1484.0,21,L,9967675,9967841,168,1457.2,594.9,5996,right
26,1,binary,21,1,trial,9966814.0,9968298.0,1484.0,21,L,9967919,9968515,598,530.4,520.6,6142,left
26,1,binary,22,1,trial,9968981.0,9972048.0,3067.0,22,L,9968705,9969127,424,1258.2,510.6,6330,right
26,1,binary,22,1,trial,9968981.0,9972048.0,3067.0,22,L,9969163,9969797,636,1456.0,465.5,6355,right
26,1,binary,22,1,trial,9968981.0,9972048.0,3067.0,22,L,9969869,9970531,664,550.4,503.4,6503,left
26,1,binary,22,1,trial,9968981.0,9972048.0,3067.0,22,L,9970603,9971117,516,1460.0,486.2,6597,right
26,1,binary,22,1,trial,9968981.0,9972048.0,3067.0,22,L,9971151,9971575,426,1320.1,567.6,6702,right
26,1,binary,22,1,trial,9968981.0,9972048.0,3067.0,22,L,9971649,9972235,588,509.7,593.3,6878,left
26,1,binary,23,2,fixationCross,9972731.0,9973864.0,1133.0,23,L,9972455,9972527,74,736.3,484.2,6535,left
26,1,binary,23,2,trial,9972731.0,9973864.0,1133.0,23,L,9972563,9972763,202,560.7,496.2,6651,left
26,1,binary,23,2,trial,9972731.0,9973864.0,1133.0,23,L,9972809,9972937,130,935.9,489.0,6891,NA
26,1,binary,23,2,trial,9972731.0,9973864.0,1133.0,23,L,9972993,9973139,148,508.2,491.6,6815,left
26,1,binary,23,2,trial,9972731.0,9973864.0,1133.0,23,L,9973219,9973385,168,1446.4,490.8,6527,right
26,1,binary,23,2,postResponse,9972731.0,9973864.0,1133.0,23,L,9973403,9974199,798,1490.1,515.5,6370,right
26,1,binary,24,1,fixationCross,9974548.0,9976814.0,2266.0,24,L,9974315,9974531,218,1118.2,489.4,6755,NA
26,1,binary,24,1,trial,9974548.0,9976814.0,2266.0,24,L,9974573,9974819,248,1340.0,465.3,6846,right
26,1,binary,24,1,trial,9974548.0,9976814.0,2266.0,24,L,9974893,9975153,262,630.3,546.4,6849,left
26,1,binary,24,1,trial,9974548.0,9976814.0,2266.0,24,L,9975177,9975431,256,490.4,535.6,6434,left
26,1,binary,24,1,trial,9974548.0,9976814.0,2266.0,24,L,9975501,9975769,270,1465.4,482.2,5733,right
26,1,binary,24,1,trial,9974548.0,9976814.0,2266.0,24,L,9975791,9976283,494,1558.3,512.7,5756,right
26,1,binary,24,1,trial,9974548.0,9976814.0,2266.0,24,L,9976359,9976729,372,612.3,568.3,6599,left
26,1,binary,24,1,trial,9974548.0,9976814.0,2266.0,24,L,9976781,9976983,204,452.4,974.5,6360,NA
26,1,binary,25,2,fixationCross,9977514.0,9979497.0,1983.0,25,L,9977251,9977303,54,1025.5,456.5,5899,NA
26,1,binary,25,2,trial,9977514.0,9979497.0,1983.0,25,L,9977337,9977667,332,1181.0,482.5,6195,NA
26,1,binary,25,2,trial,9977514.0,9979497.0,1983.0,25,L,9977703,9977975,274,1366.4,477.3,6364,right
26,1,binary,25,2,trial,9977514.0,9979497.0,1983.0,25,L,9978041,9978367,328,560.1,524.2,6328,left
26,1,binary,25,2,trial,9977514.0,9979497.0,1983.0,25,L,9978407,9978809,404,306.9,549.5,6076,left
26,1,binary,25,2,trial,9977514.0,9979497.0,1983.0,25,L,9978887,9979723,838,1423.8,530.6,6150,right
26,1,binary,25,2,postResponse,9977514.0,9979497.0,1983.0,25,L,9979805,9979831,28,1142.1,469.1,6647,NA
26,1,binary,26,2,trial,10008514.0,10010248.0,1734.0,26,L,10008487,10008575,90,874.8,485.8,6668,NA
26,1,binary,26,2,trial,10008514.0,10010248.0,1734.0,26,L,10008607,10008847,242,953.1,566.6,6678,NA
26,1,binary,26,2,trial,10008514.0,10010248.0,1734.0,26,L,10008905,10009043,140,455.0,560.9,6904,left
26,1,binary,26,2,trial,10008514.0,10010248.0,1734.0,26,L,10009067,10009191,126,490.1,482.6,7089,left
26,1,binary,26,2,trial,10008514.0,10010248.0,1734.0,26,L,10009205,10009541,338,479.3,432.6,6878,left
26,1,binary,26,2,trial,10008514.0,10010248.0,1734.0,26,L,10009625,10009841,218,1485.9,415.0,6274,right
26,1,binary,26,2,trial,10008514.0,10010248.0,1734.0,26,L,10009863,10010519,658,1546.5,449.7,6304,right
26,1,binary,27,2,fixationCross,10010931.0,10012065.0,1134.0,27,L,10010669,10010737,70,1116.1,489.2,6666,NA
26,1,binary,27,2,trial,10010931.0,10012065.0,1134.0,27,L,10010773,10011191,420,931.3,520.7,7001,NA
26,1,binary,27,2,trial,10010931.0,10012065.0,1134.0,27,L,10011235,10011475,242,561.7,527.2,7117,left
26,1,binary,27,2,trial,10010931.0,10012065.0,1134.0,27,L,10011589,10011995,408,1448.0,489.0,5834,right
26,1,binary,27,2,trial,10010931.0,10012065.0,1134.0,27,L,10012015,10012307,294,1488.5,567.3,5695,right
26,1,binary,28,2,fixationCross,10012715.0,10014997.0,2282.0,28,L,10012475,10012675,202,806.4,520.4,6459,NA
26,1,binary,28,2,trial,10012715.0,10014997.0,2282.0,28,L,10012699,10012905,208,934.3,515.3,6677,NA
26,1,binary,28,2,trial,10012715.0,10014997.0,2282.0,28,L,10012949,10013253,306,627.2,514.9,6520,left
26,1,binary,28,2,trial,10012715.0,10014997.0,2282.0,28,L,10013339,10013699,362,1442.9,490.8,6093,right
26,1,binary,28,2,trial,10012715.0,10014997.0,2282.0,28,L,10013773,10014039,268,557.2,535.6,6238,left
26,1,binary,28,2,trial,10012715.0,10014997.0,2282.0,28,L,10014051,10014319,270,533.7,498.5,6291,left
26,1,binary,28,2,trial,10012715.0,10014997.0,2282.0,28,L,10014383,10014697,316,1262.2,544.7,6089,right
26,1,binary,28,2,trial,10012715.0,10014997.0,2282.0,28,L,10014747,10014899,154,1431.9,834.0,6259,NA
26,1,binary,28,2,trial,10012715.0,10014997.0,2282.0,28,L,10014929,10015187,260,1442.8,956.9,6267,NA
26,1,binary,29,1,trial,10015681.0,10016981.0,1300.0,29,L,10015441,10015693,254,1287.9,503.2,6507,right
26,1,binary,29,1,trial,10015681.0,10016981.0,1300.0,29,L,10015747,10015915,170,939.0,532.0,6809,NA
26,1,binary,29,1,trial,10015681.0,10016981.0,1300.0,29,L,10015981,10016341,362,1380.1,532.1,6429,right
26,1,binary,29,1,trial,10015681.0,10016981.0,1300.0,29,L,10016403,10016877,476,604.8,614.7,6413,left
26,1,binary,29,1,trial,10015681.0,10016981.0,1300.0,29,L,10016917,10016997,82,489.8,801.7,6131,NA
26,1,binary,29,1,trial,10015681.0,10016981.0,1300.0,29,L,10017029,10017213,186,467.9,987.5,6080,NA
26,1,binary,30,1,trial,10017664.0,10021131.0,3467.0,30,L,10017389,10017819,432,1026.1,541.1,6320,NA
26,1,binary,30,1,trial,10017664.0,10021131.0,3467.0,30,L,10017863,10018121,260,1347.8,491.1,6479,right
26,1,binary,30,1,trial,10017664.0,10021131.0,3467.0,30,L,10018139,10018261,124,1418.7,468.6,6331,right
26,1,binary,30,1,trial,10017664.0,10021131.0,3467.0,30,L,10018273,10018865,594,1450.0,456.0,6031,right
26,1,binary,30,1,trial,10017664.0,10021131.0,3467.0,30,L,10018949,10019805,858,465.1,554.5,6535,left
26,1,binary,30,1,trial,10017664.0,10021131.0,3467.0,30,L,10019821,10020131,312,511.3,513.9,6437,left
26,1,binary,30,1,trial,10017664.0,10021131.0,3467.0,30,L,10020217,10020869,654,1421.8,488.3,6567,right
26,1,binary,30,1,trial,10017664.0,10021131.0,3467.0,30,L,10020955,10021145,192,592.2,924.1,7059,NA
26,1,binary,30,1,trial,10017664.0,10021131.0,3467.0,30,L,10021169,10021315,148,464.2,957.0,7083,NA
26,1,binary,30,1,postResponse,10017664.0,10021131.0,3467.0,30,L,10021425,10021485,62,862.5,515.6,6906,NA
26,1,binary,31,2,fixationCross,10021831.0,10023315.0,1484.0,31,L,10021559,10021683,126,869.7,514.3,6923,NA
26,1,binary,31,2,trial,10021831.0,10023315.0,1484.0,31,L,10021709,10021915,208,735.9,487.5,7051,left
26,1,binary,31,2,trial,10021831.0,10023315.0,1484.0,31,L,10021959,10022055,98,871.5,490.5,7120,NA
26,1,binary,31,2,trial,10021831.0,10023315.0,1484.0,31,L,10022109,10022469,362,430.9,426.6,6972,left
26,1,binary,31,2,trial,10021831.0,10023315.0,1484.0,31,L,10022481,10022579,100,423.1,394.9,6728,left
26,1,binary,31,2,trial,10021831.0,10023315.0,1484.0,31,L,10022659,10022809,152,1403.5,448.5,6513,right
26,1,binary,31,2,trial,10021831.0,10023315.0,1484.0,31,L,10022839,10023543,706,1484.4,567.3,6472,right
26,1,binary,31,2,postResponse,10021831.0,10023315.0,1484.0,31,L,10023581,10023649,70,1255.9,450.2,6404,right
26,1,binary,32,1,fixationCross,10023981.0,10025115.0,1134.0,32,L,10023725,10023753,30,1253.3,446.1,6467,right
26,1,binary,32,1,trial,10023981.0,10025115.0,1134.0,32,L,10023789,10024181,394,1405.1,443.5,6655,right
26,1,binary,32,1,trial,10023981.0,10025115.0,1134.0,32,L,10024205,10024369,166,1422.0,556.6,6982,right
26,1,binary,32,1,trial,10023981.0,10025115.0,1134.0,32,L,10024439,10025329,892,530.2,524.9,7006,left
26,1,binary,33,2,trial,10025798.0,10026948.0,1150.0,33,L,10025523,10025853,332,1265.4,492.9,6953,right
26,1,binary,33,2,trial,10025798.0,10026948.0,1150.0,33,L,10025867,10026085,220,1295.6,477.7,6941,right
26,1,binary,33,2,trial,10025798.0,10026948.0,1150.0,33,L,10026149,10026461,314,511.9,466.9,6671,left
26,1,binary,33,2,trial,10025798.0,10026948.0,1150.0,33,L,10026553,10026833,282,1437.3,500.4,6312,right
26,1,binary,33,2,trial,10025798.0,10026948.0,1150.0,33,L,10026895,10027153,260,1418.1,946.2,6501,NA
26,1,binary,34,1,fixationCross,10027632.0,10028931.0,1299.0,34,L,10027383,10027559,178,808.5,490.8,6586,NA
26,1,binary,34,1,trial,10027632.0,10028931.0,1299.0,34,L,10027595,10027787,194,605.4,486.9,6889,left
26,1,binary,34,1,trial,10027632.0,10028931.0,1299.0,34,L,10027811,10027977,168,475.5,509.3,6928,left
26,1,binary,34,1,trial,10027632.0,10028931.0,1299.0,34,L,10028057,10028179,124,1481.2,466.2,6539,right
26,1,binary,34,1,trial,10027632.0,10028931.0,1299.0,34,L,10028205,10028483,280,1590.4,450.5,6385,right
26,1,binary,34,1,trial,10027632.0,10028931.0,1299.0,34,L,10028563,10028781,220,481.5,507.5,6473,left
26,1,binary,34,1,postResponse,10027632.0,10028931.0,1299.0,34,L,10028791,10029265,476,491.0,525.4,6724,left
26,1,binary,35,2,trial,10029648.0,10031365.0,1717.0,35,L,10029365,10029789,426,952.9,507.0,6957,NA
26,1,binary,35,2,trial,10029648.0,10031365.0,1717.0,35,L,10029835,10030055,222,1228.9,475.2,6955,right
26,1,binary,35,2,trial,10029648.0,10031365.0,1717.0,35,L,10030111,10030253,144,1485.3,571.7,6900,right
26,1,binary,35,2,trial,10029648.0,10031365.0,1717.0,35,L,10030325,10030651,328,534.1,565.7,6970,left
26,1,binary,35,2,trial,10029648.0,10031365.0,1717.0,35,L,10030687,10030913,228,405.9,484.6,6704,left
26,1,binary,35,2,trial,10029648.0,10031365.0,1717.0,35,L,10031001,10031377,378,1468.3,559.8,6677,right
26,1,binary,35,2,trial,10029648.0,10031365.0,1717.0,35,L,10031447,10031607,162,1404.0,1034.1,6958,NA
26,1,binary,36,2,fixationCross,10032081.0,10033415.0,1334.0,36,L,10031851,10032069,220,1505.9,472.8,6757,right
26,1,binary,36,2,trial,10032081.0,10033415.0,1334.0,36,L,10032089,10032351,264,1436.7,478.3,6913,right
26,1,binary,36,2,trial,10032081.0,10033415.0,1334.0,36,L,10032421,10032875,456,574.5,493.1,6489,left
26,1,binary,36,2,trial,10032081.0,10033415.0,1334.0,36,L,10032953,10033305,354,1454.7,486.4,5939,right
26,1,binary,36,2,postResponse,10032081.0,10033415.0,1334.0,36,L,10033327,10033751,426,1467.0,417.1,5751,right
26,1,binary,37,1,fixationCross,10034098.0,10036564.0,2466.0,37,L,10033825,10034091,268,1352.2,463.9,5872,right
26,1,binary,37,1,trial,10034098.0,10036564.0,2466.0,37,L,10034113,10034389,278,1423.5,455.9,6383,right
26,1,binary,37,1,trial,10034098.0,10036564.0,2466.0,37,L,10034405,10034635,232,1424.6,507.3,6580,right
26,1,binary,37,1,trial,10034098.0,10036564.0,2466.0,37,L,10034705,10035117,414,542.1,492.1,6579,left
26,1,binary,37,1,trial,10034098.0,10036564.0,2466.0,37,L,10035143,10035203,62,504.4,405.1,6481,left
26,1,binary,37,1,trial,10034098.0,10036564.0,2466.0,37,L,10035215,10035633,420,499.2,372.1,6424,left
26,1,binary,37,1,trial,10034098.0,10036564.0,2466.0,37,L,10035715,10036283,570,1425.4,461.9,6404,right
26,1,binary,37,1,trial,10034098.0,10036564.0,2466.0,37,L,10036359,10036511,154,584.8,702.6,6443,left
26,1,binary,37,1,trial,10034098.0,10036564.0,2466.0,37,L,10036541,10036781,242,461.1,969.9,6672,NA
26,1,binary,37,1,postResponse,10034098.0,10036564.0,2466.0,37,L,10036853,10036901,50,526.9,626.0,6750,left
26,1,binary,38,1,fixationCross,10037248.0,10041598.0,4350.0,38,L,10036975,10037009,36,513.6,573.2,6701,left
26,1,binary,38,1,trial,10037248.0,10041598.0,4350.0,38,L,10037033,10037269,238,592.1,481.3,6748,left
26,1,binary,38,1,trial,10037248.0,10041598.0,4350.0,38,L,10037283,10037555,274,553.9,477.6,6772,left
26,1,binary,38,1,trial,10037248.0,10041598.0,4350.0,38,L,10037641,10038103,464,1395.1,440.9,6343,right
26,1,binary,38,1,trial,10037248.0,10041598.0,4350.0,38,L,10038153,10038305,154,1565.3,546.7,6344,right
26,1,binary,38,1,trial,10037248.0,10041598.0,4350.0,38,L,10038315,10038551,238,1536.5,547.2,6401,right
26,1,binary,38,1,trial,10037248.0,10041598.0,4350.0,38,L,10038591,10038837,248,1379.8,433.1,6160,right
26,1,binary,38,1,trial,10037248.0,10041598.0,4350.0,38,L,10038907,10039549,644,539.5,507.1,6306,left
26,1,binary,38,1,trial,10037248.0,10041598.0,4350.0,38,L,10039633,10039779,148,1479.6,467.2,6271,right
26,1,binary,38,1,trial,10037248.0,10041598.0,4350.0,38,L,10039799,10041139,1342,1391.2,447.2,6373,right
26,1,binary,38,1,trial,10037248.0,10041598.0,4350.0,38,L,10041211,10041761,552,615.4,519.5,6661,left
26,1,binary,38,1,postResponse,10037248.0,10041598.0,4350.0,38,L,10041855,10041933,80,511.2,512.7,6147,left
26,1,binary,39,1,trial,10042298.0,10044265.0,1967.0,39,L,10042033,10042349,318,503.8,509.7,6306,left
26,1,binary,39,1,trial,10042298.0,10044265.0,1967.0,39,L,10042407,10042501,96,920.0,511.4,6369,NA
26,1,binary,39,1,trial,10042298.0,10044265.0,1967.0,39,L,10042561,10042719,160,1408.4,463.5,6138,right
26,1,binary,39,1,trial,10042298.0,10044265.0,1967.0,39,L,10042737,10043305,570,1474.8,459.7,6082,right
26,1,binary,39,1,trial,10042298.0,10044265.0,1967.0,39,L,10043323,10043549,228,1469.4,511.2,6135,right
26,1,binary,39,1,trial,10042298.0,10044265.0,1967.0,39,L,10043619,10044159,542,598.8,560.3,6516,left
26,1,binary,39,1,trial,10042298.0,10044265.0,1967.0,39,L,10044227,10044307,82,444.1,982.0,6249,NA
26,1,binary,39,1,trial,10042298.0,10044265.0,1967.0,39,L,10044359,10044511,154,421.9,475.7,6297,left
26,1,binary,40,2,fixationCross,10044915.0,10048115.0,3200.0,40,L,10044673,10044841,170,609.0,485.6,6447,left
26,1,binary,40,2,trial,10044915.0,10048115.0,3200.0,40,L,10044909,10045051,144,1213.5,463.2,6573,right
26,1,binary,40,2,trial,10044915.0,10048115.0,3200.0,40,L,10045083,10045241,160,1400.6,448.2,6605,right
26,1,binary,40,2,trial,10044915.0,10048115.0,3200.0,40,L,10045271,10045485,216,1450.8,576.3,6729,right
26,1,binary,40,2,trial,10044915.0,10048115.0,3200.0,40,L,10045509,10045641,134,1441.9,647.0,6858,right
26,1,binary,40,2,trial,10044915.0,10048115.0,3200.0,40,L,10045673,10045801,130,1452.9,440.2,6812,right
26,1,binary,40,2,trial,10044915.0,10048115.0,3200.0,40,L,10045877,10046525,650,513.9,498.7,7010,left
26,1,binary,40,2,trial,10044915.0,10048115.0,3200.0,40,L,10046545,10046625,82,445.9,532.8,7299,left
26,1,binary,40,2,trial,10044915.0,10048115.0,3200.0,40,L,10046705,10046907,204,1389.4,479.8,7418,right
26,1,binary,40,2,trial,10044915.0,10048115.0,3200.0,40,L,10046931,10047115,186,1438.7,551.6,7495,right
26,1,binary,40,2,trial,10044915.0,10048115.0,3200.0,40,L,10047143,10047507,366,1471.7,418.5,7023,right
26,1,binary,40,2,trial,10044915.0,10048115.0,3200.0,40,L,10047531,10047745,216,1430.3,548.3,6791,right
26,1,binary,40,2,trial,10044915.0,10048115.0,3200.0,40,L,10047821,10048075,256,596.5,600.9,7118,left
26,1,binary,40,2,trial,10044915.0,10048115.0,3200.0,40,L,10048215,10048271,58,533.2,525.8,7007,left
26,1,binary,40,2,postResponse,10044915.0,10048115.0,3200.0,40,L,10048409,10048451,44,1399.3,484.8,6972,right
26,1,binary,41,1,fixationCross,10048799.0,10049932.0,1133.0,41,L,10048527,10048567,42,1321.9,508.2,7070,right
26,1,binary,41,1,trial,10048799.0,10049932.0,1133.0,41,L,10048579,10048951,374,1354.1,508.3,7103,right
26,1,binary,41,1,trial,10048799.0,10049932.0,1133.0,41,L,10049075,10049475,402,1452.4,553.4,6153,right
26,1,binary,41,1,trial,10048799.0,10049932.0,1133.0,41,L,10049517,10049541,26,1190.2,543.4,5703,right
26,1,binary,41,1,trial,10048799.0,10049932.0,1133.0,41,L,10049601,10050171,572,508.4,517.5,5557,left
26,1,binary,42,1,fixationCross,10050615.0,10051531.0,916.0,42,L,10050341,10050555,216,586.9,494.5,6073,left
26,1,binary,42,1,trial,10050615.0,10051531.0,916.0,42,L,10050567,10050867,302,558.4,515.1,6441,left
26,1,binary,42,1,trial,10050615.0,10051531.0,916.0,42,L,10050947,10051095,150,1390.6,511.0,6334,right
26,1,binary,42,1,trial,10050615.0,10051531.0,916.0,42,L,10051161,10051773,614,542.1,485.7,5819,left
26,1,binary,43,2,fixationCross,10052249.0,10053815.0,1566.0,43,L,10051967,10052147,182,1215.5,485.9,6302,right
26,1,binary,43,2,trial,10052249.0,10053815.0,1566.0,43,L,10052169,10052495,328,1302.7,457.7,6579,right
26,1,binary,43,2,trial,10052249.0,10053815.0,1566.0,43,L,10052557,10053025,470,588.2,460.2,6679,left
26,1,binary,43,2,trial,10052249.0,10053815.0,1566.0,43,L,10053095,10053751,658,1362.0,420.6,6239,right
26,1,binary,43,2,trial,10052249.0,10053815.0,1566.0,43,L,10053823,10054021,200,1474.8,950.3,6463,NA
26,1,binary,43,2,postResponse,10052249.0,10053815.0,1566.0,43,L,10054109,10054149,42,1449.8,435.5,6233,right
26,1,binary,44,2,fixationCross,10054498.0,10056498.0,2000.0,44,L,10054225,10054303,80,1444.5,424.6,6097,right
26,1,binary,44,2,trial,10054498.0,10056498.0,2000.0,44,L,10054325,10054763,440,1361.1,462.6,6396,right
26,1,binary,44,2,trial,10054498.0,10056498.0,2000.0,44,L,10054797,10054945,150,1523.9,503.7,6519,right
26,1,binary,44,2,trial,10054498.0,10056498.0,2000.0,44,L,10054963,10055157,196,1577.4,452.3,6319,right
26,1,binary,44,2,trial,10054498.0,10056498.0,2000.0,44,L,10055169,10055363,196,1601.5,436.8,6314,right
26,1,binary,44,2,trial,10054498.0,10056498.0,2000.0,44,L,10055449,10055811,364,513.6,544.5,6797,left
26,1,binary,44,2,trial,10054498.0,10056498.0,2000.0,44,L,10055841,10056053,214,440.4,429.2,6755,left
26,1,binary,44,2,postResponse,10054498.0,10056498.0,2000.0,44,L,10056137,10056833,698,1441.5,510.4,6558,right
26,1,binary,45,2,fixationCross,10057182.0,10059232.0,2050.0,45,L,10056907,10057047,142,1429.0,511.9,6507,right
26,1,binary,45,2,trial,10057182.0,10059232.0,2050.0,45,L,10057063,10057449,388,1395.7,471.4,6387,right
26,1,binary,45,2,trial,10057182.0,10059232.0,2050.0,45,L,10057523,10057837,316,508.1,494.0,6288,left
26,1,binary,45,2,trial,10057182.0,10059232.0,2050.0,45,L,10057855,10058013,160,456.6,464.9,6164,left
26,1,binary,45,2,trial,10057182.0,10059232.0,2050.0,45,L,10058083,10058505,424,1410.2,465.6,6000,right
26,1,binary,45,2,trial,10057182.0,10059232.0,2050.0,45,L,10058527,10058825,300,1438.3,541.5,6078,right
26,1,binary,45,2,trial,10057182.0,10059232.0,2050.0,45,L,10058853,10059087,236,1228.5,496.0,6257,right
26,1,binary,45,2,trial,10057182.0,10059232.0,2050.0,45,L,10059207,10059257,52,581.5,450.0,6281,left
26,1,binary,45,2,postResponse,10057182.0,10059232.0,2050.0,45,L,10059337,10059567,232,1383.8,515.4,6338,right
26,1,binary,46,1,fixationCross,10059948.0,10061282.0,1334.0,46,L,10059643,10059787,146,1382.3,513.0,6488,right
26,1,binary,46,1,trial,10059948.0,10061282.0,1334.0,46,L,10059799,10060343,546,1342.5,492.0,6528,right
26,1,binary,46,1,trial,10059948.0,10061282.0,1334.0,46,L,10060411,10060871,462,525.1,523.2,6333,left
26,1,binary,46,1,trial,10059948.0,10061282.0,1334.0,46,L,10060937,10061591,656,1384.6,497.0,6372,right
26,1,binary,47,1,trial,10061998.0,10064165.0,2167.0,47,L,10061717,10062185,470,849.3,492.1,6904,NA
26,1,binary,47,1,trial,10061998.0,10064165.0,2167.0,47,L,10062231,10062509,280,490.6,475.5,7334,left
26,1,binary,47,1,trial,10061998.0,10064165.0,2167.0,47,L,10062591,10062893,304,1433.6,463.1,6944,right
26,1,binary,47,1,trial,10061998.0,10064165.0,2167.0,47,L,10062965,10063283,320,1510.1,392.9,6418,right
26,1,binary,47,1,trial,10061998.0,10064165.0,2167.0,47,L,10063307,10063445,140,1435.5,472.2,6370,right
26,1,binary,47,1,trial,10061998.0,10064165.0,2167.0,47,L,10063531,10063717,188,398.1,505.7,6446,left
26,1,binary,47,1,trial,10061998.0,10064165.0,2167.0,47,L,10063741,10064061,322,493.0,530.0,6384,left
26,1,binary,47,1,trial,10061998.0,10064165.0,2167.0,47,L,10064115,10064383,270,478.1,926.0,6826,NA
26,1,binary,48,2,trial,10064865.0,10066849.0,1984.0,48,L,10064599,10065053,456,792.5,506.7,6891,NA
26,1,binary,48,2,trial,10064865.0,10066849.0,1984.0,48,L,10065097,10065303,208,443.8,579.0,7043,left
26,1,binary,48,2,trial,10064865.0,10066849.0,1984.0,48,L,10065327,10065637,312,463.8,627.4,6895,left
26,1,binary,48,2,trial,10064865.0,10066849.0,1984.0,48,L,10065649,10065803,156,462.9,645.5,6884,left
26,1,binary,48,2,trial,10064865.0,10066849.0,1984.0,48,L,10065887,10066399,514,1421.7,510.3,6769,right
26,1,binary,48,2,trial,10064865.0,10066849.0,1984.0,48,L,10066419,10067047,630,1441.6,562.5,6923,right
26,1,binary,48,2,postResponse,10064865.0,10066849.0,1984.0,48,L,10067107,10067183,78,1429.9,502.4,6910,right
26,1,binary,49,1,fixationCross,10067532.0,10069249.0,1717.0,49,L,10067259,10067309,52,1411.4,503.7,6866,right
26,1,binary,49,1,fixationCross,10067532.0,10069249.0,1717.0,49,L,10067349,10067493,146,1156.8,499.8,6991,NA
26,1,binary,49,1,trial,10067532.0,10069249.0,1717.0,49,L,10067535,10067751,218,910.5,496.6,7224,NA
26,1,binary,49,1,trial,10067532.0,10069249.0,1717.0,49,L,10067795,10068001,208,590.2,525.2,7341,left
26,1,binary,49,1,trial,10067532.0,10069249.0,1717.0,49,L,10068039,10068183,146,382.1,524.1,7271,left
26,1,binary,49,1,trial,10067532.0,10069249.0,1717.0,49,L,10068263,10068519,258,1327.7,495.5,6816,right
26,1,binary,49,1,trial,10067532.0,10069249.0,1717.0,49,L,10068543,10068805,264,1431.1,465.1,6437,right
26,1,binary,49,1,trial,10067532.0,10069249.0,1717.0,49,L,10068873,10069189,318,603.2,558.0,6352,left
26,1,binary,49,1,trial,10067532.0,10069249.0,1717.0,49,L,10069207,10069485,280,610.8,502.7,6428,left
26,1,binary,49,1,postResponse,10067532.0,10069249.0,1717.0,49,L,10069555,10069583,30,500.8,512.1,6465,left
26,1,binary,50,2,fixationCross,10069932.0,10071565.0,1633.0,50,L,10069657,10069743,88,512.6,511.8,6508,left
26,1,binary,50,2,trial,10069932.0,10071565.0,1633.0,50,L,10069765,10069981,218,614.5,511.1,6654,left
26,1,binary,50,2,trial,10069932.0,10071565.0,1633.0,50,L,10070041,10070125,86,1002.2,488.4,6703,NA
26,1,binary,50,2,trial,10069932.0,10071565.0,1633.0,50,L,10070181,10070429,250,1409.0,472.6,6505,right
26,1,binary,50,2,trial,10069932.0,10071565.0,1633.0,50,L,10070445,10070611,168,1445.6,479.0,6482,right
26,1,binary,50,2,trial,10069932.0,10071565.0,1633.0,50,L,10070689,10070841,154,434.7,468.0,6555,left
26,1,binary,50,2,trial,10069932.0,10071565.0,1633.0,50,L,10070857,10071099,244,482.0,470.7,6508,left
26,1,binary,50,2,trial,10069932.0,10071565.0,1633.0,50,L,10071177,10071417,242,1431.3,478.1,6385,right
26,1,binary,50,2,trial,10069932.0,10071565.0,1633.0,50,L,10071431,10071817,388,1455.4,485.4,6597,right
26,2,continuous,1,84,trial,10137216.0,10142949.0,5733.0,51,L,10136926,10137378,454,909.9,510.6,7389,NA
26,2,continuous,1,84,trial,10137216.0,10142949.0,5733.0,51,L,10137426,10137482,58,528.1,505.4,7300,left
26,2,continuous,1,84,trial,10137216.0,10142949.0,5733.0,51,L,10137556,10137654,100,582.7,976.6,7382,NA
26,2,continuous,1,84,trial,10137216.0,10142949.0,5733.0,51,L,10137722,10137906,186,980.0,1016.7,7187,likertHorizontal
26,2,continuous,1,84,trial,10137216.0,10142949.0,5733.0,51,L,10137956,10137980,26,1179.2,1008.9,7004,likertHorizontal
26,2,continuous,1,84,trial,10137216.0,10142949.0,5733.0,51,L,10138026,10138154,130,1378.0,1078.9,6993,NA
26,2,continuous,1,84,trial,10137216.0,10142949.0,5733.0,51,L,10138214,10138290,78,881.8,956.6,7171,likertHorizontal
26,2,continuous,1,84,trial,10137216.0,10142949.0,5733.0,51,L,10138352,10138642,292,488.4,439.1,7301,left
26,2,continuous,1,84,trial,10137216.0,10142949.0,5733.0,51,L,10138660,10138786,128,542.7,500.1,7406,left
26,2,continuous,1,84,trial,10137216.0,10142949.0,5733.0,51,L,10138862,10139102,242,1319.7,475.0,7324,right
26,2,continuous,1,84,trial,10137216.0,10142949.0,5733.0,51,L,10139128,10139546,420,1379.1,556.5,7230,right
26,2,continuous,1,84,trial,10137216.0,10142949.0,5733.0,51,L,10139620,10139914,296,529.9,497.6,7536,left
26,2,continuous,1,84,trial,10137216.0,10142949.0,5733.0,51,L,10139996,10140168,174,1403.9,559.6,7081,right
26,2,continuous,1,84,trial,10137216.0,10142949.0,5733.0,51,L,10140226,10140436,212,1236.0,974.9,7071,NA
26,2,continuous,1,84,trial,10137216.0,10142949.0,5733.0,51,L,10140476,10140660,186,1446.1,1068.7,7101,NA
26,2,continuous,1,84,trial,10137216.0,10142949.0,5733.0,51,L,10140686,10140920,236,1279.3,1028.3,7173,NA
26,2,continuous,1,84,trial,10137216.0,10142949.0,5733.0,51,L,10140948,10141086,140,1323.7,872.1,7084,NA
26,2,continuous,1,84,trial,10137216.0,10142949.0,5733.0,51,L,10141120,10141616,498,1293.3,1010.7,7208,NA
26,2,continuous,1,84,trial,10137216.0,10142949.0,5733.0,51,L,10141734,10142232,500,1351.4,548.1,6997,right
26,2,continuous,1,84,trial,10137216.0,10142949.0,5733.0,51,L,10142260,10142622,364,1466.5,561.6,6613,right
26,2,continuous,1,84,trial,10137216.0,10142949.0,5733.0,51,L,10142678,10142864,188,1272.2,998.0,6635,NA
26,2,continuous,1,84,trial,10137216.0,10142949.0,5733.0,51,L,10142914,10143230,318,1322.0,589.9,6573,right
26,2,continuous,2,58,trial,10143633.0,10147466.0,3833.0,52,L,10143360,10143644,286,1154.1,510.9,6704,NA
26,2,continuous,2,58,trial,10143633.0,10147466.0,3833.0,52,L,10143696,10143842,148,885.2,495.2,7056,NA
26,2,continuous,2,58,trial,10143633.0,10147466.0,3833.0,52,L,10143884,10143998,116,571.2,474.0,7174,left
26,2,continuous,2,58,trial,10143633.0,10147466.0,3833.0,52,L,10144020,10144294,276,454.9,420.9,7187,left
26,2,continuous,2,58,trial,10143633.0,10147466.0,3833.0,52,L,10144366,10144528,164,525.0,1013.9,6925,NA
26,2,continuous,2,58,trial,10143633.0,10147466.0,3833.0,52,L,10144606,10144852,248,1369.6,549.7,6639,right
26,2,continuous,2,58,trial,10143633.0,10147466.0,3833.0,52,L,10144872,10145068,198,1358.8,501.3,6618,right
26,2,continuous,2,58,trial,10143633.0,10147466.0,3833.0,52,L,10145130,10145404,276,1097.9,1002.2,7039,likertHorizontal
26,2,continuous,2,58,trial,10143633.0,10147466.0,3833.0,52,L,10145426,10146236,812,1034.8,997.8,7301,likertHorizontal
26,2,continuous,2,58,trial,10143633.0,10147466.0,3833.0,52,L,10146296,10146530,236,1316.6,489.5,7323,right
26,2,continuous,2,58,trial,10143633.0,10147466.0,3833.0,52,L,10146588,10146698,112,1308.1,1061.6,7309,NA
26,2,continuous,2,58,trial,10143633.0,10147466.0,3833.0,52,L,10146730,10146908,180,1448.4,1074.9,7166,NA
26,2,continuous,2,58,trial,10143633.0,10147466.0,3833.0,52,L,10146956,10147120,166,1067.6,995.8,7231,likertHorizontal
26,2,continuous,2,58,trial,10143633.0,10147466.0,3833.0,52,L,10147176,10147682,508,1291.6,490.2,6976,right
26,2,continuous,2,58,postResponse,10143633.0,10147466.0,3833.0,52,L,10147728,10147802,76,1008.5,478.2,7033,NA
26,2,continuous,3,14,fixationCross,10148166.0,10151799.0,3633.0,53,L,10147902,10147954,54,1006.4,479.8,7080,NA
26,2,continuous,3,14,trial,10148166.0,10151799.0,3633.0,53,L,10148000,10148244,246,794.6,485.4,7210,NA
26,2,continuous,3,14,trial,10148166.0,10151799.0,3633.0,53,L,10148274,10148352,80,907.2,481.5,7276,NA
26,2,continuous,3,14,trial,10148166.0,10151799.0,3633.0,53,L,10148398,10148610,214,507.6,467.6,7227,left
26,2,continuous,3,14,trial,10148166.0,10151799.0,3633.0,53,L,10148690,10148902,214,1442.2,510.4,6852,right
26,2,continuous,3,14,trial,10148166.0,10151799.0,3633.0,53,L,10148920,10149090,172,1440.5,443.4,6653,right
26,2,continuous,3,14,trial,10148166.0,10151799.0,3633.0,53,L,10149164,10149350,188,517.7,480.6,6709,left
26,2,continuous,3,14,trial,10148166.0,10151799.0,3633.0,53,L,10149366,10149516,152,566.2,474.7,6723,left
26,2,continuous,3,14,trial,10148166.0,10151799.0,3633.0,53,L,10149582,10150072,492,1448.1,438.5,6503,right
26,2,continuous,3,14,trial,10148166.0,10151799.0,3633.0,53,L,10150146,10150356,212,541.1,473.0,6694,left
26,2,continuous,3,14,trial,10148166.0,10151799.0,3633.0,53,L,10150424,10151026,604,587.4,950.9,7259,NA
26,2,continuous,3,14,trial,10148166.0,10151799.0,3633.0,53,L,10151086,10151234,150,513.5,403.8,7381,left
26,2,continuous,3,14,trial,10148166.0,10151799.0,3633.0,53,L,10151246,10151512,268,521.5,434.2,7391,left
26,2,continuous,3,14,trial,10148166.0,10151799.0,3633.0,53,L,10151536,10151796,262,424.3,436.9,7405,left
26,2,continuous,3,14,trial,10148166.0,10151799.0,3633.0,53,L,10151866,10152016,152,527.6,950.4,7708,NA
26,2,continuous,4,63,trial,10152483.0,10155433.0,2950.0,54,L,10152228,10152666,440,1001.2,468.4,7234,NA
26,2,continuous,4,63,trial,10152483.0,10155433.0,2950.0,54,L,10152724,10152948,226,512.1,426.3,7353,left
26,2,continuous,4,63,trial,10152483.0,10155433.0,2950.0,54,L,10152968,10153156,190,514.5,495.0,7135,left
26,2,continuous,4,63,trial,10152483.0,10155433.0,2950.0,54,L,10153234,10153822,590,1411.0,421.6,6615,right
26,2,continuous,4,63,trial,10152483.0,10155433.0,2950.0,54,L,10153894,10154010,118,1056.2,959.0,6676,likertHorizontal
26,2,continuous,4,63,trial,10152483.0,10155433.0,2950.0,54,L,10154030,10154318,290,979.0,988.5,6639,likertHorizontal
26,2,continuous,4,63,trial,10152483.0,10155433.0,2950.0,54,L,10154340,10154620,282,1113.9,974.9,6774,likertHorizontal
26,2,continuous,4,63,trial,10152483.0,10155433.0,2950.0,54,L,10154684,10154802,120,1323.3,366.8,6872,right
26,2,continuous,4,63,trial,10152483.0,10155433.0,2950.0,54,L,10154822,10155408,588,1412.4,404.2,6840,right
26,2,continuous,4,63,trial,10152483.0,10155433.0,2950.0,54,L,10155468,10155660,194,1108.8,992.0,6689,likertHorizontal
26,2,continuous,5,87,fixationCross,10156116.0,10159116.0,3000.0,55,L,10155848,10155922,76,1120.7,477.8,6516,NA
26,2,continuous,5,87,trial,10156116.0,10159116.0,3000.0,55,L,10155964,10156162,200,1421.4,459.0,6570,right
26,2,continuous,5,87,trial,10156116.0,10159116.0,3000.0,55,L,10156208,10156346,140,1015.3,478.0,7034,NA
26,2,continuous,5,87,trial,10156116.0,10159116.0,3000.0,55,L,10156398,10156950,554,537.8,458.9,6950,left
26,2,continuous,5,87,trial,10156116.0,10159116.0,3000.0,55,L,10156974,10157126,154,467.6,516.3,6802,left
26,2,continuous,5,87,trial,10156116.0,10159116.0,3000.0,55,L,10157206,10157302,98,1437.1,467.0,6801,right
26,2,continuous,5,87,trial,10156116.0,10159116.0,3000.0,55,L,10157334,10157658,326,1591.6,448.1,6770,right
26,2,continuous,5,87,trial,10156116.0,10159116.0,3000.0,55,L,10157730,10158326,598,1210.3,987.9,7014,NA
26,2,continuous,5,87,trial,10156116.0,10159116.0,3000.0,55,L,10158344,10158516,174,1334.8,1011.1,7147,NA
26,2,continuous,5,87,trial,10156116.0,10159116.0,3000.0,55,L,10158574,10158980,408,1421.2,432.1,7105,right
26,2,continuous,5,87,trial,10156116.0,10159116.0,3000.0,55,L,10159014,10159332,320,1588.5,440.7,7135,right
26,2,continuous,6,5,fixationCross,10159816.0,10162666.0,2850.0,56,L,10159526,10159736,212,836.7,512.6,7276,NA
26,2,continuous,6,5,trial,10159816.0,10162666.0,2850.0,56,L,10159760,10159954,196,950.4,494.6,7309,NA
26,2,continuous,6,5,trial,10159816.0,10162666.0,2850.0,56,L,10160002,10160370,370,1335.7,450.9,6850,right
26,2,continuous,6,5,trial,10159816.0,10162666.0,2850.0,56,L,10160448,10160596,150,453.0,418.2,6415,left
26,2,continuous,6,5,trial,10159816.0,10162666.0,2850.0,56,L,10160606,10161092,488,427.3,419.1,6226,left
26,2,continuous,6,5,trial,10159816.0,10162666.0,2850.0,56,L,10161160,10161404,246,1331.2,459.6,6398,right
26,2,continuous,6,5,trial,10159816.0,10162666.0,2850.0,56,L,10161424,10161598,176,1382.2,479.3,6368,right
26,2,continuous,6,5,trial,10159816.0,10162666.0,2850.0,56,L,10161666,10161778,114,670.5,782.1,6357,NA
26,2,continuous,6,5,trial,10159816.0,10162666.0,2850.0,56,L,10161824,10162128,306,574.4,992.0,6392,NA
26,2,continuous,6,5,trial,10159816.0,10162666.0,2850.0,56,L,10162162,10162192,32,523.6,846.4,6570,NA
26,2,continuous,6,5,trial,10159816.0,10162666.0,2850.0,56,L,10162226,10162400,176,480.4,566.7,6682,left
26,2,continuous,6,5,trial,10159816.0,10162666.0,2850.0,56,L,10162462,10162618,158,517.7,986.0,6958,NA
26,2,continuous,6,5,trial,10159816.0,10162666.0,2850.0,56,L,10162674,10162932,260,438.6,436.0,6942,left
26,2,continuous,7,6,fixationCross,10163350.0,10166000.0,2650.0,57,L,10163076,10163268,194,933.8,504.5,6858,NA
26,2,continuous,7,6,trial,10163350.0,10166000.0,2650.0,57,L,10163302,10163608,308,703.1,439.5,7084,left
26,2,continuous,7,6,trial,10163350.0,10166000.0,2650.0,57,L,10163690,10163890,202,1408.9,481.4,7041,right
26,2,continuous,7,6,trial,10163350.0,10166000.0,2650.0,57,L,10163904,10164072,170,1419.5,507.4,6994,right
26,2,continuous,7,6,trial,10163350.0,10166000.0,2650.0,57,L,10164088,10164280,194,1372.1,525.9,7099,right
26,2,continuous,7,6,trial,10163350.0,10166000.0,2650.0,57,L,10164354,10164840,488,560.8,505.2,7522,left
26,2,continuous,7,6,trial,10163350.0,10166000.0,2650.0,57,L,10164894,10165294,402,576.5,960.7,7213,NA
26,2,continuous,7,6,trial,10163350.0,10166000.0,2650.0,57,L,10165342,10165442,102,537.6,661.2,7069,left
26,2,continuous,7,6,trial,10163350.0,10166000.0,2650.0,57,L,10165516,10165654,140,1365.0,534.5,6884,right
26,2,continuous,7,6,postResponse,10163350.0,10166000.0,2650.0,57,L,10165724,10166334,612,512.6,501.0,7060,left
26,2,continuous,8,86,fixationCross,10166700.0,10168316.0,1616.0,58,L,10166434,10166572,140,505.8,479.9,6930,left
26,2,continuous,8,86,trial,10166700.0,10168316.0,1616.0,58,L,10166584,10166976,394,540.4,459.7,7006,left
26,2,continuous,8,86,trial,10166700.0,10168316.0,1616.0,58,L,10167050,10167314,266,1294.8,439.3,6780,right
26,2,continuous,8,86,trial,10166700.0,10168316.0,1616.0,58,L,10167344,10167540,198,1417.3,473.5,6725,right
26,2,continuous,8,86,trial,10166700.0,10168316.0,1616.0,58,L,10167610,10167780,172,1180.9,944.4,7210,likertHorizontal
26,2,continuous,8,86,trial,10166700.0,10168316.0,1616.0,58,L,10167820,10167984,166,1349.7,975.9,7288,NA
26,2,continuous,8,86,trial,10166700.0,10168316.0,1616.0,58,L,10168000,10168112,114,1315.5,990.4,7302,NA
26,2,continuous,8,86,postResponse,10166700.0,10168316.0,1616.0,58,L,10168164,10168652,490,1363.1,451.3,7065,right
26,2,continuous,9,38,trial,10169017.0,10175733.0,6716.0,59,L,10168796,10169192,398,872.6,461.0,7092,NA
26,2,continuous,9,38,trial,10169017.0,10175733.0,6716.0,59,L,10169258,10169440,184,1314.7,427.2,7054,right
26,2,continuous,9,38,trial,10169017.0,10175733.0,6716.0,59,L,10169454,10169792,340,1348.4,403.9,6916,right
26,2,continuous,9,38,trial,10169017.0,10175733.0,6716.0,59,L,10169892,10170062,172,510.3,429.7,6848,left
26,2,continuous,9,38,trial,10169017.0,10175733.0,6716.0,59,L,10170078,10170342,266,459.7,421.9,6786,left
26,2,continuous,9,38,trial,10169017.0,10175733.0,6716.0,59,L,10170366,10170590,226,569.0,441.3,6405,left
26,2,continuous,9,38,trial,10169017.0,10175733.0,6716.0,59,L,10170654,10171284,632,1369.1,429.7,6200,right
26,2,continuous,9,38,trial,10169017.0,10175733.0,6716.0,59,L,10171358,10171542,186,522.5,457.9,6692,left
26,2,continuous,9,38,trial,10169017.0,10175733.0,6716.0,59,L,10171554,10171896,344,557.2,452.0,6744,left
26,2,continuous,9,38,trial,10169017.0,10175733.0,6716.0,59,L,10171938,10172092,156,654.5,840.2,6736,NA
26,2,continuous,9,38,trial,10169017.0,10175733.0,6716.0,59,L,10172118,10172676,560,758.2,915.4,6991,likertHorizontal
26,2,continuous,9,38,trial,10169017.0,10175733.0,6716.0,59,L,10172690,10172896,208,784.8,965.5,7292,likertHorizontal
26,2,continuous,9,38,trial,10169017.0,10175733.0,6716.0,59,L,10172968,10173398,432,1337.4,384.7,7113,right
26,2,continuous,9,38,trial,10169017.0,10175733.0,6716.0,59,L,10173468,10173578,112,909.5,892.8,7254,likertHorizontal
26,2,continuous,9,38,trial,10169017.0,10175733.0,6716.0,59,L,10173602,10173890,290,870.2,954.3,7333,likertHorizontal
26,2,continuous,9,38,trial,10169017.0,10175733.0,6716.0,59,L,10173912,10174280,370,754.6,924.8,7374,likertHorizontal
26,2,continuous,9,38,trial,10169017.0,10175733.0,6716.0,59,L,10174294,10174672,380,808.7,947.9,7313,likertHorizontal
26,2,continuous,9,38,trial,10169017.0,10175733.0,6716.0,59,L,10174736,10174942,208,556.9,439.3,7244,left
26,2,continuous,9,38,trial,10169017.0,10175733.0,6716.0,59,L,10175010,10175136,128,827.7,910.0,7292,likertHorizontal
26,2,continuous,9,38,trial,10169017.0,10175733.0,6716.0,59,L,10175154,10175578,426,838.1,950.7,7201,likertHorizontal
26,2,continuous,9,38,trial,10169017.0,10175733.0,6716.0,59,L,10175622,10175672,52,1157.8,929.6,7275,likertHorizontal
26,2,continuous,9,38,trial,10169017.0,10175733.0,6716.0,59,L,10175740,10175974,236,524.8,428.7,7275,left
26,2,continuous,10,93,fixationCross,10176450.0,10179183.0,2733.0,60,L,10176170,10176356,188,1093.3,448.5,7283,NA
26,2,continuous,10,93,trial,10176450.0,10179183.0,2733.0,60,L,10176394,10176602,210,1270.5,422.5,7222,right
26,2,continuous,10,93,trial,10176450.0,10179183.0,2733.0,60,L,10176648,10176774,128,1433.8,443.0,7293,right
26,2,continuous,10,93,trial,10176450.0,10179183.0,2733.0,60,L,10176784,10176848,66,1432.6,460.2,7283,right
26,2,continuous,10,93,trial,10176450.0,10179183.0,2733.0,60,L,10176924,10177180,258,475.7,477.6,7302,left
26,2,continuous,10,93,trial,10176450.0,10179183.0,2733.0,60,L,10177204,10177374,172,337.1,528.3,7242,left
26,2,continuous,10,93,trial,10176450.0,10179183.0,2733.0,60,L,10177426,10177584,160,649.7,491.7,7208,left
26,2,continuous,10,93,trial,10176450.0,10179183.0,2733.0,60,L,10177648,10177808,162,1434.2,473.3,6847,right
26,2,continuous,10,93,trial,10176450.0,10179183.0,2733.0,60,L,10177818,10177980,164,1462.7,473.2,6723,right
26,2,continuous,10,93,trial,10176450.0,10179183.0,2733.0,60,L,10178032,10178184,154,1258.0,841.1,6860,NA
26,2,continuous,10,93,trial,10176450.0,10179183.0,2733.0,60,L,10178212,10178468,258,1279.1,994.2,7030,NA
26,2,continuous,10,93,trial,10176450.0,10179183.0,2733.0,60,L,10178494,10178914,422,1404.4,1027.2,7386,NA
26,2,continuous,10,93,trial,10176450.0,10179183.0,2733.0,60,L,10178976,10179148,174,1409.5,537.4,7279,right
26,2,continuous,10,93,postResponse,10176450.0,10179183.0,2733.0,60,L,10179166,10179526,362,1453.5,496.7,7082,right
26,2,continuous,11,85,trial,10179883.0,10183550.0,3667.0,61,L,10179740,10179928,190,1229.1,472.3,6973,right
26,2,continuous,11,85,trial,10179883.0,10183550.0,3667.0,61,L,10179968,10180178,212,949.6,492.5,7226,NA
26,2,continuous,11,85,trial,10179883.0,10183550.0,3667.0,61,L,10180226,10180740,516,503.9,486.1,6759,left
26,2,continuous,11,85,trial,10179883.0,10183550.0,3667.0,61,L,10180806,10181434,630,1390.8,539.3,5977,right
26,2,continuous,11,85,trial,10179883.0,10183550.0,3667.0,61,L,10181452,10181600,150,1308.3,536.2,6076,right
26,2,continuous,11,85,trial,10179883.0,10183550.0,3667.0,61,L,10181658,10182096,440,1056.0,986.5,6412,likertHorizontal
26,2,continuous,11,85,trial,10179883.0,10183550.0,3667.0,61,L,10182162,10182388,228,518.3,518.5,6552,left
26,2,continuous,11,85,trial,10179883.0,10183550.0,3667.0,61,L,10182464,10182874,412,1339.8,541.4,6371,right
26,2,continuous,11,85,trial,10179883.0,10183550.0,3667.0,61,L,10182942,10183162,222,1269.0,991.5,6510,NA
26,2,continuous,11,85,trial,10179883.0,10183550.0,3667.0,61,L,10183176,10183364,190,1315.9,1000.5,6771,NA
26,2,continuous,11,85,postResponse,10179883.0,10183550.0,3667.0,61,L,10183412,10183884,474,1356.8,552.2,6776,right
26,2,continuous,12,14,trial,10184233.0,10188550.0,4317.0,62,L,10184122,10184406,286,1227.6,491.8,6711,right
26,2,continuous,12,14,trial,10184233.0,10188550.0,4317.0,62,L,10184436,10184618,184,1364.2,478.8,6875,right
26,2,continuous,12,14,trial,10184233.0,10188550.0,4317.0,62,L,10184680,10184928,250,631.6,495.4,6591,left
26,2,continuous,12,14,trial,10184233.0,10188550.0,4317.0,62,L,10184954,10185360,408,562.1,642.0,6294,left
26,2,continuous,12,14,trial,10184233.0,10188550.0,4317.0,62,L,10185406,10185622,218,738.1,974.9,6109,likertHorizontal
26,2,continuous,12,14,trial,10184233.0,10188550.0,4317.0,62,L,10187006,10187174,170,740.8,880.3,6709,likertHorizontal
26,2,continuous,12,14,trial,10184233.0,10188550.0,4317.0,62,L,10187194,10187420,228,695.9,946.6,6775,NA
26,2,continuous,12,14,trial,10184233.0,10188550.0,4317.0,62,L,10187470,10188290,822,724.1,611.4,6903,left
26,2,continuous,12,14,trial,10184233.0,10188550.0,4317.0,62,L,10188336,10188492,158,593.4,944.7,7144,NA
26,2,continuous,12,14,trial,10184233.0,10188550.0,4317.0,62,L,10188548,10188724,178,492.5,402.5,6943,left
26,2,continuous,12,14,postResponse,10184233.0,10188550.0,4317.0,62,L,10188826,10188886,62,857.2,446.4,6632,NA
26,2,continuous,13,100,fixationCross,10189233.0,10191666.0,2433.0,63,L,10188960,10189152,194,863.8,458.6,6566,NA
26,2,continuous,13,100,trial,10189233.0,10191666.0,2433.0,63,L,10189184,10189364,182,1020.6,483.4,6713,NA
26,2,continuous,13,100,trial,10189233.0,10191666.0,2433.0,63,L,10189422,10189568,148,1359.3,508.9,6765,right
26,2,continuous,13,100,trial,10189233.0,10191666.0,2433.0,63,L,10189640,10189826,188,461.7,444.7,6655,left
26,2,continuous,13,100,trial,10189233.0,10191666.0,2433.0,63,L,10189844,10190066,224,406.4,452.2,6188,left
26,2,continuous,13,100,trial,10189233.0,10191666.0,2433.0,63,L,10190152,10190400,250,1474.4,543.6,5812,right
26,2,continuous,13,100,trial,10189233.0,10191666.0,2433.0,63,L,10190434,10190616,184,1668.3,548.4,5851,right
26,2,continuous,13,100,trial,10189233.0,10191666.0,2433.0,63,L,10190658,10190818,162,1349.1,517.2,5810,right
26,2,continuous,13,100,trial,10189233.0,10191666.0,2433.0,63,L,10190878,10191050,174,1052.2,1030.1,6027,likertHorizontal
26,2,continuous,13,100,trial,10189233.0,10191666.0,2433.0,63,L,10191088,10191380,294,1405.8,1048.2,5983,NA
26,2,continuous,13,100,trial,10189233.0,10191666.0,2433.0,63,L,10191396,10191550,156,1482.1,1055.1,6182,NA
26,2,continuous,13,100,postResponse,10189233.0,10191666.0,2433.0,63,L,10191602,10192002,402,1364.6,473.8,6546,right
26,2,continuous,14,88,fixationCross,10192367.0,10194500.0,2133.0,64,L,10192102,10192178,78,1361.7,471.4,6661,right
26,2,continuous,14,88,trial,10192367.0,10194500.0,2133.0,64,L,10192220,10192502,284,1109.5,465.8,6861,NA
26,2,continuous,14,88,trial,10192367.0,10194500.0,2133.0,64,L,10192556,10192646,92,1406.3,486.5,6939,right
26,2,continuous,14,88,trial,10192367.0,10194500.0,2133.0,64,L,10192732,10192974,244,494.7,473.1,7011,left
26,2,continuous,14,88,trial,10192367.0,10194500.0,2133.0,64,L,10192998,10193266,270,551.1,559.0,6554,left
26,2,continuous,14,88,trial,10192367.0,10194500.0,2133.0,64,L,10193332,10193772,442,1352.7,510.6,6485,right
26,2,continuous,14,88,trial,10192367.0,10194500.0,2133.0,64,L,10193836,10194002,168,1335.6,935.2,6645,NA
26,2,continuous,14,88,trial,10192367.0,10194500.0,2133.0,64,L,10194024,10194238,216,1371.2,1009.9,6678,NA
26,2,continuous,14,88,trial,10192367.0,10194500.0,2133.0,64,L,10194290,10194760,472,1343.6,528.5,6736,right
26,2,continuous,15,42,trial,10195217.0,10197717.0,2500.0,65,L,10194950,10195228,280,1336.1,472.9,6461,right
26,2,continuous,15,42,trial,10195217.0,10197717.0,2500.0,65,L,10195240,10195434,196,1360.8,471.7,6718,right
26,2,continuous,15,42,trial,10195217.0,10197717.0,2500.0,65,L,10195454,10195700,248,1376.6,526.2,6676,right
26,2,continuous,15,42,trial,10195217.0,10197717.0,2500.0,65,L,10195772,10196384,614,554.1,464.1,6321,left
26,2,continuous,15,42,trial,10195217.0,10197717.0,2500.0,65,L,10196446,10196582,138,842.8,973.5,6536,likertHorizontal
26,2,continuous,15,42,trial,10195217.0,10197717.0,2500.0,65,L,10196606,10197066,462,930.9,997.9,6623,likertHorizontal
26,2,continuous,15,42,trial,10195217.0,10197717.0,2500.0,65,L,10197090,10197266,178,889.7,920.8,6755,likertHorizontal
26,2,continuous,15,42,trial,10195217.0,10197717.0,2500.0,65,L,10197288,10197682,396,904.6,999.6,6924,likertHorizontal
26,2,continuous,15,42,postResponse,10195217.0,10197717.0,2500.0,65,L,10197742,10198072,332,637.3,468.0,6987,left
26,2,continuous,16,27,trial,10198433.0,10201700.0,3267.0,66,L,10198172,10198650,480,633.1,471.4,6904,left
26,2,continuous,16,27,trial,10198433.0,10201700.0,3267.0,66,L,10198668,10198834,168,658.3,440.1,6947,left
26,2,continuous,16,27,trial,10198433.0,10201700.0,3267.0,66,L,10198852,10199008,158,612.4,427.6,6628,left
26,2,continuous,16,27,trial,10198433.0,10201700.0,3267.0,66,L,10199088,10199578,492,1422.3,511.3,6331,right
26,2,continuous,16,27,trial,10198433.0,10201700.0,3267.0,66,L,10199702,10199882,182,756.1,1001.3,6558,likertHorizontal
26,2,continuous,16,27,trial,10198433.0,10201700.0,3267.0,66,L,10199942,10200062,122,437.1,377.9,6648,left
26,2,continuous,16,27,trial,10198433.0,10201700.0,3267.0,66,L,10200092,10200438,348,326.1,467.3,6849,left
26,2,continuous,16,27,trial,10198433.0,10201700.0,3267.0,66,L,10200510,10200616,108,704.7,886.5,7099,NA
26,2,continuous,16,27,trial,10198433.0,10201700.0,3267.0,66,L,10200644,10200888,246,741.3,954.7,6882,likertHorizontal
26,2,continuous,16,27,trial,10198433.0,10201700.0,3267.0,66,L,10200906,10201240,336,832.4,958.0,6750,likertHorizontal
26,2,continuous,16,27,trial,10198433.0,10201700.0,3267.0,66,L,10201294,10201560,268,746.9,573.2,6947,NA
26,2,continuous,16,27,trial,10198433.0,10201700.0,3267.0,66,L,10201614,10201872,260,705.2,905.7,7229,NA
26,2,continuous,17,100,fixationCross,10202384.0,10204000.0,1616.0,67,L,10202140,10202344,206,1158.3,453.5,7071,NA
26,2,continuous,17,100,trial,10202384.0,10204000.0,1616.0,67,L,10202380,10202684,306,1346.4,458.6,7061,right
26,2,continuous,17,100,trial,10202384.0,10204000.0,1616.0,67,L,10202712,10202846,136,1436.0,524.1,6632,right
26,2,continuous,17,100,trial,10202384.0,10204000.0,1616.0,67,L,10202918,10203144,228,579.9,523.7,6484,left
26,2,continuous,17,100,trial,10202384.0,10204000.0,1616.0,67,L,10203166,10203294,130,582.5,593.1,6493,left
26,2,continuous,17,100,trial,10202384.0,10204000.0,1616.0,67,L,10203360,10203578,220,1378.6,559.7,6268,right
26,2,continuous,17,100,trial,10202384.0,10204000.0,1616.0,67,L,10203634,10203788,156,1426.4,1008.4,6474,NA
26,2,continuous,17,100,trial,10202384.0,10204000.0,1616.0,67,L,10203810,10203962,154,1452.0,1023.2,6693,NA
26,2,continuous,17,100,postResponse,10202384.0,10204000.0,1616.0,67,L,10204010,10204336,328,1463.9,495.0,6809,right
26,2,continuous,18,72,trial,10204701.0,10207134.0,2433.0,68,L,10204456,10204972,518,1347.8,484.3,6944,right
26,2,continuous,18,72,trial,10204701.0,10207134.0,2433.0,68,L,10205044,10205194,152,476.0,466.1,7076,left
26,2,continuous,18,72,trial,10204701.0,10207134.0,2433.0,68,L,10205216,10205514,300,425.5,515.0,6631,left
26,2,continuous,18,72,trial,10204701.0,10207134.0,2433.0,68,L,10205584,10205742,160,1392.9,476.1,6298,right
26,2,continuous,18,72,trial,10204701.0,10207134.0,2433.0,68,L,10205756,10206176,422,1372.5,448.6,6226,right
26,2,continuous,18,72,trial,10204701.0,10207134.0,2433.0,68,L,10206244,10206496,254,1215.5,1012.6,6380,NA
26,2,continuous,18,72,trial,10204701.0,10207134.0,2433.0,68,L,10206512,10206690,180,1171.2,1007.7,6527,likertHorizontal
26,2,continuous,18,72,trial,10204701.0,10207134.0,2433.0,68,L,10206746,10207320,576,1311.3,517.0,6374,right
26,2,continuous,19,41,fixationCross,10207816.0,10210967.0,3151.0,69,L,10207542,10207734,194,1262.8,506.7,6362,right
26,2,continuous,19,41,trial,10207816.0,10210967.0,3151.0,69,L,10207754,10208048,296,1315.6,470.6,6611,right
26,2,continuous,19,41,trial,10207816.0,10210967.0,3151.0,69,L,10208114,10209098,986,562.1,442.9,6214,left
26,2,continuous,19,41,trial,10207816.0,10210967.0,3151.0,69,L,10209162,10209370,210,775.5,955.0,6509,likertHorizontal
26,2,continuous,19,41,trial,10207816.0,10210967.0,3151.0,69,L,10209384,10209496,114,805.5,967.7,6685,likertHorizontal
26,2,continuous,19,41,trial,10207816.0,10210967.0,3151.0,69,L,10209516,10209770,256,897.9,959.6,6741,likertHorizontal
26,2,continuous,19,41,trial,10207816.0,10210967.0,3151.0,69,L,10209832,10209990,160,1360.1,431.4,6781,right
26,2,continuous,19,41,trial,10207816.0,10210967.0,3151.0,69,L,10210012,10210252,242,1284.3,443.7,6701,right
26,2,continuous,19,41,trial,10207816.0,10210967.0,3151.0,69,L,10210316,10210612,298,908.2,934.0,6513,likertHorizontal
26,2,continuous,19,41,postResponse,10207816.0,10210967.0,3151.0,69,L,10210676,10211300,626,553.2,429.1,6186,left
26,2,continuous,20,34,trial,10211650.0,10215401.0,3751.0,70,L,10211374,10211854,482,564.0,435.8,6225,left
26,2,continuous,20,34,trial,10211650.0,10215401.0,3751.0,70,L,10211866,10212224,360,592.9,451.1,6580,left
26,2,continuous,20,34,trial,10211650.0,10215401.0,3751.0,70,L,10212264,10212488,226,366.0,463.7,6668,left
26,2,continuous,20,34,trial,10211650.0,10215401.0,3751.0,70,L,10212506,10212670,166,300.6,509.4,6878,left
26,2,continuous,20,34,trial,10211650.0,10215401.0,3751.0,70,L,10212722,10212838,118,601.8,498.3,6938,left
26,2,continuous,20,34,trial,10211650.0,10215401.0,3751.0,70,L,10212854,10213154,302,609.1,465.9,6859,left
26,2,continuous,20,34,trial,10211650.0,10215401.0,3751.0,70,L,10213236,10213418,184,1458.7,471.8,6312,right
26,2,continuous,20,34,trial,10211650.0,10215401.0,3751.0,70,L,10213470,10213778,310,1586.6,704.0,6344,right
26,2,continuous,20,34,trial,10211650.0,10215401.0,3751.0,70,L,10213816,10214138,324,1486.6,452.5,6083,right
26,2,continuous,20,34,trial,10211650.0,10215401.0,3751.0,70,L,10214214,10214446,234,606.8,466.5,6330,left
26,2,continuous,20,34,trial,10211650.0,10215401.0,3751.0,70,L,10214520,10215064,546,851.4,969.5,6847,likertHorizontal
26,2,continuous,20,34,trial,10211650.0,10215401.0,3751.0,70,L,10215146,10215316,172,646.4,493.8,6935,left
26,2,continuous,20,34,trial,10211650.0,10215401.0,3751.0,70,L,10215332,10215618,288,614.0,469.5,7065,left
26,2,continuous,21,1,trial,10216101.0,10218300.0,2199.0,71,L,10215834,10216354,522,595.9,475.2,7156,left
26,2,continuous,21,1,trial,10216101.0,10218300.0,2199.0,71,L,10216440,10216724,286,1382.1,498.9,6618,right
26,2,continuous,21,1,trial,10216101.0,10218300.0,2199.0,71,L,10216742,10217080,340,1444.4,483.4,6392,right
26,2,continuous,21,1,trial,10216101.0,10218300.0,2199.0,71,L,10217154,10217452,300,591.0,554.6,7066,left
26,2,continuous,21,1,trial,10216101.0,10218300.0,2199.0,71,L,10217510,10217858,350,635.1,941.8,6469,NA
26,2,continuous,21,1,trial,10216101.0,10218300.0,2199.0,71,L,10217872,10218098,228,542.8,967.8,6256,NA
26,2,continuous,21,1,trial,10216101.0,10218300.0,2199.0,71,L,10218110,10218176,68,487.1,970.9,6483,NA
26,2,continuous,21,1,trial,10216101.0,10218300.0,2199.0,71,L,10218250,10218588,340,1408.5,462.0,6678,right
26,2,continuous,22,59,fixationCross,10219000.0,10225551.0,6551.0,72,L,10218740,10218820,82,687.7,420.6,7004,left
26,2,continuous,22,59,trial,10219000.0,10225551.0,6551.0,72,L,10218842,10219262,422,618.4,466.1,7252,left
26,2,continuous,22,59,trial,10219000.0,10225551.0,6551.0,72,L,10219348,10219604,258,1413.3,478.4,6880,right
26,2,continuous,22,59,trial,10219000.0,10225551.0,6551.0,72,L,10219634,10219912,280,1431.6,566.7,6676,right
26,2,continuous,22,59,trial,10219000.0,10225551.0,6551.0,72,L,10219974,10220128,156,930.1,825.8,7004,likertHorizontal
26,2,continuous,22,59,trial,10219000.0,10225551.0,6551.0,72,L,10220180,10220336,158,669.8,576.2,7032,left
26,2,continuous,22,59,trial,10219000.0,10225551.0,6551.0,72,L,10220396,10220510,116,892.3,898.4,6949,likertHorizontal
26,2,continuous,22,59,trial,10219000.0,10225551.0,6551.0,72,L,10220534,10220744,212,945.9,971.4,6859,likertHorizontal
26,2,continuous,22,59,trial,10219000.0,10225551.0,6551.0,72,L,10220952,10221202,252,546.0,399.9,6988,left
26,2,continuous,22,59,trial,10219000.0,10225551.0,6551.0,72,L,10221282,10221746,466,1424.2,512.5,6763,right
26,2,continuous,22,59,trial,10219000.0,10225551.0,6551.0,72,L,10221766,10222008,244,1376.2,573.7,6638,right
26,2,continuous,22,59,trial,10219000.0,10225551.0,6551.0,72,L,10222024,10222176,154,1333.0,593.0,6805,right
26,2,continuous,22,59,trial,10219000.0,10225551.0,6551.0,72,L,10222248,10222386,140,530.7,443.5,7043,left
26,2,continuous,22,59,trial,10219000.0,10225551.0,6551.0,72,L,10222408,10222884,478,590.0,400.7,6773,left
26,2,continuous,22,59,trial,10219000.0,10225551.0,6551.0,72,L,10222958,10223090,134,820.9,960.0,6812,likertHorizontal
26,2,continuous,22,59,trial,10219000.0,10225551.0,6551.0,72,L,10223110,10223536,428,870.3,973.7,6855,likertHorizontal
26,2,continuous,22,59,trial,10219000.0,10225551.0,6551.0,72,L,10223554,10223982,430,962.2,992.6,6905,likertHorizontal
26,2,continuous,22,59,trial,10219000.0,10225551.0,6551.0,72,L,10223994,10225032,1040,1023.0,996.2,7284,likertHorizontal
26,2,continuous,22,59,trial,10219000.0,10225551.0,6551.0,72,L,10225178,10225296,120,1314.0,553.0,7097,right
26,2,continuous,22,59,postResponse,10219000.0,10225551.0,6551.0,72,L,10225318,10225886,570,1423.0,547.8,6720,right
26,2,continuous,23,86,trial,10226267.0,10229518.0,3251.0,73,L,10225986,10226498,514,1417.4,474.8,6473,right
26,2,continuous,23,86,trial,10226267.0,10229518.0,3251.0,73,L,10226520,10226668,150,1451.6,530.8,6789,right
26,2,continuous,23,86,trial,10226267.0,10229518.0,3251.0,73,L,10226682,10226934,254,1410.3,556.5,6679,right
26,2,continuous,23,86,trial,10226267.0,10229518.0,3251.0,73,L,10227012,10227224,214,507.4,393.8,6560,left
26,2,continuous,23,86,trial,10226267.0,10229518.0,3251.0,73,L,10227234,10227558,326,499.9,376.7,6191,left
26,2,continuous,23,86,trial,10226267.0,10229518.0,3251.0,73,L,10227582,10227960,380,462.9,448.2,6007,left
26,2,continuous,23,86,trial,10226267.0,10229518.0,3251.0,73,L,10227984,10228260,278,547.8,528.4,6407,left
26,2,continuous,23,86,trial,10226267.0,10229518.0,3251.0,73,L,10228288,10228480,194,501.0,411.0,6574,left
26,2,continuous,23,86,trial,10226267.0,10229518.0,3251.0,73,L,10228550,10228746,198,1419.3,539.3,6394,right
26,2,continuous,23,86,trial,10226267.0,10229518.0,3251.0,73,L,10228762,10228998,238,1413.0,569.9,6320,right
26,2,continuous,23,86,trial,10226267.0,10229518.0,3251.0,73,L,10229054,10229444,392,1310.0,999.4,6379,NA
26,2,continuous,23,86,postResponse,10226267.0,10229518.0,3251.0,73,L,10229532,10229854,324,1486.3,490.9,6332,right
26,2,continuous,24,20,trial,10230201.0,10233468.0,3267.0,74,L,10229934,10230230,298,1384.2,443.5,6551,right
26,2,continuous,24,20,trial,10230201.0,10233468.0,3267.0,74,L,10230238,10230486,250,1391.3,457.4,6564,right
26,2,continuous,24,20,trial,10230201.0,10233468.0,3267.0,74,L,10230508,10230712,206,1456.0,472.4,6553,right
26,2,continuous,24,20,trial,10230201.0,10233468.0,3267.0,74,L,10230786,10231010,226,570.3,448.3,6530,left
26,2,continuous,24,20,trial,10230201.0,10233468.0,3267.0,74,L,10231034,10231208,176,487.5,540.8,6729,left
26,2,continuous,24,20,trial,10230201.0,10233468.0,3267.0,74,L,10231290,10231400,112,1437.3,503.3,6901,right
26,2,continuous,24,20,trial,10230201.0,10233468.0,3267.0,74,L,10231424,10231686,264,1511.3,483.0,6873,right
26,2,continuous,24,20,trial,10230201.0,10233468.0,3267.0,74,L,10231712,10232006,296,1386.6,465.8,6400,right
26,2,continuous,24,20,trial,10230201.0,10233468.0,3267.0,74,L,10232076,10232558,484,558.8,552.6,6494,left
26,2,continuous,24,20,trial,10230201.0,10233468.0,3267.0,74,L,10232624,10232764,142,736.3,980.4,6730,NA
26,2,continuous,24,20,trial,10230201.0,10233468.0,3267.0,74,L,10232778,10232930,154,764.4,973.5,6806,likertHorizontal
26,2,continuous,24,20,trial,10230201.0,10233468.0,3267.0,74,L,10232960,10233132,174,648.7,750.2,6772,NA
26,2,continuous,24,20,trial,10230201.0,10233468.0,3267.0,74,L,10233166,10233486,322,595.7,580.0,6532,left
26,2,continuous,24,20,trial,10230201.0,10233468.0,3267.0,74,L,10233502,10233646,146,643.3,557.1,6662,left
26,2,continuous,25,66,fixationCross,10234167.0,10236950.0,2783.0,75,L,10233876,10233942,68,712.2,451.0,6738,left
26,2,continuous,25,66,trial,10234167.0,10236950.0,2783.0,75,L,10233970,10234392,424,532.0,435.3,6859,left
26,2,continuous,25,66,trial,10234167.0,10236950.0,2783.0,75,L,10234410,10234536,128,597.0,437.2,6663,left
26,2,continuous,25,66,trial,10234167.0,10236950.0,2783.0,75,L,10234610,10234930,322,1435.6,507.1,6308,right
26,2,continuous,25,66,trial,10234167.0,10236950.0,2783.0,75,L,10234954,10235150,198,1479.8,570.5,6432,right
26,2,continuous,25,66,trial,10234167.0,10236950.0,2783.0,75,L,10235202,10235396,196,1195.6,926.7,6745,NA
26,2,continuous,25,66,trial,10234167.0,10236950.0,2783.0,75,L,10235416,10235678,264,1196.7,974.1,6788,NA
26,2,continuous,25,66,trial,10234167.0,10236950.0,2783.0,75,L,10235756,10236104,350,556.0,403.4,6683,left
26,2,continuous,25,66,trial,10234167.0,10236950.0,2783.0,75,L,10236140,10236306,168,368.1,417.0,6672,left
26,2,continuous,25,66,trial,10234167.0,10236950.0,2783.0,75,L,10236354,10236570,218,589.3,431.1,6777,left
26,2,continuous,25,66,trial,10234167.0,10236950.0,2783.0,75,L,10236652,10236932,282,1407.2,500.9,6804,right
26,2,continuous,25,66,trial,10234167.0,10236950.0,2783.0,75,L,10237000,10237160,162,1112.8,1000.9,6787,likertHorizontal
26,2,continuous,26,79,trial,10262434.0,10264801.0,2367.0,76,L,10262168,10262676,510,905.2,506.0,6766,NA
26,2,continuous,26,79,trial,10262434.0,10264801.0,2367.0,76,L,10262738,10262844,108,584.2,927.5,7119,NA
26,2,continuous,26,79,trial,10262434.0,10264801.0,2367.0,76,L,10262870,10262902,34,489.4,974.3,7149,NA
26,2,continuous,26,79,trial,10262434.0,10264801.0,2367.0,76,L,10262952,10263092,142,464.7,488.2,7043,left
26,2,continuous,26,79,trial,10262434.0,10264801.0,2367.0,76,L,10263182,10263396,216,1368.2,475.7,6537,right
26,2,continuous,26,79,trial,10262434.0,10264801.0,2367.0,76,L,10263420,10263774,356,1452.1,501.3,6079,right
26,2,continuous,26,79,trial,10262434.0,10264801.0,2367.0,76,L,10263836,10264192,358,1144.1,970.7,6527,likertHorizontal
26,2,continuous,26,79,trial,10262434.0,10264801.0,2367.0,76,L,10264214,10264570,358,1270.6,992.6,6536,NA
26,2,continuous,26,79,trial,10262434.0,10264801.0,2367.0,76,L,10264626,10264774,150,1350.7,554.2,6484,right
26,2,continuous,26,79,trial,10262434.0,10264801.0,2367.0,76,L,10264792,10264974,184,1409.9,534.9,6311,right
26,2,continuous,26,79,postResponse,10262434.0,10264801.0,2367.0,76,L,10265100,10265138,40,1194.1,520.4,6340,right
26,2,continuous,27,88,fixationCross,10265501.0,10268218.0,2717.0,77,L,10265238,10265324,88,1183.3,519.2,6407,right
26,2,continuous,27,88,trial,10265501.0,10268218.0,2717.0,77,L,10265350,10265568,220,1079.5,457.9,6635,NA
26,2,continuous,27,88,trial,10265501.0,10268218.0,2717.0,77,L,10265590,10265696,108,987.8,476.2,6760,NA
26,2,continuous,27,88,trial,10265501.0,10268218.0,2717.0,77,L,10265748,10265888,142,493.1,476.5,6692,left
26,2,continuous,27,88,trial,10265501.0,10268218.0,2717.0,77,L,10265904,10266226,324,456.5,442.1,6378,left
26,2,continuous,27,88,trial,10265501.0,10268218.0,2717.0,77,L,10266296,10266540,246,1414.1,487.6,5760,right
26,2,continuous,27,88,trial,10265501.0,10268218.0,2717.0,77,L,10266566,10267030,466,1488.1,564.4,5795,right
26,2,continuous,27,88,trial,10265501.0,10268218.0,2717.0,77,L,10267048,10267344,298,1477.1,615.6,5905,right
26,2,continuous,27,88,trial,10265501.0,10268218.0,2717.0,77,L,10267396,10267622,228,1162.5,987.8,5942,likertHorizontal
26,2,continuous,27,88,trial,10265501.0,10268218.0,2717.0,77,L,10267682,10267868,188,1440.3,576.8,5649,right
26,2,continuous,27,88,trial,10265501.0,10268218.0,2717.0,77,L,10267882,10268070,190,1480.7,582.8,5705,right
26,2,continuous,27,88,trial,10265501.0,10268218.0,2717.0,77,L,10268126,10268250,126,1374.6,975.4,5854,NA
26,2,continuous,27,88,trial,10265501.0,10268218.0,2717.0,77,L,10268306,10268454,150,1485.4,454.1,5771,right
26,2,continuous,28,53,fixationCross,10268901.0,10273234.0,4333.0,78,L,10268648,10268894,248,1332.8,463.4,5951,right
26,2,continuous,28,53,trial,10268901.0,10273234.0,4333.0,78,L,10268916,10269168,254,1427.1,466.8,6303,right
26,2,continuous,28,53,trial,10268901.0,10273234.0,4333.0,78,L,10269246,10269668,424,594.9,432.4,6241,left
26,2,continuous,28,53,trial,10268901.0,10273234.0,4333.0,78,L,10269744,10269930,188,1385.2,502.7,6103,right
26,2,continuous,28,53,trial,10268901.0,10273234.0,4333.0,78,L,10269954,10270228,276,1425.5,564.0,6259,right
26,2,continuous,28,53,trial,10268901.0,10273234.0,4333.0,78,L,10270288,10270596,310,1242.0,941.6,6197,NA
26,2,continuous,28,53,trial,10268901.0,10273234.0,4333.0,78,L,10270670,10270860,192,495.9,516.0,6077,left
26,2,continuous,28,53,trial,10268901.0,10273234.0,4333.0,78,L,10270884,10271162,280,394.2,532.2,6223,left
26,2,continuous,28,53,trial,10268901.0,10273234.0,4333.0,78,L,10271238,10271368,132,1391.4,526.7,6151,right
26,2,continuous,28,53,trial,10268901.0,10273234.0,4333.0,78,L,10271434,10271612,180,612.4,404.5,6013,left
26,2,continuous,28,53,trial,10268901.0,10273234.0,4333.0,78,L,10271626,10271684,60,597.1,430.4,5960,left
26,2,continuous,28,53,trial,10268901.0,10273234.0,4333.0,78,L,10271764,10272138,376,871.3,996.8,6192,likertHorizontal
26,2,continuous,28,53,trial,10268901.0,10273234.0,4333.0,78,L,10272150,10272314,166,866.8,977.9,6550,likertHorizontal
26,2,continuous,28,53,trial,10268901.0,10273234.0,4333.0,78,L,10272374,10272574,202,1170.1,630.7,6299,NA
26,2,continuous,28,53,trial,10268901.0,10273234.0,4333.0,78,L,10272616,10273074,460,1007.2,957.0,6294,likertHorizontal
26,2,continuous,28,53,trial,10268901.0,10273234.0,4333.0,78,L,10273134,10273460,328,1229.1,489.1,6610,right
26,2,continuous,29,77,fixationCross,10273951.0,10277018.0,3067.0,79,L,10273670,10273868,200,968.2,519.7,6895,NA
26,2,continuous,29,77,trial,10273951.0,10277018.0,3067.0,79,L,10273892,10274086,196,1104.0,496.3,6959,NA
26,2,continuous,29,77,trial,10273951.0,10277018.0,3067.0,79,L,10274124,10274244,122,1321.8,469.9,6806,right
26,2,continuous,29,77,trial,10273951.0,10277018.0,3067.0,79,L,10274308,10274558,252,539.1,457.2,6660,left
26,2,continuous,29,77,trial,10273951.0,10277018.0,3067.0,79,L,10274570,10274762,194,508.9,461.5,6316,left
26,2,continuous,29,77,trial,10273951.0,10277018.0,3067.0,79,L,10274840,10275300,462,1401.6,501.3,5763,right
26,2,continuous,29,77,trial,10273951.0,10277018.0,3067.0,79,L,10275372,10275560,190,557.4,486.9,6284,left
26,2,continuous,29,77,trial,10273951.0,10277018.0,3067.0,79,L,10275574,10275936,364,497.1,483.4,6339,left
26,2,continuous,29,77,trial,10273951.0,10277018.0,3067.0,79,L,10276000,10276424,426,1368.8,502.6,5853,right
26,2,continuous,29,77,trial,10273951.0,10277018.0,3067.0,79,L,10276482,10276642,162,1221.2,973.9,6359,NA
26,2,continuous,29,77,trial,10273951.0,10277018.0,3067.0,79,L,10276658,10276880,224,1235.6,1006.3,6480,NA
26,2,continuous,29,77,trial,10273951.0,10277018.0,3067.0,79,L,10276936,10277210,276,1452.7,560.9,6266,right
26,2,continuous,30,11,trial,10277684.0,10280251.0,2567.0,80,L,10277512,10277686,176,1426.0,459.6,6158,right
26,2,continuous,30,11,trial,10277684.0,10280251.0,2567.0,80,L,10277708,10277902,196,1292.5,480.3,6484,right
26,2,continuous,30,11,trial,10277684.0,10280251.0,2567.0,80,L,10277914,10278034,122,1332.0,469.0,6454,right
26,2,continuous,30,11,trial,10277684.0,10280251.0,2567.0,80,L,10278046,10278198,154,1362.1,453.7,6076,right
26,2,continuous,30,11,trial,10277684.0,10280251.0,2567.0,80,L,10278266,10278744,480,571.3,477.1,5800,left
26,2,continuous,30,11,trial,10277684.0,10280251.0,2567.0,80,L,10278796,10278958,164,639.8,902.4,5988,NA
26,2,continuous,30,11,trial,10277684.0,10280251.0,2567.0,80,L,10279006,10279200,196,453.3,596.6,6034,left
26,2,continuous,30,11,trial,10277684.0,10280251.0,2567.0,80,L,10279218,10279772,556,404.5,646.6,6128,left
26,2,continuous,30,11,trial,10277684.0,10280251.0,2567.0,80,L,10279816,10280156,342,564.9,935.5,6233,NA
26,2,continuous,30,11,trial,10277684.0,10280251.0,2567.0,80,L,10280208,10280498,292,545.2,525.4,6263,left
26,2,continuous,31,37,fixationCross,10280935.0,10284018.0,3083.0,81,L,10280662,10280896,236,566.9,440.9,6364,left
26,2,continuous,31,37,trial,10280935.0,10284018.0,3083.0,81,L,10280906,10281252,348,544.7,447.8,6650,left
26,2,continuous,31,37,trial,10280935.0,10284018.0,3083.0,81,L,10281272,10281418,148,572.4,383.3,6508,left
26,2,continuous,31,37,trial,10280935.0,10284018.0,3083.0,81,L,10281450,10281692,244,457.0,480.8,6373,left
26,2,continuous,31,37,trial,10280935.0,10284018.0,3083.0,81,L,10281778,10281958,182,1484.7,447.5,6218,right
26,2,continuous,31,37,trial,10280935.0,10284018.0,3083.0,81,L,10281972,10282358,388,1471.7,479.6,6143,right
26,2,continuous,31,37,trial,10280935.0,10284018.0,3083.0,81,L,10282390,10282686,298,1627.7,495.8,6322,right
26,2,continuous,31,37,trial,10280935.0,10284018.0,3083.0,81,L,10282720,10282846,128,1421.0,483.9,6427,right
26,2,continuous,31,37,trial,10280935.0,10284018.0,3083.0,81,L,10282922,10283206,286,558.8,518.6,6524,left
26,2,continuous,31,37,trial,10280935.0,10284018.0,3083.0,81,L,10283272,10283502,232,860.9,968.7,6475,likertHorizontal
26,2,continuous,31,37,trial,10280935.0,10284018.0,3083.0,81,L,10283560,10283758,200,719.6,510.4,6398,left
26,2,continuous,31,37,trial,10280935.0,10284018.0,3083.0,81,L,10283820,10284216,398,880.8,953.4,6589,likertHorizontal
26,2,continuous,32,72,fixationCross,10284701.0,10287118.0,2417.0,82,L,10284428,10284570,144,910.0,477.5,6690,NA
26,2,continuous,32,72,trial,10284701.0,10287118.0,2417.0,82,L,10284592,10284854,264,837.9,503.4,6885,NA
26,2,continuous,32,72,trial,10284701.0,10287118.0,2417.0,82,L,10284892,10285028,138,535.5,485.2,6928,left
26,2,continuous,32,72,trial,10284701.0,10287118.0,2417.0,82,L,10285042,10285114,74,505.8,508.0,6753,left
26,2,continuous,32,72,trial,10284701.0,10287118.0,2417.0,82,L,10285190,10285390,202,1404.1,501.3,6384,right
26,2,continuous,32,72,trial,10284701.0,10287118.0,2417.0,82,L,10285418,10285590,174,1541.0,492.7,6383,right
26,2,continuous,32,72,trial,10284701.0,10287118.0,2417.0,82,L,10285604,10285906,304,1567.2,474.5,6639,right
26,2,continuous,32,72,trial,10284701.0,10287118.0,2417.0,82,L,10285988,10286132,146,481.2,500.8,7116,left
26,2,continuous,32,72,trial,10284701.0,10287118.0,2417.0,82,L,10286146,10286482,338,499.3,517.3,7017,left
26,2,continuous,32,72,trial,10284701.0,10287118.0,2417.0,82,L,10286550,10286750,202,1139.1,992.9,6519,likertHorizontal
26,2,continuous,32,72,trial,10284701.0,10287118.0,2417.0,82,L,10286810,10287012,204,1430.2,494.5,6171,right
26,2,continuous,32,72,trial,10284701.0,10287118.0,2417.0,82,L,10287038,10287314,278,1574.0,474.1,6244,right
26,2,continuous,33,17,fixationCross,10287801.0,10289768.0,1967.0,83,L,10287528,10287708,182,1409.5,471.0,6590,right
26,2,continuous,33,17,trial,10287801.0,10289768.0,1967.0,83,L,10287732,10288094,364,1287.2,473.9,6850,right
26,2,continuous,33,17,trial,10287801.0,10289768.0,1967.0,83,L,10288120,10288224,106,1368.0,538.9,6544,right
26,2,continuous,33,17,trial,10287801.0,10289768.0,1967.0,83,L,10288292,10288498,208,595.3,463.3,6219,left
26,2,continuous,33,17,trial,10287801.0,10289768.0,1967.0,83,L,10288532,10288708,178,413.3,536.9,6108,left
26,2,continuous,33,17,trial,10287801.0,10289768.0,1967.0,83,L,10288732,10288894,164,313.7,619.8,6016,left
26,2,continuous,33,17,trial,10287801.0,10289768.0,1967.0,83,L,10288960,10289476,518,675.6,990.6,6060,NA
26,2,continuous,33,17,trial,10287801.0,10289768.0,1967.0,83,L,10289530,10289746,218,619.4,471.0,5904,left
26,2,continuous,33,17,postResponse,10287801.0,10289768.0,1967.0,83,L,10289768,10290104,338,540.5,431.2,5991,left
26,2,continuous,34,40,fixationCross,10290418.0,10296718.0,6300.0,84,L,10290178,10290238,62,540.6,437.0,6144,left
26,2,continuous,34,40,trial,10290418.0,10296718.0,6300.0,84,L,10290284,10290556,274,849.7,448.8,6365,NA
26,2,continuous,34,40,trial,10290418.0,10296718.0,6300.0,84,L,10290604,10290762,160,465.4,481.0,6645,left
26,2,continuous,34,40,trial,10290418.0,10296718.0,6300.0,84,L,10290780,10291108,330,490.5,532.6,6828,left
26,2,continuous,34,40,trial,10290418.0,10296718.0,6300.0,84,L,10291192,10291410,220,1439.5,496.9,6404,right
26,2,continuous,34,40,trial,10290418.0,10296718.0,6300.0,84,L,10291420,10291964,546,1465.6,487.5,6203,right
26,2,continuous,34,40,trial,10290418.0,10296718.0,6300.0,84,L,10292062,10292462,402,1470.5,495.3,6254,right
26,2,continuous,34,40,trial,10290418.0,10296718.0,6300.0,84,L,10292482,10292622,142,1469.0,569.6,6370,right
26,2,continuous,34,40,trial,10290418.0,10296718.0,6300.0,84,L,10292702,10292858,158,549.0,539.0,6381,left
26,2,continuous,34,40,trial,10290418.0,10296718.0,6300.0,84,L,10292870,10293356,488,516.1,528.1,6203,left
26,2,continuous,34,40,trial,10290418.0,10296718.0,6300.0,84,L,10293426,10293700,276,1459.5,477.7,6115,right
26,2,continuous,34,40,trial,10290418.0,10296718.0,6300.0,84,L,10293774,10293948,176,956.2,991.9,6601,likertHorizontal
26,2,continuous,34,40,trial,10290418.0,10296718.0,6300.0,84,L,10293960,10294144,186,976.0,997.8,6764,likertHorizontal
26,2,continuous,34,40,trial,10290418.0,10296718.0,6300.0,84,L,10294212,10294436,226,1405.8,514.9,6616,right
26,2,continuous,34,40,trial,10290418.0,10296718.0,6300.0,84,L,10294508,10294640,134,950.5,901.6,6853,likertHorizontal
26,2,continuous,34,40,trial,10290418.0,10296718.0,6300.0,84,L,10294664,10295302,640,945.0,953.2,7030,likertHorizontal
26,2,continuous,34,40,trial,10290418.0,10296718.0,6300.0,84,L,10295366,10295642,278,516.7,543.0,7118,left
26,2,continuous,34,40,trial,10290418.0,10296718.0,6300.0,84,L,10295710,10296018,310,898.2,933.1,6893,likertHorizontal
26,2,continuous,34,40,trial,10290418.0,10296718.0,6300.0,84,L,10296056,10296590,536,908.5,736.6,7067,likertHorizontal
26,2,continuous,34,40,trial,10290418.0,10296718.0,6300.0,84,L,10296638,10296658,22,938.2,536.6,7037,NA
26,2,continuous,34,40,trial,10290418.0,10296718.0,6300.0,84,L,10296676,10296932,258,940.5,462.6,7357,NA
26,2,continuous,35,72,fixationCross,10297402.0,10300351.0,2949.0,85,L,10297154,10297334,182,927.9,491.1,7492,NA
26,2,continuous,35,72,trial,10297402.0,10300351.0,2949.0,85,L,10297350,10297540,192,871.9,496.4,7540,NA
26,2,continuous,35,72,trial,10297402.0,10300351.0,2949.0,85,L,10297586,10297742,158,510.9,522.4,7302,left
26,2,continuous,35,72,trial,10297402.0,10300351.0,2949.0,85,L,10297820,10298056,238,1424.1,499.9,6424,right
26,2,continuous,35,72,trial,10297402.0,10300351.0,2949.0,85,L,10298076,10298476,402,1484.1,465.7,6105,right
26,2,continuous,35,72,trial,10297402.0,10300351.0,2949.0,85,L,10298548,10298846,300,1115.8,952.1,6714,likertHorizontal
26,2,continuous,35,72,trial,10297402.0,10300351.0,2949.0,85,L,10298908,10299110,204,1367.7,613.3,6641,right
26,2,continuous,35,72,trial,10297402.0,10300351.0,2949.0,85,L,10299166,10299568,404,1178.1,990.9,6924,likertHorizontal
26,2,continuous,35,72,trial,10297402.0,10300351.0,2949.0,85,L,10299584,10299640,58,1166.4,965.8,6952,likertHorizontal
26,2,continuous,35,72,trial,10297402.0,10300351.0,2949.0,85,L,10299700,10299866,168,1454.8,473.0,6630,right
26,2,continuous,35,72,trial,10297402.0,10300351.0,2949.0,85,L,10299878,10300154,278,1478.1,457.2,6518,right
26,2,continuous,35,72,trial,10297402.0,10300351.0,2949.0,85,L,10300222,10300348,128,1226.3,973.4,6690,NA
26,2,continuous,35,72,trial,10297402.0,10300351.0,2949.0,85,L,10300396,10300560,166,1418.3,460.0,6598,right
26,2,continuous,36,24,fixationCross,10301035.0,10304151.0,3116.0,86,L,10300772,10300962,192,1380.8,450.1,6635,right
26,2,continuous,36,24,trial,10301035.0,10304151.0,3116.0,86,L,10300978,10301320,344,1324.1,466.3,6935,right
26,2,continuous,36,24,trial,10301035.0,10304151.0,3116.0,86,L,10301390,10301898,510,484.0,490.3,6766,left
26,2,continuous,36,24,trial,10301035.0,10304151.0,3116.0,86,L,10301920,10302302,384,381.8,537.3,6504,left
26,2,continuous,36,24,trial,10301035.0,10304151.0,3116.0,86,L,10302356,10302524,170,754.5,902.1,6916,likertHorizontal
26,2,continuous,36,24,trial,10301035.0,10304151.0,3116.0,86,L,10302588,10302790,204,1366.7,461.3,6909,right
26,2,continuous,36,24,trial,10301035.0,10304151.0,3116.0,86,L,10302812,10303152,342,1433.0,501.3,6921,right
26,2,continuous,36,24,trial,10301035.0,10304151.0,3116.0,86,L,10303232,10303560,330,526.6,493.8,6975,left
26,2,continuous,36,24,trial,10301035.0,10304151.0,3116.0,86,L,10303622,10303878,258,695.1,956.1,6850,NA
26,2,continuous,36,24,trial,10301035.0,10304151.0,3116.0,86,L,10303944,10304340,398,539.8,480.3,6504,left
26,2,continuous,37,46,fixationCross,10304835.0,10308052.0,3217.0,87,L,10304562,10304752,192,470.3,454.0,6454,left
26,2,continuous,37,46,trial,10304835.0,10308052.0,3217.0,87,L,10304764,10305184,422,502.6,467.8,6643,left
26,2,continuous,37,46,trial,10304835.0,10308052.0,3217.0,87,L,10305204,10305348,146,573.0,434.6,6348,left
26,2,continuous,37,46,trial,10304835.0,10308052.0,3217.0,87,L,10305382,10305530,150,392.6,488.5,6335,left
26,2,continuous,37,46,trial,10304835.0,10308052.0,3217.0,87,L,10305542,10305710,170,421.1,479.1,6459,left
26,2,continuous,37,46,trial,10304835.0,10308052.0,3217.0,87,L,10305794,10306006,214,1414.5,503.4,6488,right
26,2,continuous,37,46,trial,10304835.0,10308052.0,3217.0,87,L,10306040,10306408,370,1581.0,470.4,6273,right
26,2,continuous,37,46,trial,10304835.0,10308052.0,3217.0,87,L,10306420,10306654,236,1546.4,465.2,6171,right
26,2,continuous,37,46,trial,10304835.0,10308052.0,3217.0,87,L,10306736,10306938,204,481.4,458.3,6612,left
26,2,continuous,37,46,trial,10304835.0,10308052.0,3217.0,87,L,10306958,10307144,188,418.6,473.7,6675,left
26,2,continuous,37,46,trial,10304835.0,10308052.0,3217.0,87,L,10307196,10307358,164,818.2,910.2,6834,likertHorizontal
26,2,continuous,37,46,trial,10304835.0,10308052.0,3217.0,87,L,10307386,10307664,280,886.1,976.0,6833,likertHorizontal
26,2,continuous,37,46,trial,10304835.0,10308052.0,3217.0,87,L,10307678,10308218,542,940.0,986.8,6791,likertHorizontal
26,2,continuous,38,5,trial,10308752.0,10311202.0,2450.0,88,L,10308488,10308868,382,915.4,439.9,6844,NA
26,2,continuous,38,5,trial,10308752.0,10311202.0,2450.0,88,L,10308916,10309056,142,490.9,475.2,6788,left
26,2,continuous,38,5,trial,10308752.0,10311202.0,2450.0,88,L,10309080,10309350,272,384.8,475.5,6367,left
26,2,continuous,38,5,trial,10308752.0,10311202.0,2450.0,88,L,10309430,10309662,234,1417.8,498.5,5878,right
26,2,continuous,38,5,trial,10308752.0,10311202.0,2450.0,88,L,10309678,10309800,124,1454.7,527.8,5874,right
26,2,continuous,38,5,trial,10308752.0,10311202.0,2450.0,88,L,10309882,10310114,234,388.8,456.9,5914,left
26,2,continuous,38,5,trial,10308752.0,10311202.0,2450.0,88,L,10310178,10310496,320,595.7,987.4,6195,NA
26,2,continuous,38,5,trial,10308752.0,10311202.0,2450.0,88,L,10310560,10310736,178,402.2,485.3,6297,left
26,2,continuous,38,5,trial,10308752.0,10311202.0,2450.0,88,L,10310804,10310914,112,517.5,1037.1,6398,NA
26,2,continuous,38,5,trial,10308752.0,10311202.0,2450.0,88,L,10310930,10311250,322,525.1,1000.9,6361,NA
26,2,continuous,38,5,trial,10308752.0,10311202.0,2450.0,88,L,10311300,10311448,150,411.1,467.3,6163,left
26,2,continuous,39,23,fixationCross,10311901.0,10314301.0,2400.0,89,L,10311636,10311812,178,576.7,431.1,6383,left
26,2,continuous,39,23,trial,10311901.0,10314301.0,2400.0,89,L,10311830,10312088,260,502.8,464.9,6708,left
26,2,continuous,39,23,trial,10311901.0,10314301.0,2400.0,89,L,10312122,10312184,64,346.7,496.5,6811,left
26,2,continuous,39,23,trial,10311901.0,10314301.0,2400.0,89,L,10312268,10312510,244,1411.9,509.2,6278,right
26,2,continuous,39,23,trial,10311901.0,10314301.0,2400.0,89,L,10312526,10312764,240,1448.4,539.7,5984,right
26,2,continuous,39,23,trial,10311901.0,10314301.0,2400.0,89,L,10312774,10312816,44,1473.2,515.1,5981,right
26,2,continuous,39,23,trial,10311901.0,10314301.0,2400.0,89,L,10312884,10313452,570,566.1,525.0,6187,left
26,2,continuous,39,23,trial,10311901.0,10314301.0,2400.0,89,L,10313510,10313962,454,844.1,960.5,6167,likertHorizontal
26,2,continuous,39,23,trial,10311901.0,10314301.0,2400.0,89,L,10313980,10314178,200,711.2,968.4,6408,NA
26,2,continuous,39,23,trial,10311901.0,10314301.0,2400.0,89,L,10314236,10314466,232,624.3,457.7,6504,left
26,2,continuous,39,23,postResponse,10311901.0,10314301.0,2400.0,89,L,10314606,10314638,34,566.9,479.7,6529,left
26,2,continuous,40,100,fixationCross,10314985.0,10317469.0,2484.0,90,L,10314712,10314856,146,562.2,482.1,6504,left
26,2,continuous,40,100,trial,10314985.0,10317469.0,2484.0,90,L,10314868,10315364,498,519.1,474.5,6619,left
26,2,continuous,40,100,trial,10314985.0,10317469.0,2484.0,90,L,10315440,10315772,334,1464.7,489.2,6117,right
26,2,continuous,40,100,trial,10314985.0,10317469.0,2484.0,90,L,10315798,10316142,346,1299.4,498.3,6344,right
26,2,continuous,40,100,trial,10314985.0,10317469.0,2484.0,90,L,10316202,10316558,358,1168.2,930.4,6912,likertHorizontal
26,2,continuous,40,100,trial,10314985.0,10317469.0,2484.0,90,L,10316588,10316858,272,1316.1,1012.4,6977,NA
26,2,continuous,40,100,trial,10314985.0,10317469.0,2484.0,90,L,10316916,10317234,320,1466.3,498.2,6702,right
26,2,continuous,40,100,trial,10314985.0,10317469.0,2484.0,90,L,10317304,10317378,76,1440.2,1124.9,6739,NA
26,2,continuous,40,100,trial,10314985.0,10317469.0,2484.0,90,L,10317402,10317634,234,1461.2,1053.5,6613,NA
26,2,continuous,41,51,fixationCross,10318168.0,10320485.0,2317.0,91,L,10317904,10317960,58,1417.0,417.8,6427,right
26,2,continuous,41,51,trial,10318168.0,10320485.0,2317.0,91,L,10317978,10318408,432,1335.8,450.9,6773,right
26,2,continuous,41,51,trial,10318168.0,10320485.0,2317.0,91,L,10318428,10318558,132,1377.7,509.7,6713,right
26,2,continuous,41,51,trial,10318168.0,10320485.0,2317.0,91,L,10318626,10319154,530,579.8,473.7,6211,left
26,2,continuous,41,51,trial,10318168.0,10320485.0,2317.0,91,L,10319210,10319402,194,858.0,921.6,6049,likertHorizontal
26,2,continuous,41,51,trial,10318168.0,10320485.0,2317.0,91,L,10319422,10320388,968,980.7,977.8,6498,likertHorizontal
26,2,continuous,41,51,trial,10318168.0,10320485.0,2317.0,91,L,10320436,10320666,232,1079.5,686.8,6634,NA
26,2,continuous,42,30,trial,10321201.0,10324868.0,3667.0,92,L,10320922,10321370,450,896.7,463.1,6896,NA
26,2,continuous,42,30,trial,10321201.0,10324868.0,3667.0,92,L,10321428,10321676,250,397.8,491.2,6782,left
26,2,continuous,42,30,trial,10321201.0,10324868.0,3667.0,92,L,10321688,10321788,102,391.9,466.0,6516,left
26,2,continuous,42,30,trial,10321201.0,10324868.0,3667.0,92,L,10321804,10322062,260,393.2,433.5,6178,left
