participantNo,block,task,blockTrial,response,trialStage,trialStartTime,trialFinishTime,rt,trial,eye,fixStart,fixEnd,fixLength,fixPosX,fixPosY,dilation,aoi
13,1,continuous,1,96,fixationCross,12937784.0,12940151.0,2367.0,1,R,12936973,12937069,98,1094.6,887.3,4413,likertHorizontal
13,1,continuous,1,96,fixationCross,12937784.0,12940151.0,2367.0,1,R,12937093,12937257,166,971.9,883.8,4330,likertHorizontal
13,1,continuous,1,96,fixationCross,12937784.0,12940151.0,2367.0,1,R,12937315,12937369,56,916.6,456.6,4189,NA
13,1,continuous,1,96,fixationCross,12937784.0,12940151.0,2367.0,1,R,12937541,12937655,116,982.6,583.4,4140,NA
13,1,continuous,1,96,trial,12937784.0,12940151.0,2367.0,1,R,12937667,12937931,266,966.8,557.6,4236,NA
13,1,continuous,1,96,trial,12937784.0,12940151.0,2367.0,1,R,12937977,12938123,148,605.1,511.7,4263,left
13,1,continuous,1,96,trial,12937784.0,12940151.0,2367.0,1,R,12938173,12938293,122,646.3,928.0,3870,NA
13,1,continuous,1,96,trial,12937784.0,12940151.0,2367.0,1,R,12938329,12938473,146,947.6,989.4,3657,likertHorizontal
13,1,continuous,1,96,trial,12937784.0,12940151.0,2367.0,1,R,12938519,12938673,156,531.7,971.5,3600,NA
13,1,continuous,1,96,trial,12937784.0,12940151.0,2367.0,1,R,12938721,12938913,194,495.1,606.7,3636,left
13,1,continuous,1,96,trial,12937784.0,12940151.0,2367.0,1,R,12938981,12939303,324,1420.7,555.6,3586,right
13,1,continuous,1,96,trial,12937784.0,12940151.0,2367.0,1,R,12939379,12939579,202,476.6,583.3,3587,left
13,1,continuous,1,96,trial,12937784.0,12940151.0,2367.0,1,R,12939657,12939839,184,1438.6,1000.8,3393,NA
13,1,continuous,1,96,trial,12937784.0,12940151.0,2367.0,1,R,12939855,12940377,524,1393.2,973.2,3529,NA
13,1,continuous,2,3,fixationCross,12941335.0,12943118.0,1783.0,2,R,12940589,12940825,238,1245.0,551.0,3812,right
13,1,continuous,2,3,fixationCross,12941335.0,12943118.0,1783.0,2,R,12940867,12941029,164,1024.1,641.4,4196,NA
13,1,continuous,2,3,trial,12941335.0,12943118.0,1783.0,2,R,12941053,12941487,436,979.2,558.4,4309,NA
13,1,continuous,2,3,trial,12941335.0,12943118.0,1783.0,2,R,12941533,12941757,226,634.8,583.0,4117,left
13,1,continuous,2,3,trial,12941335.0,12943118.0,1783.0,2,R,12941783,12941883,102,449.1,592.2,3743,left
13,1,continuous,2,3,trial,12941335.0,12943118.0,1783.0,2,R,12941953,12942137,186,1379.1,527.2,3518,right
13,1,continuous,2,3,trial,12941335.0,12943118.0,1783.0,2,R,12942205,12942361,158,632.5,956.7,3494,NA
13,1,continuous,2,3,trial,12941335.0,12943118.0,1783.0,2,R,12942391,12942579,190,471.3,996.5,3543,NA
13,1,continuous,2,3,trial,12941335.0,12943118.0,1783.0,2,R,12942745,12942887,144,556.1,635.5,3537,left
13,1,continuous,2,3,trial,12941335.0,12943118.0,1783.0,2,R,12942933,12943371,440,502.8,956.5,3798,NA
13,1,continuous,2,3,postResponse,12941335.0,12943118.0,1783.0,2,R,12943403,12943479,78,689.4,841.5,3702,NA
13,1,continuous,3,100,fixationCross,12944201.0,12945501.0,1300.0,3,R,12943553,12943615,64,685.7,838.1,3663,NA
13,1,continuous,3,100,fixationCross,12944201.0,12945501.0,1300.0,3,R,12943659,12943889,232,644.0,552.9,3797,left
13,1,continuous,3,100,trial,12944201.0,12945501.0,1300.0,3,R,12943927,12944273,348,966.6,580.4,4055,NA
13,1,continuous,3,100,trial,12944201.0,12945501.0,1300.0,3,R,12944309,12944415,108,775.7,551.2,4237,NA
13,1,continuous,3,100,trial,12944201.0,12945501.0,1300.0,3,R,12944453,12944601,150,548.6,588.9,4114,left
13,1,continuous,3,100,trial,12944201.0,12945501.0,1300.0,3,R,12944663,12944841,180,1307.4,537.9,3680,right
13,1,continuous,3,100,trial,12944201.0,12945501.0,1300.0,3,R,12944873,12944993,122,1551.2,492.1,3541,right
13,1,continuous,3,100,trial,12944201.0,12945501.0,1300.0,3,R,12945009,12945259,252,1608.8,456.2,3482,right
13,1,continuous,3,100,trial,12944201.0,12945501.0,1300.0,3,R,12945319,12945471,154,1414.7,904.2,3567,NA
13,1,continuous,3,100,trial,12944201.0,12945501.0,1300.0,3,R,12945489,12945743,256,1445.4,963.1,3679,NA
13,1,continuous,4,93,fixationCross,12946735.0,12948168.0,1433.0,4,R,12945993,12946431,440,843.8,638.9,4122,NA
13,1,continuous,4,93,fixationCross,12946735.0,12948168.0,1433.0,4,R,12946455,12946677,224,894.5,554.2,4167,NA
13,1,continuous,4,93,trial,12946735.0,12948168.0,1433.0,4,R,12946695,12946883,190,926.4,502.0,4053,NA
13,1,continuous,4,93,trial,12946735.0,12948168.0,1433.0,4,R,12946925,12947117,194,611.1,549.0,4080,left
13,1,continuous,4,93,trial,12946735.0,12948168.0,1433.0,4,R,12947181,12947705,526,1422.4,546.8,3643,right
13,1,continuous,4,93,trial,12946735.0,12948168.0,1433.0,4,R,12947759,12948127,370,1397.9,966.5,3704,NA
13,1,continuous,4,93,trial,12946735.0,12948168.0,1433.0,4,R,12948175,12948453,280,1373.4,559.5,3830,right
13,1,continuous,5,96,fixationCross,12950018.0,12951384.0,1366.0,5,R,12948641,12948819,180,953.2,598.1,4000,NA
13,1,continuous,5,96,fixationCross,12950018.0,12951384.0,1366.0,5,R,12948857,12949427,572,711.9,521.0,4252,left
13,1,continuous,5,96,fixationCross,12950018.0,12951384.0,1366.0,5,R,12949447,12949719,274,792.1,512.4,4205,NA
13,1,continuous,5,96,fixationCross,12950018.0,12951384.0,1366.0,5,R,12949745,12949905,162,935.4,528.7,4272,NA
13,1,continuous,5,96,trial,12950018.0,12951384.0,1366.0,5,R,12949919,12950159,242,963.5,554.7,4331,NA
13,1,continuous,5,96,trial,12950018.0,12951384.0,1366.0,5,R,12950209,12950369,162,577.5,549.3,4273,left
13,1,continuous,5,96,trial,12950018.0,12951384.0,1366.0,5,R,12950391,12950485,96,485.4,601.5,3947,left
13,1,continuous,5,96,trial,12950018.0,12951384.0,1366.0,5,R,12950553,12950755,204,1386.0,545.3,3678,right
13,1,continuous,5,96,trial,12950018.0,12951384.0,1366.0,5,R,12950773,12950977,206,1433.3,583.6,3519,right
13,1,continuous,5,96,trial,12950018.0,12951384.0,1366.0,5,R,12951033,12951285,254,1422.9,903.5,3414,NA
13,1,continuous,5,96,trial,12950018.0,12951384.0,1366.0,5,R,12951303,12951567,266,1434.3,980.2,3429,NA
13,1,continuous,6,3,trial,12952317.0,12953385.0,1068.0,6,R,12951839,12952401,564,951.4,582.5,3895,NA
13,1,continuous,6,3,trial,12952317.0,12953385.0,1068.0,6,R,12952423,12952507,86,890.0,568.9,3934,NA
13,1,continuous,6,3,trial,12952317.0,12953385.0,1068.0,6,R,12952551,12952833,284,511.4,598.1,3714,left
13,1,continuous,6,3,trial,12952317.0,12953385.0,1068.0,6,R,12952907,12953239,334,1399.3,540.9,3366,right
13,1,continuous,6,3,trial,12952317.0,12953385.0,1068.0,6,R,12953317,12953609,294,567.9,864.3,3332,NA
13,1,continuous,7,100,fixationCross,12955351.0,12956251.0,900.0,7,R,12953835,12954033,200,1011.8,475.2,3562,NA
13,1,continuous,7,100,fixationCross,12955351.0,12956251.0,900.0,7,R,12954083,12954467,386,653.8,558.9,3999,left
13,1,continuous,7,100,fixationCross,12955351.0,12956251.0,900.0,7,R,12954501,12955109,610,810.1,524.0,3871,NA
13,1,continuous,7,100,fixationCross,12955351.0,12956251.0,900.0,7,R,12955131,12955321,192,931.5,542.4,4083,NA
13,1,continuous,7,100,trial,12955351.0,12956251.0,900.0,7,R,12955333,12955491,160,962.5,558.6,4152,NA
13,1,continuous,7,100,trial,12955351.0,12956251.0,900.0,7,R,12955541,12955667,128,515.2,554.1,4240,left
13,1,continuous,7,100,trial,12955351.0,12956251.0,900.0,7,R,12955733,12955953,222,1384.5,521.0,3619,right
13,1,continuous,7,100,trial,12955351.0,12956251.0,900.0,7,R,12955973,12956323,352,1483.2,500.4,3373,right
13,1,continuous,7,100,trial,12955351.0,12956251.0,900.0,7,R,12956345,12956457,114,1465.3,587.6,3457,right
13,1,continuous,8,7,fixationCross,12957418.0,12958834.0,1416.0,8,R,12956685,12956823,140,1202.9,636.0,3732,right
13,1,continuous,8,7,fixationCross,12957418.0,12958834.0,1416.0,8,R,12956881,12957133,254,787.2,559.7,4069,NA
13,1,continuous,8,7,trial,12957418.0,12958834.0,1416.0,8,R,12957159,12957549,392,929.9,554.1,4120,NA
13,1,continuous,8,7,trial,12957418.0,12958834.0,1416.0,8,R,12957593,12957823,232,541.9,569.2,3956,left
13,1,continuous,8,7,trial,12957418.0,12958834.0,1416.0,8,R,12957845,12958177,334,501.0,642.9,3599,left
13,1,continuous,8,7,trial,12957418.0,12958834.0,1416.0,8,R,12958225,12958767,544,663.8,926.3,3734,NA
13,1,continuous,8,7,trial,12957418.0,12958834.0,1416.0,8,R,12958799,12959035,238,521.5,926.5,4023,NA
13,1,continuous,9,98,fixationCross,12959784.0,12961451.0,1667.0,9,R,12959297,12959683,388,1050.4,550.8,4094,NA
13,1,continuous,9,98,trial,12959784.0,12961451.0,1667.0,9,R,12959701,12959919,220,964.0,557.2,4337,NA
13,1,continuous,9,98,trial,12959784.0,12961451.0,1667.0,9,R,12959969,12960247,280,519.8,563.0,3981,left
13,1,continuous,9,98,trial,12959784.0,12961451.0,1667.0,9,R,12960319,12960621,304,1442.3,555.6,3440,right
13,1,continuous,9,98,trial,12959784.0,12961451.0,1667.0,9,R,12960641,12961087,448,1462.5,512.6,3358,right
13,1,continuous,9,98,trial,12959784.0,12961451.0,1667.0,9,R,12961141,12961287,148,1357.9,899.8,3520,NA
13,1,continuous,9,98,trial,12959784.0,12961451.0,1667.0,9,R,12961309,12961393,86,1437.9,973.5,3629,NA
13,1,continuous,9,98,trial,12959784.0,12961451.0,1667.0,9,R,12961469,12961673,206,533.5,604.1,3871,left
13,1,continuous,10,95,fixationCross,12962351.0,12963418.0,1067.0,10,R,12961885,12962043,160,1249.1,595.4,3658,right
13,1,continuous,10,95,fixationCross,12962351.0,12963418.0,1067.0,10,R,12962087,12962323,238,986.5,615.0,3884,NA
13,1,continuous,10,95,trial,12962351.0,12963418.0,1067.0,10,R,12962347,12962509,164,904.5,535.9,4034,NA
13,1,continuous,10,95,trial,12962351.0,12963418.0,1067.0,10,R,12962555,12962811,258,517.2,608.5,3890,left
13,1,continuous,10,95,trial,12962351.0,12963418.0,1067.0,10,R,12962873,12963133,262,1337.1,552.7,3555,right
13,1,continuous,10,95,trial,12962351.0,12963418.0,1067.0,10,R,12963153,12963707,556,1387.2,590.7,3444,right
13,1,continuous,11,93,fixationCross,12965651.0,12967401.0,1750.0,11,R,12963903,12964461,560,808.1,551.9,3918,NA
13,1,continuous,11,93,fixationCross,12965651.0,12967401.0,1750.0,11,R,12964487,12965095,610,617.9,545.8,3944,left
13,1,continuous,11,93,fixationCross,12965651.0,12967401.0,1750.0,11,R,12965119,12965343,226,771.3,536.2,4030,NA
13,1,continuous,11,93,trial,12965651.0,12967401.0,1750.0,11,R,12965367,12965727,362,889.9,543.3,4041,NA
13,1,continuous,11,93,trial,12965651.0,12967401.0,1750.0,11,R,12965769,12965937,170,635.7,568.8,4190,left
13,1,continuous,11,93,trial,12965651.0,12967401.0,1750.0,11,R,12965959,12966129,172,515.2,609.0,3903,left
13,1,continuous,11,93,trial,12965651.0,12967401.0,1750.0,11,R,12966193,12966627,436,1328.4,555.6,3488,right
13,1,continuous,11,93,trial,12965651.0,12967401.0,1750.0,11,R,12966649,12966777,130,1420.7,599.4,3603,right
13,1,continuous,11,93,trial,12965651.0,12967401.0,1750.0,11,R,12966841,12967029,190,1281.7,971.8,3915,NA
13,1,continuous,11,93,trial,12965651.0,12967401.0,1750.0,11,R,12967053,12967381,330,1409.3,987.6,3996,NA
13,1,continuous,11,93,trial,12965651.0,12967401.0,1750.0,11,R,12967431,12967667,238,1355.3,548.4,3869,right
13,1,continuous,12,98,fixationCross,12968318.0,12969268.0,950.0,12,R,12967873,12968211,340,1045.0,522.2,4095,NA
13,1,continuous,12,98,trial,12968318.0,12969268.0,950.0,12,R,12968233,12968447,216,938.9,549.7,4260,NA
13,1,continuous,12,98,trial,12968318.0,12969268.0,950.0,12,R,12968493,12968781,290,537.0,558.1,3947,left
13,1,continuous,12,98,trial,12968318.0,12969268.0,950.0,12,R,12968845,12969101,258,1374.2,547.8,3643,right
13,1,continuous,12,98,trial,12968318.0,12969268.0,950.0,12,R,12969125,12969565,442,1454.1,592.4,3637,right
13,1,continuous,13,6,trial,12970168.0,12971318.0,1150.0,13,R,12969759,12970173,416,993.0,507.3,3829,NA
13,1,continuous,13,6,trial,12970168.0,12971318.0,1150.0,13,R,12970227,12970379,154,594.2,558.5,4165,left
13,1,continuous,13,6,trial,12970168.0,12971318.0,1150.0,13,R,12970409,12970583,176,453.7,533.4,3958,left
13,1,continuous,13,6,trial,12970168.0,12971318.0,1150.0,13,R,12970653,12970819,168,1373.0,567.6,3516,right
13,1,continuous,13,6,trial,12970168.0,12971318.0,1150.0,13,R,12970841,12971009,170,1432.1,583.1,3404,right
13,1,continuous,13,6,trial,12970168.0,12971318.0,1150.0,13,R,12971081,12971217,138,667.1,924.2,3478,NA
13,1,continuous,13,6,postResponse,12970168.0,12971318.0,1150.0,13,R,12971271,12971675,406,478.8,522.1,3430,left
13,1,continuous,14,1,trial,12972252.0,12973552.0,1300.0,14,R,12971799,12972383,586,931.9,587.7,3772,NA
13,1,continuous,14,1,trial,12972252.0,12973552.0,1300.0,14,R,12972431,12972615,186,521.3,543.7,3884,left
13,1,continuous,14,1,trial,12972252.0,12973552.0,1300.0,14,R,12972685,12972799,116,1390.5,554.1,3566,right
13,1,continuous,14,1,trial,12972252.0,12973552.0,1300.0,14,R,12972895,12973067,174,1437.8,556.2,3454,right
13,1,continuous,14,1,trial,12972252.0,12973552.0,1300.0,14,R,12973145,12973387,244,479.2,644.3,3683,left
13,1,continuous,14,1,trial,12972252.0,12973552.0,1300.0,14,R,12973431,12973767,338,544.0,911.5,3786,NA
13,1,continuous,15,10,fixationCross,12975735.0,12976785.0,1050.0,15,R,12974001,12974261,262,880.4,573.0,3763,NA
13,1,continuous,15,10,fixationCross,12975735.0,12976785.0,1050.0,15,R,12974299,12974941,644,645.9,530.2,3948,left
13,1,continuous,15,10,fixationCross,12975735.0,12976785.0,1050.0,15,R,12974959,12975463,506,713.9,528.5,3981,left
13,1,continuous,15,10,trial,12975735.0,12976785.0,1050.0,15,R,12975489,12975781,294,865.1,564.2,4269,NA
13,1,continuous,15,10,trial,12975735.0,12976785.0,1050.0,15,R,12975803,12975901,100,973.6,574.0,4323,NA
13,1,continuous,15,10,trial,12975735.0,12976785.0,1050.0,15,R,12975949,12976179,232,569.3,566.9,4157,left
13,1,continuous,15,10,trial,12975735.0,12976785.0,1050.0,15,R,12976197,12976547,352,512.1,603.8,3728,left
13,1,continuous,15,10,trial,12975735.0,12976785.0,1050.0,15,R,12976613,12976755,144,1345.4,532.7,3655,right
13,1,continuous,15,10,trial,12975735.0,12976785.0,1050.0,15,R,12976777,12976965,190,1435.0,480.5,3713,right
13,1,continuous,16,13,fixationCross,12977684.0,12978802.0,1118.0,16,R,12977195,12977529,336,1055.7,543.6,3921,NA
13,1,continuous,16,13,trial,12977684.0,12978802.0,1118.0,16,R,12977551,12977757,208,938.3,557.3,4142,NA
13,1,continuous,16,13,trial,12977684.0,12978802.0,1118.0,16,R,12977807,12977969,164,669.0,530.5,4004,left
13,1,continuous,16,13,trial,12977684.0,12978802.0,1118.0,16,R,12978005,12978199,196,518.5,574.1,3710,left
13,1,continuous,16,13,trial,12977684.0,12978802.0,1118.0,16,R,12978263,12978555,294,1312.9,544.3,3289,right
13,1,continuous,16,13,trial,12977684.0,12978802.0,1118.0,16,R,12978579,12978701,124,1412.3,554.6,3196,right
13,1,continuous,16,13,postResponse,12977684.0,12978802.0,1118.0,16,R,12978779,12979135,358,619.4,840.4,3541,NA
13,1,continuous,17,100,fixationCross,12979718.0,12980518.0,800.0,17,R,12979407,12979617,212,1008.0,514.9,3878,NA
13,1,continuous,17,100,trial,12979718.0,12980518.0,800.0,17,R,12979641,12979845,206,922.7,536.9,4150,NA
13,1,continuous,17,100,trial,12979718.0,12980518.0,800.0,17,R,12979889,12980059,172,546.7,550.4,4099,left
13,1,continuous,17,100,trial,12979718.0,12980518.0,800.0,17,R,12980123,12980393,272,1397.1,572.7,3532,right
13,1,continuous,17,100,postResponse,12979718.0,12980518.0,800.0,17,R,12980415,12980863,450,1491.6,574.2,3393,right
13,1,continuous,18,99,fixationCross,12981452.0,12982901.0,1449.0,18,R,12980965,12981055,92,1487.8,579.8,3280,right
13,1,continuous,18,99,trial,12981452.0,12982901.0,1449.0,18,R,12981119,12981517,400,921.6,563.7,3633,NA
13,1,continuous,18,99,trial,12981452.0,12982901.0,1449.0,18,R,12981557,12981715,160,643.1,546.5,3861,left
13,1,continuous,18,99,trial,12981452.0,12982901.0,1449.0,18,R,12981739,12981817,80,552.9,592.8,3834,left
13,1,continuous,18,99,trial,12981452.0,12982901.0,1449.0,18,R,12981881,12982161,282,1407.8,573.7,3377,right
13,1,continuous,18,99,trial,12981452.0,12982901.0,1449.0,18,R,12982175,12982389,216,1449.8,575.9,3138,right
13,1,continuous,18,99,trial,12981452.0,12982901.0,1449.0,18,R,12982443,12982881,440,1367.5,953.2,3345,NA
13,1,continuous,18,99,trial,12981452.0,12982901.0,1449.0,18,R,12982955,12983195,242,496.9,586.2,3705,left
13,1,continuous,19,6,fixationCross,12985185.0,12986251.0,1066.0,19,R,12983375,12983553,180,1234.2,648.2,3619,right
13,1,continuous,19,6,fixationCross,12985185.0,12986251.0,1066.0,19,R,12983605,12983851,248,786.5,593.9,3964,NA
13,1,continuous,19,6,fixationCross,12985185.0,12986251.0,1066.0,19,R,12983889,12984667,780,567.0,537.8,3959,left
13,1,continuous,19,6,fixationCross,12985185.0,12986251.0,1066.0,19,R,12984705,12984937,234,848.7,552.7,3963,NA
13,1,continuous,19,6,trial,12985185.0,12986251.0,1066.0,19,R,12984959,12985339,382,937.0,567.1,4106,NA
13,1,continuous,19,6,trial,12985185.0,12986251.0,1066.0,19,R,12985391,12985869,480,555.3,564.5,3896,left
13,1,continuous,19,6,trial,12985185.0,12986251.0,1066.0,19,R,12985931,12986155,226,1312.7,558.6,3547,right
13,1,continuous,19,6,trial,12985185.0,12986251.0,1066.0,19,R,12986175,12986443,270,1374.2,496.8,3532,right
13,1,continuous,20,16,fixationCross,12987318.0,12989018.0,1700.0,20,R,12986675,12987003,330,630.3,854.9,3690,NA
13,1,continuous,20,16,trial,12987318.0,12989018.0,1700.0,20,R,12987049,12987339,292,942.5,573.6,3986,NA
13,1,continuous,20,16,trial,12987318.0,12989018.0,1700.0,20,R,12987375,12987503,130,684.1,585.4,3967,left
13,1,continuous,20,16,trial,12987318.0,12989018.0,1700.0,20,R,12987529,12987681,154,519.9,582.6,3951,left
13,1,continuous,20,16,trial,12987318.0,12989018.0,1700.0,20,R,12987749,12988053,306,1389.1,559.6,3550,right
13,1,continuous,20,16,trial,12987318.0,12989018.0,1700.0,20,R,12988073,12988159,88,1451.7,586.5,3464,right
13,1,continuous,20,16,trial,12987318.0,12989018.0,1700.0,20,R,12988239,12988431,194,474.3,651.5,3667,left
13,1,continuous,20,16,trial,12987318.0,12989018.0,1700.0,20,R,12988451,12988561,112,561.2,650.5,3732,left
13,1,continuous,20,16,trial,12987318.0,12989018.0,1700.0,20,R,12988573,12988787,216,562.5,627.2,3743,left
13,1,continuous,20,16,trial,12987318.0,12989018.0,1700.0,20,R,12988831,12989245,416,574.9,900.4,3779,NA
13,1,continuous,21,1,fixationCross,12990585.0,12991619.0,1034.0,21,R,12989481,12989659,180,1058.3,582.6,3932,NA
13,1,continuous,21,1,fixationCross,12990585.0,12991619.0,1034.0,21,R,12989709,12990113,406,704.0,621.1,4261,left
13,1,continuous,21,1,fixationCross,12990585.0,12991619.0,1034.0,21,R,12990139,12990317,180,551.7,598.0,4117,left
13,1,continuous,21,1,fixationCross,12990585.0,12991619.0,1034.0,21,R,12990355,12990563,210,886.8,575.7,4029,NA
13,1,continuous,21,1,trial,12990585.0,12991619.0,1034.0,21,R,12990577,12990735,160,934.9,600.5,4029,NA
13,1,continuous,21,1,trial,12990585.0,12991619.0,1034.0,21,R,12990783,12990881,100,463.4,638.7,4072,left
13,1,continuous,21,1,trial,12990585.0,12991619.0,1034.0,21,R,12990899,12991103,206,414.6,584.3,3815,left
13,1,continuous,21,1,trial,12990585.0,12991619.0,1034.0,21,R,12991175,12991371,198,1381.2,451.5,3480,right
13,1,continuous,21,1,trial,12990585.0,12991619.0,1034.0,21,R,12991385,12991649,266,1420.6,433.7,3461,right
13,1,continuous,21,1,postResponse,12990585.0,12991619.0,1034.0,21,R,12991733,12991945,214,546.0,797.3,3781,NA
13,1,continuous,22,100,trial,12992518.0,12993535.0,1017.0,22,R,12992183,12992605,424,931.4,578.9,4051,NA
13,1,continuous,22,100,trial,12992518.0,12993535.0,1017.0,22,R,12992651,12992803,154,593.2,575.1,4177,left
13,1,continuous,22,100,trial,12992518.0,12993535.0,1017.0,22,R,12992863,12993131,270,1346.5,550.0,3570,right
13,1,continuous,22,100,trial,12992518.0,12993535.0,1017.0,22,R,12993151,12993363,214,1417.9,575.6,3323,right
13,1,continuous,22,100,trial,12992518.0,12993535.0,1017.0,22,R,12993413,12993805,394,1418.5,957.3,3382,NA
13,1,continuous,23,93,fixationCross,12994619.0,12995551.0,932.0,23,R,12994009,12994299,292,819.3,699.5,3783,NA
13,1,continuous,23,93,fixationCross,12994619.0,12995551.0,932.0,23,R,12994323,12994523,202,917.0,605.9,4096,NA
13,1,continuous,23,93,trial,12994619.0,12995551.0,932.0,23,R,12994553,12994759,208,730.6,546.1,4022,left
13,1,continuous,23,93,trial,12994619.0,12995551.0,932.0,23,R,12994793,12994933,142,527.2,565.5,3973,left
13,1,continuous,23,93,trial,12994619.0,12995551.0,932.0,23,R,12994997,12995425,430,1344.2,557.2,3510,right
13,1,continuous,23,93,trial,12994619.0,12995551.0,932.0,23,R,12995451,12995765,316,1530.9,522.1,3432,right
13,1,continuous,24,1,fixationCross,12997535.0,12998901.0,1366.0,24,R,12996031,12996421,392,934.6,638.7,3774,NA
13,1,continuous,24,1,fixationCross,12997535.0,12998901.0,1366.0,24,R,12996467,12996981,516,625.7,535.4,3922,left
13,1,continuous,24,1,fixationCross,12997535.0,12998901.0,1366.0,24,R,12996997,12997225,230,550.0,517.1,3812,left
13,1,continuous,24,1,fixationCross,12997535.0,12998901.0,1366.0,24,R,12997265,12997481,218,858.2,540.6,3897,NA
13,1,continuous,24,1,trial,12997535.0,12998901.0,1366.0,24,R,12997503,12997671,170,942.5,568.5,4035,NA
13,1,continuous,24,1,trial,12997535.0,12998901.0,1366.0,24,R,12997717,12997911,196,552.0,564.9,4071,left
13,1,continuous,24,1,trial,12997535.0,12998901.0,1366.0,24,R,12997973,12998183,212,1301.5,560.6,3618,right
13,1,continuous,24,1,trial,12997535.0,12998901.0,1366.0,24,R,12998207,12998433,228,1466.2,564.9,3537,right
13,1,continuous,24,1,trial,12997535.0,12998901.0,1366.0,24,R,12998503,12998621,120,577.5,541.6,3667,left
13,1,continuous,24,1,trial,12997535.0,12998901.0,1366.0,24,R,12998635,12999101,468,540.4,511.6,3615,left
13,1,continuous,25,4,fixationCross,13001751.0,13003102.0,1351.0,25,R,12999355,12999615,262,1166.8,562.1,3656,NA
13,1,continuous,25,4,fixationCross,13001751.0,13003102.0,1351.0,25,R,12999663,12999893,232,838.6,551.4,4046,NA
13,1,continuous,25,4,fixationCross,13001751.0,13003102.0,1351.0,25,R,12999933,13000373,442,538.9,526.4,3825,left
13,1,continuous,25,4,fixationCross,13001751.0,13003102.0,1351.0,25,R,13000413,13000679,268,818.8,514.0,3802,NA
13,1,continuous,25,4,fixationCross,13001751.0,13003102.0,1351.0,25,R,13000725,13000981,258,572.6,538.3,3904,left
13,1,continuous,25,4,fixationCross,13001751.0,13003102.0,1351.0,25,R,13001009,13001279,272,746.0,525.3,3975,NA
13,1,continuous,25,4,fixationCross,13001751.0,13003102.0,1351.0,25,R,13001313,13001491,180,582.5,559.0,3953,left
13,1,continuous,25,4,fixationCross,13001751.0,13003102.0,1351.0,25,R,13001537,13001721,186,920.1,560.8,3937,NA
13,1,continuous,25,4,trial,13001751.0,13003102.0,1351.0,25,R,13001735,13001887,154,953.0,573.5,3945,NA
13,1,continuous,25,4,trial,13001751.0,13003102.0,1351.0,25,R,13001933,13002085,154,551.7,570.0,3993,left
13,1,continuous,25,4,trial,13001751.0,13003102.0,1351.0,25,R,13002273,13002653,382,1507.9,582.0,3368,right
13,1,continuous,25,4,trial,13001751.0,13003102.0,1351.0,25,R,13002723,13002875,154,714.7,897.7,3546,NA
13,1,continuous,25,4,trial,13001751.0,13003102.0,1351.0,25,R,13002933,13003107,176,575.2,622.7,3430,left
13,1,continuous,25,4,postResponse,13001751.0,13003102.0,1351.0,25,R,13003127,13003437,312,507.0,638.3,3419,left
13,1,continuous,26,99,fixationCross,13030601.0,13032169.0,1568.0,26,R,13030073,13030243,172,262.1,-54.8,3215,NA
13,1,continuous,26,99,fixationCross,13030601.0,13032169.0,1568.0,26,R,13030315,13030465,152,877.3,560.4,3332,NA
13,1,continuous,26,99,trial,13030601.0,13032169.0,1568.0,26,R,13030485,13030709,226,949.7,567.8,3513,NA
13,1,continuous,26,99,trial,13030601.0,13032169.0,1568.0,26,R,13030789,13030895,108,743.9,562.0,3781,NA
13,1,continuous,26,99,trial,13030601.0,13032169.0,1568.0,26,R,13030929,13031165,238,536.1,581.5,3604,left
13,1,continuous,26,99,trial,13030601.0,13032169.0,1568.0,26,R,13031231,13031451,222,1408.5,508.0,3529,right
13,1,continuous,26,99,trial,13030601.0,13032169.0,1568.0,26,R,13031471,13031697,228,1488.0,507.9,3437,right
13,1,continuous,26,99,trial,13030601.0,13032169.0,1568.0,26,R,13031755,13031937,184,1316.4,943.5,3438,NA
13,1,continuous,26,99,trial,13030601.0,13032169.0,1568.0,26,R,13031961,13032119,160,1431.7,994.8,3455,NA
13,1,continuous,26,99,trial,13030601.0,13032169.0,1568.0,26,R,13032171,13032375,206,1504.7,457.1,3492,right
13,1,continuous,27,93,fixationCross,13034102.0,13035818.0,1716.0,27,R,13032589,13032827,240,1069.3,883.1,3660,likertHorizontal
13,1,continuous,27,93,fixationCross,13034102.0,13035818.0,1716.0,27,R,13032881,13033267,388,856.4,550.6,4032,NA
13,1,continuous,27,93,fixationCross,13034102.0,13035818.0,1716.0,27,R,13033297,13033589,294,661.6,546.6,3980,left
13,1,continuous,27,93,fixationCross,13034102.0,13035818.0,1716.0,27,R,13033611,13033901,292,584.4,524.8,3985,left
13,1,continuous,27,93,fixationCross,13034102.0,13035818.0,1716.0,27,R,13033945,13034101,158,929.3,541.7,4058,NA
13,1,continuous,27,93,trial,13034102.0,13035818.0,1716.0,27,R,13034119,13034257,140,958.0,563.0,4099,NA
13,1,continuous,27,93,trial,13034102.0,13035818.0,1716.0,27,R,13034305,13034555,252,503.6,544.7,4023,left
13,1,continuous,27,93,trial,13034102.0,13035818.0,1716.0,27,R,13034573,13034601,30,567.7,526.4,3764,left
13,1,continuous,27,93,trial,13034102.0,13035818.0,1716.0,27,R,13034613,13034741,130,530.3,468.8,3681,left
13,1,continuous,27,93,trial,13034102.0,13035818.0,1716.0,27,R,13034751,13034855,106,511.2,441.3,3607,left
13,1,continuous,27,93,trial,13034102.0,13035818.0,1716.0,27,R,13034925,13035249,326,1416.7,525.9,3427,right
13,1,continuous,27,93,trial,13034102.0,13035818.0,1716.0,27,R,13035271,13035663,394,1485.5,584.4,3504,right
13,1,continuous,27,93,trial,13034102.0,13035818.0,1716.0,27,R,13035717,13036015,300,1437.7,999.5,3505,NA
13,1,continuous,28,89,fixationCross,13038219.0,13039618.0,1399.0,28,R,13036315,13036819,506,834.7,576.1,3808,NA
13,1,continuous,28,89,fixationCross,13038219.0,13039618.0,1399.0,28,R,13036847,13037187,342,720.3,489.2,3778,left
13,1,continuous,28,89,fixationCross,13038219.0,13039618.0,1399.0,28,R,13037213,13037679,468,634.8,459.1,3848,left
13,1,continuous,28,89,fixationCross,13038219.0,13039618.0,1399.0,28,R,13037707,13037903,198,770.2,492.3,3959,NA
13,1,continuous,28,89,fixationCross,13038219.0,13039618.0,1399.0,28,R,13037929,13038117,190,915.5,528.3,4023,NA
13,1,continuous,28,89,trial,13038219.0,13039618.0,1399.0,28,R,13038127,13038259,134,947.6,550.3,4071,NA
13,1,continuous,28,89,trial,13038219.0,13039618.0,1399.0,28,R,13038423,13038589,168,480.6,501.0,3935,left
13,1,continuous,28,89,trial,13038219.0,13039618.0,1399.0,28,R,13038611,13038709,100,426.7,554.4,3708,left
13,1,continuous,28,89,trial,13038219.0,13039618.0,1399.0,28,R,13038779,13039239,462,1367.9,525.3,3382,right
13,1,continuous,28,89,trial,13038219.0,13039618.0,1399.0,28,R,13039293,13039807,516,1377.6,976.0,3412,NA
13,1,continuous,29,3,trial,13040518.0,13041319.0,801.0,29,R,13040113,13040523,412,983.6,538.6,3865,NA
13,1,continuous,29,3,trial,13040518.0,13041319.0,801.0,29,R,13040541,13040665,126,938.9,560.5,4173,NA
13,1,continuous,29,3,trial,13040518.0,13041319.0,801.0,29,R,13040713,13040999,288,490.4,546.3,3881,left
13,1,continuous,29,3,trial,13040518.0,13041319.0,801.0,29,R,13041071,13041299,230,1399.4,487.6,3458,right
13,1,continuous,29,3,trial,13040518.0,13041319.0,801.0,29,R,13041317,13041561,246,1472.1,465.6,3375,right
13,1,continuous,30,98,fixationCross,13042385.0,13043352.0,967.0,30,R,13041815,13042069,256,847.4,692.0,3776,NA
13,1,continuous,30,98,fixationCross,13042385.0,13043352.0,967.0,30,R,13042095,13042315,222,935.4,583.5,4088,NA
13,1,continuous,30,98,trial,13042385.0,13043352.0,967.0,30,R,13042351,13042527,178,691.1,525.6,4015,left
13,1,continuous,30,98,trial,13042385.0,13043352.0,967.0,30,R,13042559,13042659,102,552.9,578.4,3952,left
13,1,continuous,30,98,trial,13042385.0,13043352.0,967.0,30,R,13042717,13042971,256,1356.3,560.4,3521,right
13,1,continuous,30,98,trial,13042385.0,13043352.0,967.0,30,R,13042993,13043649,658,1422.6,635.9,3282,right
13,1,continuous,31,6,fixationCross,13047086.0,13047903.0,817.0,31,R,13043869,13044221,354,1068.6,514.5,3791,NA
13,1,continuous,31,6,fixationCross,13047086.0,13047903.0,817.0,31,R,13044259,13044501,244,863.5,566.8,4119,NA
13,1,continuous,31,6,fixationCross,13047086.0,13047903.0,817.0,31,R,13044537,13045113,578,574.5,546.3,3970,left
13,1,continuous,31,6,fixationCross,13047086.0,13047903.0,817.0,31,R,13045133,13045345,214,508.3,543.1,3914,left
13,1,continuous,31,6,fixationCross,13047086.0,13047903.0,817.0,31,R,13045387,13045573,188,812.6,535.8,3946,NA
13,1,continuous,31,6,fixationCross,13047086.0,13047903.0,817.0,31,R,13045609,13045769,162,504.6,558.0,3967,left
13,1,continuous,31,6,fixationCross,13047086.0,13047903.0,817.0,31,R,13045935,13046137,204,556.4,529.4,4077,left
13,1,continuous,31,6,fixationCross,13047086.0,13047903.0,817.0,31,R,13046173,13046417,246,852.1,522.3,4156,NA
13,1,continuous,31,6,fixationCross,13047086.0,13047903.0,817.0,31,R,13046457,13046767,312,549.8,530.8,3966,left
13,1,continuous,31,6,fixationCross,13047086.0,13047903.0,817.0,31,R,13046789,13046925,138,469.0,539.9,3913,left
13,1,continuous,31,6,trial,13047086.0,13047903.0,817.0,31,R,13046969,13047115,148,865.1,537.2,3949,NA
13,1,continuous,31,6,trial,13047086.0,13047903.0,817.0,31,R,13047137,13047223,88,930.2,555.0,3959,NA
13,1,continuous,31,6,trial,13047086.0,13047903.0,817.0,31,R,13047273,13047489,218,486.8,558.2,3946,left
13,1,continuous,31,6,trial,13047086.0,13047903.0,817.0,31,R,13047513,13047739,228,558.1,595.3,3660,left
13,1,continuous,31,6,trial,13047086.0,13047903.0,817.0,31,R,13047749,13047907,160,589.2,563.3,3513,left
13,1,continuous,31,6,trial,13047086.0,13047903.0,817.0,31,R,13047919,13048121,204,610.6,536.2,3401,left
13,1,continuous,32,3,fixationCross,13049086.0,13050402.0,1316.0,32,R,13048345,13048583,240,708.4,481.5,3467,left
13,1,continuous,32,3,fixationCross,13049086.0,13050402.0,1316.0,32,R,13048611,13048765,156,526.7,540.7,3791,left
13,1,continuous,32,3,trial,13049086.0,13050402.0,1316.0,32,R,13048809,13049223,416,943.8,542.7,3762,NA
13,1,continuous,32,3,trial,13049086.0,13050402.0,1316.0,32,R,13049277,13049467,192,1345.3,503.0,3733,right
13,1,continuous,32,3,trial,13049086.0,13050402.0,1316.0,32,R,13049491,13049737,248,1457.6,545.2,3463,right
13,1,continuous,32,3,trial,13049086.0,13050402.0,1316.0,32,R,13049759,13049811,54,1546.0,580.1,3451,right
13,1,continuous,32,3,trial,13049086.0,13050402.0,1316.0,32,R,13049893,13050247,356,477.4,598.8,3465,left
13,1,continuous,32,3,trial,13049086.0,13050402.0,1316.0,32,R,13050267,13050589,324,572.9,578.8,3360,left
13,1,continuous,33,9,fixationCross,13051435.0,13053219.0,1784.0,33,R,13050857,13051147,292,1136.1,553.1,3552,NA
13,1,continuous,33,9,trial,13051435.0,13053219.0,1784.0,33,R,13051187,13051565,380,909.7,545.2,3923,NA
13,1,continuous,33,9,trial,13051435.0,13053219.0,1784.0,33,R,13051611,13051823,214,514.5,563.6,3749,left
13,1,continuous,33,9,trial,13051435.0,13053219.0,1784.0,33,R,13051897,13052453,558,1464.7,502.5,3255,right
13,1,continuous,33,9,trial,13051435.0,13053219.0,1784.0,33,R,13052467,13052597,132,1500.1,477.8,3248,right
13,1,continuous,33,9,trial,13051435.0,13053219.0,1784.0,33,R,13052679,13053023,346,479.9,612.3,3408,left
13,1,continuous,33,9,trial,13051435.0,13053219.0,1784.0,33,R,13053041,13053411,372,539.2,582.0,3451,left
13,1,continuous,34,2,fixationCross,13054269.0,13055619.0,1350.0,34,R,13053647,13053961,316,1160.1,488.6,3617,NA
13,1,continuous,34,2,trial,13054269.0,13055619.0,1350.0,34,R,13053995,13054397,404,976.6,550.3,3996,NA
13,1,continuous,34,2,trial,13054269.0,13055619.0,1350.0,34,R,13054449,13054611,164,554.4,562.2,3888,left
13,1,continuous,34,2,trial,13054269.0,13055619.0,1350.0,34,R,13054677,13055229,554,1413.1,546.7,3277,right
13,1,continuous,34,2,trial,13054269.0,13055619.0,1350.0,34,R,13055305,13055849,546,557.8,674.6,3425,left
13,1,continuous,35,4,fixationCross,13058469.0,13059219.0,750.0,35,R,13056057,13056285,230,1187.4,512.5,3546,right
13,1,continuous,35,4,fixationCross,13058469.0,13059219.0,750.0,35,R,13056341,13056713,374,789.8,516.8,3962,NA
13,1,continuous,35,4,fixationCross,13058469.0,13059219.0,750.0,35,R,13056745,13057125,382,549.7,526.5,3892,left
13,1,continuous,35,4,fixationCross,13058469.0,13059219.0,750.0,35,R,13057165,13057537,374,844.7,519.7,3828,NA
13,1,continuous,35,4,fixationCross,13058469.0,13059219.0,750.0,35,R,13057577,13057867,292,578.6,565.2,4034,left
13,1,continuous,35,4,fixationCross,13058469.0,13059219.0,750.0,35,R,13058083,13058205,124,806.9,564.0,4058,NA
13,1,continuous,35,4,trial,13058469.0,13059219.0,750.0,35,R,13058233,13058529,298,942.0,543.6,4131,NA
13,1,continuous,35,4,trial,13058469.0,13059219.0,750.0,35,R,13058573,13059063,492,619.8,537.2,3884,left
13,1,continuous,35,4,trial,13058469.0,13059219.0,750.0,35,R,13059085,13059121,38,562.4,538.7,3479,left
13,1,continuous,35,4,postResponse,13058469.0,13059219.0,750.0,35,R,13059183,13059571,390,1387.9,557.8,3393,right
13,1,continuous,36,16,fixationCross,13061286.0,13062435.0,1149.0,36,R,13059727,13060245,520,848.9,526.2,3809,NA
13,1,continuous,36,16,fixationCross,13061286.0,13062435.0,1149.0,36,R,13060287,13060975,690,566.7,525.2,4039,left
13,1,continuous,36,16,trial,13061286.0,13062435.0,1149.0,36,R,13061013,13061353,342,893.5,523.6,4001,NA
13,1,continuous,36,16,trial,13061286.0,13062435.0,1149.0,36,R,13061487,13061657,172,360.2,495.5,4072,left
13,1,continuous,36,16,trial,13061286.0,13062435.0,1149.0,36,R,13061681,13061899,220,455.8,531.6,3791,left
13,1,continuous,36,16,trial,13061286.0,13062435.0,1149.0,36,R,13061915,13062111,198,390.9,546.7,3692,left
13,1,continuous,36,16,trial,13061286.0,13062435.0,1149.0,36,R,13062179,13062297,120,1217.6,511.2,3557,right
13,1,continuous,36,16,trial,13061286.0,13062435.0,1149.0,36,R,13062321,13062723,404,1344.9,438.4,3462,right
13,1,continuous,37,16,fixationCross,13063486.0,13064785.0,1299.0,37,R,13062895,13063195,302,1060.9,434.7,3601,NA
13,1,continuous,37,16,trial,13063486.0,13064785.0,1299.0,37,R,13063223,13063503,282,942.2,562.1,3972,NA
13,1,continuous,37,16,trial,13063486.0,13064785.0,1299.0,37,R,13063555,13063769,216,520.6,460.9,3912,left
13,1,continuous,37,16,trial,13063486.0,13064785.0,1299.0,37,R,13063813,13063949,138,635.0,467.0,3671,left
13,1,continuous,37,16,trial,13063486.0,13064785.0,1299.0,37,R,13064009,13064269,262,1378.4,473.7,3393,right
13,1,continuous,37,16,trial,13063486.0,13064785.0,1299.0,37,R,13064297,13064447,152,1500.4,608.8,3386,right
13,1,continuous,37,16,postResponse,13063486.0,13064785.0,1299.0,37,R,13064521,13065133,614,592.0,476.5,3562,left
13,1,continuous,38,88,fixationCross,13065703.0,13066953.0,1250.0,38,R,13065233,13065317,86,582.0,476.7,3491,left
13,1,continuous,38,88,trial,13065703.0,13066953.0,1250.0,38,R,13065363,13065831,470,955.3,526.9,3805,NA
13,1,continuous,38,88,trial,13065703.0,13066953.0,1250.0,38,R,13065879,13066013,136,530.9,583.0,4012,left
13,1,continuous,38,88,trial,13065703.0,13066953.0,1250.0,38,R,13066169,13066257,90,480.7,533.0,3563,left
13,1,continuous,38,88,trial,13065703.0,13066953.0,1250.0,38,R,13066327,13066477,152,1442.7,528.4,3515,right
13,1,continuous,38,88,trial,13065703.0,13066953.0,1250.0,38,R,13066503,13066857,356,1561.1,519.2,3504,right
13,1,continuous,38,88,trial,13065703.0,13066953.0,1250.0,38,R,13066877,13067267,392,1458.0,514.1,3300,right
13,1,continuous,39,1,fixationCross,13068086.0,13068903.0,817.0,39,R,13067515,13067809,296,1067.7,570.2,3620,NA
13,1,continuous,39,1,trial,13068086.0,13068903.0,817.0,39,R,13067833,13068101,270,915.8,538.5,3964,NA
13,1,continuous,39,1,trial,13068086.0,13068903.0,817.0,39,R,13068139,13068277,140,643.3,465.1,3812,left
13,1,continuous,39,1,trial,13068086.0,13068903.0,817.0,39,R,13068303,13068553,252,495.7,532.1,3682,left
13,1,continuous,39,1,postResponse,13068086.0,13068903.0,817.0,39,R,13068567,13069245,680,503.3,579.5,3459,left
13,1,continuous,40,100,fixationCross,13069802.0,13071086.0,1284.0,40,R,13069319,13069703,386,1015.6,553.8,3587,NA
13,1,continuous,40,100,trial,13069802.0,13071086.0,1284.0,40,R,13069721,13069925,206,944.7,573.5,3865,NA
13,1,continuous,40,100,trial,13069802.0,13071086.0,1284.0,40,R,13069973,13070163,192,517.6,603.1,3844,left
13,1,continuous,40,100,trial,13069802.0,13071086.0,1284.0,40,R,13070181,13070541,362,430.5,594.9,3476,left
13,1,continuous,40,100,trial,13069802.0,13071086.0,1284.0,40,R,13070611,13071089,480,1323.7,570.2,3359,right
13,1,continuous,40,100,trial,13069802.0,13071086.0,1284.0,40,R,13071111,13071307,198,1435.9,566.7,3511,right
13,1,continuous,41,1,fixationCross,13072119.0,13073619.0,1500.0,41,R,13071563,13071821,260,1159.7,534.2,3740,NA
13,1,continuous,41,1,fixationCross,13072119.0,13073619.0,1500.0,41,R,13071857,13072069,214,934.3,554.1,4059,NA
13,1,continuous,41,1,trial,13072119.0,13073619.0,1500.0,41,R,13072115,13072275,162,591.0,548.4,4037,left
13,1,continuous,41,1,trial,13072119.0,13073619.0,1500.0,41,R,13072309,13072455,148,415.3,509.1,3860,left
13,1,continuous,41,1,trial,13072119.0,13073619.0,1500.0,41,R,13072519,13072755,238,1317.5,579.0,3454,right
13,1,continuous,41,1,trial,13072119.0,13073619.0,1500.0,41,R,13072789,13073093,306,1530.2,611.1,3361,right
13,1,continuous,41,1,trial,13072119.0,13073619.0,1500.0,41,R,13073177,13073287,112,452.8,525.2,3452,left
13,1,continuous,41,1,trial,13072119.0,13073619.0,1500.0,41,R,13073301,13073619,320,403.5,484.4,3479,left
13,1,continuous,41,1,postResponse,13072119.0,13073619.0,1500.0,41,R,13073677,13073965,290,471.6,907.3,3618,NA
13,1,continuous,42,9,fixationCross,13076053.0,13076952.0,899.0,42,R,13074205,13074617,414,821.0,554.2,4014,NA
13,1,continuous,42,9,fixationCross,13076053.0,13076952.0,899.0,42,R,13074651,13075365,716,591.6,561.9,3877,left
13,1,continuous,42,9,fixationCross,13076053.0,13076952.0,899.0,42,R,13075385,13075645,262,684.1,536.7,3932,left
13,1,continuous,42,9,fixationCross,13076053.0,13076952.0,899.0,42,R,13075671,13075831,162,855.6,544.8,3998,NA
13,1,continuous,42,9,fixationCross,13076053.0,13076952.0,899.0,42,R,13075853,13076045,194,943.3,564.3,4055,NA
13,1,continuous,42,9,trial,13076053.0,13076952.0,899.0,42,R,13076089,13076225,138,623.4,537.6,4095,left
13,1,continuous,42,9,trial,13076053.0,13076952.0,899.0,42,R,13076249,13076435,188,500.4,556.0,4018,left
13,1,continuous,42,9,trial,13076053.0,13076952.0,899.0,42,R,13076505,13076771,268,1408.7,561.6,3480,right
13,1,continuous,42,9,trial,13076053.0,13076952.0,899.0,42,R,13076903,13077223,322,566.0,916.7,3589,NA
13,1,continuous,43,9,fixationCross,13078019.0,13079335.0,1316.0,43,R,13077461,13077695,236,760.5,422.7,3956,NA
13,1,continuous,43,9,fixationCross,13078019.0,13079335.0,1316.0,43,R,13077727,13077967,242,970.8,541.4,4099,NA
13,1,continuous,43,9,trial,13078019.0,13079335.0,1316.0,43,R,13078023,13078199,178,599.0,518.3,3952,left
13,1,continuous,43,9,trial,13078019.0,13079335.0,1316.0,43,R,13078225,13078419,196,462.4,590.5,3814,left
13,1,continuous,43,9,trial,13078019.0,13079335.0,1316.0,43,R,13078485,13078847,364,1346.9,536.2,3352,right
13,1,continuous,43,9,trial,13078019.0,13079335.0,1316.0,43,R,13078915,13079289,376,633.0,922.1,3501,NA
13,1,continuous,43,9,trial,13078019.0,13079335.0,1316.0,43,R,13079353,13079607,256,539.2,653.7,3791,left
13,1,continuous,43,9,postResponse,13078019.0,13079335.0,1316.0,43,R,13079647,13079683,38,886.8,554.6,3794,NA
13,1,continuous,44,1,fixationCross,13080219.0,13081586.0,1367.0,44,R,13079757,13080105,350,879.8,555.8,3848,NA
13,1,continuous,44,1,trial,13080219.0,13081586.0,1367.0,44,R,13080125,13080345,222,945.9,568.2,4075,NA
13,1,continuous,44,1,trial,13080219.0,13081586.0,1367.0,44,R,13080395,13080725,332,485.6,590.0,3907,left
13,1,continuous,44,1,trial,13080219.0,13081586.0,1367.0,44,R,13080857,13081231,376,464.9,542.0,3425,left
13,1,continuous,44,1,trial,13080219.0,13081586.0,1367.0,44,R,13081287,13081469,184,611.6,980.6,3552,NA
13,1,continuous,44,1,postResponse,13080219.0,13081586.0,1367.0,44,R,13081563,13081931,370,1466.6,610.3,3422,right
13,1,continuous,45,100,fixationCross,13084469.0,13085502.0,1033.0,45,R,13082025,13082551,528,776.3,573.7,3670,NA
13,1,continuous,45,100,fixationCross,13084469.0,13085502.0,1033.0,45,R,13082585,13082987,404,592.0,560.2,3938,left
13,1,continuous,45,100,fixationCross,13084469.0,13085502.0,1033.0,45,R,13083013,13083327,316,765.6,551.9,4068,NA
13,1,continuous,45,100,fixationCross,13084469.0,13085502.0,1033.0,45,R,13083363,13083637,276,587.3,562.1,4123,left
13,1,continuous,45,100,fixationCross,13084469.0,13085502.0,1033.0,45,R,13083659,13084009,352,682.2,556.0,4103,left
13,1,continuous,45,100,fixationCross,13084469.0,13085502.0,1033.0,45,R,13084189,13084339,152,944.3,520.0,4001,NA
13,1,continuous,45,100,trial,13084469.0,13085502.0,1033.0,45,R,13084381,13084535,156,1377.9,510.6,4023,right
13,1,continuous,45,100,trial,13084469.0,13085502.0,1033.0,45,R,13084577,13084681,106,1011.7,515.9,4157,NA
13,1,continuous,45,100,trial,13084469.0,13085502.0,1033.0,45,R,13084731,13084981,252,530.7,596.3,3870,left
13,1,continuous,45,100,trial,13084469.0,13085502.0,1033.0,45,R,13084999,13085113,116,453.0,607.7,3533,left
13,1,continuous,45,100,trial,13084469.0,13085502.0,1033.0,45,R,13085179,13085341,164,1319.4,561.2,3311,right
13,1,continuous,45,100,trial,13084469.0,13085502.0,1033.0,45,R,13085367,13085719,354,1491.8,587.5,3181,right
13,1,continuous,46,1,fixationCross,13086586.0,13087786.0,1200.0,46,R,13085973,13086291,320,1083.8,593.7,3468,NA
13,1,continuous,46,1,trial,13086586.0,13087786.0,1200.0,46,R,13086319,13086709,392,950.9,568.2,3904,NA
13,1,continuous,46,1,trial,13086586.0,13087786.0,1200.0,46,R,13086755,13086861,108,564.7,541.6,3794,left
13,1,continuous,46,1,trial,13086586.0,13087786.0,1200.0,46,R,13086887,13087053,168,634.9,533.2,3556,left
13,1,continuous,46,1,trial,13086586.0,13087786.0,1200.0,46,R,13087063,13087361,300,658.2,525.9,3327,left
13,1,continuous,46,1,trial,13086586.0,13087786.0,1200.0,46,R,13087417,13087569,154,1333.1,558.6,3242,right
13,1,continuous,46,1,postResponse,13086586.0,13087786.0,1200.0,46,R,13087591,13088135,546,1440.8,543.2,3277,right
13,1,continuous,47,100,fixationCross,13091502.0,13092769.0,1267.0,47,R,13088409,13088683,276,1141.3,464.2,3626,NA
13,1,continuous,47,100,fixationCross,13091502.0,13092769.0,1267.0,47,R,13088731,13088969,240,823.8,523.1,4030,NA
13,1,continuous,47,100,fixationCross,13091502.0,13092769.0,1267.0,47,R,13089019,13089441,424,522.4,511.2,3880,left
13,1,continuous,47,100,fixationCross,13091502.0,13092769.0,1267.0,47,R,13089465,13089931,468,675.1,513.3,3829,left
13,1,continuous,47,100,fixationCross,13091502.0,13092769.0,1267.0,47,R,13089957,13090311,356,536.2,518.9,3885,left
13,1,continuous,47,100,fixationCross,13091502.0,13092769.0,1267.0,47,R,13090343,13090603,262,777.6,524.4,3928,NA
13,1,continuous,47,100,fixationCross,13091502.0,13092769.0,1267.0,47,R,13090621,13090879,260,818.9,499.1,3935,NA
13,1,continuous,47,100,fixationCross,13091502.0,13092769.0,1267.0,47,R,13091071,13091241,172,678.3,470.3,3967,left
13,1,continuous,47,100,fixationCross,13091502.0,13092769.0,1267.0,47,R,13091279,13091491,214,1003.9,478.1,4061,NA
13,1,continuous,47,100,trial,13091502.0,13092769.0,1267.0,47,R,13091533,13091729,198,601.0,510.4,4019,left
13,1,continuous,47,100,trial,13091502.0,13092769.0,1267.0,47,R,13091751,13091865,116,517.3,561.7,3902,left
13,1,continuous,47,100,trial,13091502.0,13092769.0,1267.0,47,R,13091931,13092177,248,1386.3,518.0,3399,right
13,1,continuous,47,100,trial,13091502.0,13092769.0,1267.0,47,R,13092197,13092585,390,1387.7,593.5,3239,right
13,1,continuous,47,100,trial,13091502.0,13092769.0,1267.0,47,R,13092633,13092975,344,1413.3,952.5,3224,NA
13,1,continuous,48,2,fixationCross,13093802.0,13094603.0,801.0,48,R,13093237,13093513,278,1067.1,548.0,3701,NA
13,1,continuous,48,2,trial,13093802.0,13094603.0,801.0,48,R,13093539,13093931,394,940.0,564.8,4032,NA
13,1,continuous,48,2,trial,13093802.0,13094603.0,801.0,48,R,13093985,13094183,200,477.7,528.8,3793,left
13,1,continuous,48,2,trial,13093802.0,13094603.0,801.0,48,R,13094203,13094445,244,460.6,603.9,3546,left
13,1,continuous,48,2,trial,13093802.0,13094603.0,801.0,48,R,13094463,13094591,130,510.8,650.8,3597,left
13,1,continuous,48,2,trial,13093802.0,13094603.0,801.0,48,R,13094657,13094881,226,1365.6,523.6,3658,right
13,1,continuous,49,96,fixationCross,13095535.0,13096653.0,1118.0,49,R,13095113,13095529,418,942.7,496.8,3923,NA
13,1,continuous,49,96,trial,13095535.0,13096653.0,1118.0,49,R,13095591,13095799,210,580.3,569.1,4090,left
13,1,continuous,49,96,trial,13095535.0,13096653.0,1118.0,49,R,13095821,13095935,116,507.5,631.7,3908,left
13,1,continuous,49,96,trial,13095535.0,13096653.0,1118.0,49,R,13095999,13096357,360,1364.4,544.9,3494,right
13,1,continuous,49,96,trial,13095535.0,13096653.0,1118.0,49,R,13096373,13096579,208,1435.5,530.0,3397,right
13,1,continuous,49,96,trial,13095535.0,13096653.0,1118.0,49,R,13096637,13096861,226,1419.4,991.2,3443,NA
13,1,continuous,50,9,fixationCross,13100153.0,13101070.0,917.0,50,R,13097125,13097597,474,822.9,535.1,3806,NA
13,1,continuous,50,9,fixationCross,13100153.0,13101070.0,917.0,50,R,13097651,13098127,478,507.7,553.2,3759,left
13,1,continuous,50,9,fixationCross,13100153.0,13101070.0,917.0,50,R,13098151,13098493,344,618.4,537.4,3794,left
13,1,continuous,50,9,fixationCross,13100153.0,13101070.0,917.0,50,R,13098517,13098849,334,531.8,528.2,3957,left
13,1,continuous,50,9,fixationCross,13100153.0,13101070.0,917.0,50,R,13098871,13099139,270,658.3,527.3,4017,left
13,1,continuous,50,9,fixationCross,13100153.0,13101070.0,917.0,50,R,13099165,13099455,292,496.4,513.0,4042,left
13,1,continuous,50,9,fixationCross,13100153.0,13101070.0,917.0,50,R,13099481,13099569,90,629.3,501.6,4100,left
13,1,continuous,50,9,fixationCross,13100153.0,13101070.0,917.0,50,R,13099775,13099855,82,810.3,516.7,4056,NA
13,1,continuous,50,9,trial,13100153.0,13101070.0,917.0,50,R,13099881,13100177,298,932.7,549.3,4092,NA
13,1,continuous,50,9,trial,13100153.0,13101070.0,917.0,50,R,13100225,13100369,146,671.8,512.1,4150,left
13,1,continuous,50,9,trial,13100153.0,13101070.0,917.0,50,R,13100395,13100785,392,530.4,575.5,3591,left
13,1,continuous,50,9,trial,13100153.0,13101070.0,917.0,50,R,13100861,13101105,246,1391.7,485.3,3152,right
13,1,continuous,50,9,postResponse,13100153.0,13101070.0,917.0,50,R,13101117,13101411,296,1349.4,484.8,3160,right
13,2,binary,1,2,fixationCross,13165654.0,13170236.0,4582.0,51,R,13165152,13165328,178,1411.7,627.0,3910,right
13,2,binary,1,2,fixationCross,13165654.0,13170236.0,4582.0,51,R,13165386,13165578,194,930.0,504.3,4045,NA
13,2,binary,1,2,trial,13165654.0,13170236.0,4582.0,51,R,13165596,13165800,206,974.0,540.2,4045,NA
13,2,binary,1,2,trial,13165654.0,13170236.0,4582.0,51,R,13165850,13166080,232,523.4,564.0,4000,left
13,2,binary,1,2,trial,13165654.0,13170236.0,4582.0,51,R,13166152,13166376,226,462.9,939.9,3662,NA
13,2,binary,1,2,trial,13165654.0,13170236.0,4582.0,51,R,13166536,13166698,164,1401.0,969.1,3604,NA
13,2,binary,1,2,trial,13165654.0,13170236.0,4582.0,51,R,13166770,13167436,668,537.3,923.3,3972,NA
13,2,binary,1,2,trial,13165654.0,13170236.0,4582.0,51,R,13167482,13167642,162,536.7,546.3,3980,left
13,2,binary,1,2,trial,13165654.0,13170236.0,4582.0,51,R,13167690,13167796,108,665.4,826.5,4035,NA
13,2,binary,1,2,trial,13165654.0,13170236.0,4582.0,51,R,13167840,13168360,522,1200.2,700.6,4015,right
13,2,binary,1,2,trial,13165654.0,13170236.0,4582.0,51,R,13168406,13168548,144,1412.9,971.7,4293,NA
13,2,binary,1,2,trial,13165654.0,13170236.0,4582.0,51,R,13168612,13168844,234,566.5,924.0,4458,NA
13,2,binary,1,2,trial,13165654.0,13170236.0,4582.0,51,R,13168900,13168988,90,593.8,511.0,4411,left
13,2,binary,1,2,trial,13165654.0,13170236.0,4582.0,51,R,13169142,13169306,166,464.4,476.7,4100,left
13,2,binary,1,2,trial,13165654.0,13170236.0,4582.0,51,R,13169374,13169500,128,1389.9,492.3,3982,right
13,2,binary,1,2,trial,13165654.0,13170236.0,4582.0,51,R,13169522,13170536,1016,1457.5,475.9,3689,right
13,2,binary,2,1,fixationCross,13171337.0,13172587.0,1250.0,52,R,13170714,13171040,328,869.5,419.2,4090,NA
13,2,binary,2,1,fixationCross,13171337.0,13172587.0,1250.0,52,R,13171070,13171324,256,972.5,531.5,4302,NA
13,2,binary,2,1,trial,13171337.0,13172587.0,1250.0,52,R,13171380,13171580,202,571.9,530.7,4220,left
13,2,binary,2,1,trial,13171337.0,13172587.0,1250.0,52,R,13171604,13171696,94,514.0,617.3,4154,left
13,2,binary,2,1,trial,13171337.0,13172587.0,1250.0,52,R,13171764,13172224,462,1422.2,540.1,3524,right
13,2,binary,2,1,trial,13171337.0,13172587.0,1250.0,52,R,13172298,13172858,562,520.2,596.3,3493,left
13,2,binary,3,1,fixationCross,13174254.0,13175087.0,833.0,53,R,13173116,13173264,150,954.5,506.4,3646,NA
13,2,binary,3,1,fixationCross,13174254.0,13175087.0,833.0,53,R,13173310,13174036,728,662.0,465.7,4038,left
13,2,binary,3,1,trial,13174254.0,13175087.0,833.0,53,R,13174080,13174288,210,991.8,513.3,3873,NA
13,2,binary,3,1,trial,13174254.0,13175087.0,833.0,53,R,13174344,13174462,120,618.3,498.6,3959,left
13,2,binary,3,1,trial,13174254.0,13175087.0,833.0,53,R,13174490,13174706,218,491.7,564.8,3888,left
13,2,binary,3,1,trial,13174254.0,13175087.0,833.0,53,R,13174720,13175008,290,547.2,567.2,3582,left
13,2,binary,3,1,trial,13174254.0,13175087.0,833.0,53,R,13175076,13175292,218,1448.1,508.0,3411,right
13,2,binary,4,1,fixationCross,13177137.0,13178237.0,1100.0,54,R,13175556,13175768,214,1224.2,451.9,3686,right
13,2,binary,4,1,fixationCross,13177137.0,13178237.0,1100.0,54,R,13175832,13176184,354,702.2,492.7,4038,left
13,2,binary,4,1,fixationCross,13177137.0,13178237.0,1100.0,54,R,13176210,13176490,282,543.0,504.3,3909,left
13,2,binary,4,1,fixationCross,13177137.0,13178237.0,1100.0,54,R,13176506,13176700,196,602.3,497.3,3920,left
13,2,binary,4,1,fixationCross,13177137.0,13178237.0,1100.0,54,R,13176774,13176926,154,1335.3,502.2,3921,right
13,2,binary,4,1,trial,13177137.0,13178237.0,1100.0,54,R,13176970,13177272,304,972.8,523.3,4080,NA
13,2,binary,4,1,trial,13177137.0,13178237.0,1100.0,54,R,13177324,13177470,148,558.1,465.0,4063,left
13,2,binary,4,1,trial,13177137.0,13178237.0,1100.0,54,R,13177534,13177822,290,1409.2,499.5,3606,right
13,2,binary,4,1,trial,13177137.0,13178237.0,1100.0,54,R,13177836,13177918,84,1455.5,518.5,3568,right
13,2,binary,4,1,trial,13177137.0,13178237.0,1100.0,54,R,13177986,13178248,264,632.8,398.3,3683,left
13,2,binary,4,1,trial,13177137.0,13178237.0,1100.0,54,R,13178256,13178436,182,637.2,379.9,3598,left
13,2,binary,5,1,fixationCross,13179354.0,13180137.0,783.0,55,R,13178682,13179036,356,836.9,417.0,3678,NA
13,2,binary,5,1,fixationCross,13179354.0,13180137.0,783.0,55,R,13179064,13179330,268,950.2,523.5,4000,NA
13,2,binary,5,1,trial,13179354.0,13180137.0,783.0,55,R,13179382,13179574,194,542.2,496.3,3970,left
13,2,binary,5,1,trial,13179354.0,13180137.0,783.0,55,R,13179602,13179996,396,515.3,649.6,3713,left
13,2,binary,5,1,trial,13179354.0,13180137.0,783.0,55,R,13180064,13180346,284,1407.8,547.0,3275,right
13,2,binary,6,1,fixationCross,13181037.0,13182303.0,1266.0,56,R,13180626,13180954,330,1013.0,479.4,3668,NA
13,2,binary,6,1,trial,13181037.0,13182303.0,1266.0,56,R,13180996,13181174,180,739.6,497.4,4027,NA
13,2,binary,6,1,trial,13181037.0,13182303.0,1266.0,56,R,13181214,13181330,118,489.3,500.7,3914,left
13,2,binary,6,1,trial,13181037.0,13182303.0,1266.0,56,R,13181398,13181582,186,1425.6,520.6,3461,right
13,2,binary,6,1,trial,13181037.0,13182303.0,1266.0,56,R,13181604,13181950,348,1418.9,442.0,3238,right
13,2,binary,6,1,trial,13181037.0,13182303.0,1266.0,56,R,13181972,13182604,634,1489.3,533.6,3201,right
13,2,binary,7,2,fixationCross,13183237.0,13184203.0,966.0,57,R,13182822,13183222,402,904.5,463.0,3704,NA
13,2,binary,7,2,trial,13183237.0,13184203.0,966.0,57,R,13183270,13183580,312,485.3,458.6,3873,left
13,2,binary,7,2,trial,13183237.0,13184203.0,966.0,57,R,13183648,13183782,136,1406.6,542.2,3540,right
13,2,binary,7,2,trial,13183237.0,13184203.0,966.0,57,R,13183808,13184508,702,1548.1,488.7,3371,right
13,2,binary,8,1,fixationCross,13186370.0,13187687.0,1317.0,58,R,13184736,13184938,204,1141.1,495.0,3663,NA
13,2,binary,8,1,fixationCross,13186370.0,13187687.0,1317.0,58,R,13184982,13185212,232,863.2,494.8,3980,NA
13,2,binary,8,1,fixationCross,13186370.0,13187687.0,1317.0,58,R,13185254,13185852,600,603.8,429.8,3856,left
13,2,binary,8,1,fixationCross,13186370.0,13187687.0,1317.0,58,R,13185864,13186096,234,644.5,456.3,3856,left
13,2,binary,8,1,fixationCross,13186370.0,13187687.0,1317.0,58,R,13186130,13186318,190,885.8,518.4,3988,NA
13,2,binary,8,1,trial,13186370.0,13187687.0,1317.0,58,R,13186376,13186574,200,542.8,493.4,4034,left
13,2,binary,8,1,trial,13186370.0,13187687.0,1317.0,58,R,13186598,13186682,86,595.0,590.9,4028,left
13,2,binary,8,1,trial,13186370.0,13187687.0,1317.0,58,R,13186746,13186992,248,1431.5,556.3,3440,right
13,2,binary,8,1,trial,13186370.0,13187687.0,1317.0,58,R,13187012,13187180,170,1496.7,512.9,3273,right
13,2,binary,8,1,trial,13186370.0,13187687.0,1317.0,58,R,13187254,13187886,634,589.6,599.4,3390,left
13,2,binary,9,1,fixationCross,13190837.0,13191587.0,750.0,59,R,13188128,13188352,226,1123.2,396.5,3502,NA
13,2,binary,9,1,fixationCross,13190837.0,13191587.0,750.0,59,R,13188412,13188608,198,684.0,575.3,3901,left
13,2,binary,9,1,fixationCross,13190837.0,13191587.0,750.0,59,R,13188646,13188830,186,756.0,471.8,3907,NA
13,2,binary,9,1,fixationCross,13190837.0,13191587.0,750.0,59,R,13188858,13189316,460,557.1,456.6,3708,left
13,2,binary,9,1,fixationCross,13190837.0,13191587.0,750.0,59,R,13189352,13189612,262,762.2,459.4,3684,NA
13,2,binary,9,1,fixationCross,13190837.0,13191587.0,750.0,59,R,13189648,13189892,246,516.9,476.7,3839,left
13,2,binary,9,1,fixationCross,13190837.0,13191587.0,750.0,59,R,13189928,13190428,502,789.6,495.3,4032,NA
13,2,binary,9,1,fixationCross,13190837.0,13191587.0,750.0,59,R,13190468,13190576,110,716.3,633.7,4132,left
13,2,binary,9,1,fixationCross,13190837.0,13191587.0,750.0,59,R,13190606,13190776,172,924.1,582.1,4095,NA
13,2,binary,9,1,trial,13190837.0,13191587.0,750.0,59,R,13190950,13191056,108,864.7,492.0,4046,NA
13,2,binary,9,1,trial,13190837.0,13191587.0,750.0,59,R,13191100,13191320,222,592.0,578.7,4075,left
13,2,binary,9,1,trial,13190837.0,13191587.0,750.0,59,R,13191344,13191578,236,479.5,631.7,3735,left
13,2,binary,9,1,trial,13190837.0,13191587.0,750.0,59,R,13191646,13191852,208,1328.6,544.4,3396,right
13,2,binary,10,1,fixationCross,13192554.0,13193571.0,1017.0,60,R,13192076,13192346,272,1031.6,473.7,3707,NA
13,2,binary,10,1,trial,13192554.0,13193571.0,1017.0,60,R,13192372,13192680,310,939.8,521.5,4055,NA
13,2,binary,10,1,trial,13192554.0,13193571.0,1017.0,60,R,13192728,13192888,162,538.6,517.7,3952,left
13,2,binary,10,1,trial,13192554.0,13193571.0,1017.0,60,R,13192952,13193178,228,1424.8,513.8,3474,right
13,2,binary,10,1,trial,13192554.0,13193571.0,1017.0,60,R,13193204,13193806,604,1526.2,501.1,3454,right
13,2,binary,11,1,fixationCross,13194704.0,13195470.0,766.0,61,R,13194032,13194392,362,886.7,382.0,3933,NA
13,2,binary,11,1,fixationCross,13194704.0,13195470.0,766.0,61,R,13194422,13194610,190,947.2,503.8,4179,NA
13,2,binary,11,1,trial,13194704.0,13195470.0,766.0,61,R,13194668,13194884,218,535.6,512.5,4112,left
13,2,binary,11,1,trial,13194704.0,13195470.0,766.0,61,R,13194908,13195028,122,553.8,426.4,4082,left
13,2,binary,11,1,postResponse,13194704.0,13195470.0,766.0,61,R,13195090,13195804,716,1375.2,457.0,3454,right
13,2,binary,12,2,fixationCross,13197871.0,13199104.0,1233.0,62,R,13195878,13195980,104,1368.6,460.0,3402,right
13,2,binary,12,2,fixationCross,13197871.0,13199104.0,1233.0,62,R,13196054,13196428,376,706.4,475.4,3757,left
13,2,binary,12,2,fixationCross,13197871.0,13199104.0,1233.0,62,R,13196452,13196824,374,587.5,438.3,3866,left
13,2,binary,12,2,fixationCross,13197871.0,13199104.0,1233.0,62,R,13196862,13197142,282,818.0,458.3,3909,NA
13,2,binary,12,2,fixationCross,13197871.0,13199104.0,1233.0,62,R,13197192,13197286,96,533.7,469.7,3888,left
13,2,binary,12,2,fixationCross,13197871.0,13199104.0,1233.0,62,R,13197486,13197570,86,815.2,463.2,3877,NA
13,2,binary,12,2,trial,13197871.0,13199104.0,1233.0,62,R,13197596,13198008,414,973.2,507.1,3973,NA
13,2,binary,12,2,trial,13197871.0,13199104.0,1233.0,62,R,13198058,13198304,248,529.4,509.9,3767,left
13,2,binary,12,2,trial,13197871.0,13199104.0,1233.0,62,R,13198324,13198470,148,443.1,500.3,3466,left
13,2,binary,12,2,trial,13197871.0,13199104.0,1233.0,62,R,13198542,13199360,820,1415.2,599.4,3374,right
13,2,binary,13,1,fixationCross,13200137.0,13201004.0,867.0,63,R,13199608,13199830,224,1256.5,446.7,3510,right
13,2,binary,13,1,trial,13200137.0,13201004.0,867.0,63,R,13199874,13200156,284,915.9,505.3,3873,NA
13,2,binary,13,1,trial,13200137.0,13201004.0,867.0,63,R,13200204,13200362,160,541.7,478.1,3790,left
13,2,binary,13,1,trial,13200137.0,13201004.0,867.0,63,R,13200382,13200528,148,483.3,521.4,3646,left
13,2,binary,13,1,postResponse,13200137.0,13201004.0,867.0,63,R,13200594,13201350,758,1414.0,463.3,3188,right
13,2,binary,14,2,fixationCross,13203787.0,13204571.0,784.0,64,R,13201426,13201506,82,1413.8,475.8,3335,right
13,2,binary,14,2,fixationCross,13203787.0,13204571.0,784.0,64,R,13201586,13201980,396,671.0,508.7,3688,left
13,2,binary,14,2,fixationCross,13203787.0,13204571.0,784.0,64,R,13202006,13202444,440,571.6,460.5,3721,left
13,2,binary,14,2,fixationCross,13203787.0,13204571.0,784.0,64,R,13202468,13202742,276,687.6,455.3,3830,left
13,2,binary,14,2,fixationCross,13203787.0,13204571.0,784.0,64,R,13202934,13203262,330,669.8,459.0,3858,left
13,2,binary,14,2,fixationCross,13203787.0,13204571.0,784.0,64,R,13203288,13203482,196,522.6,482.1,3988,left
13,2,binary,14,2,fixationCross,13203787.0,13204571.0,784.0,64,R,13203526,13203670,146,921.3,531.2,3842,NA
13,2,binary,14,2,trial,13203787.0,13204571.0,784.0,64,R,13203688,13203870,184,952.1,557.7,3758,NA
13,2,binary,14,2,trial,13203787.0,13204571.0,784.0,64,R,13203914,13204022,110,612.9,499.1,3768,left
13,2,binary,14,2,trial,13203787.0,13204571.0,784.0,64,R,13204044,13204176,134,501.1,502.8,3676,left
13,2,binary,14,2,trial,13203787.0,13204571.0,784.0,64,R,13204242,13204584,344,1394.7,524.0,3200,right
13,2,binary,14,2,trial,13203787.0,13204571.0,784.0,64,R,13204608,13204812,206,1551.9,536.1,3086,right
13,2,binary,15,1,fixationCross,13205621.0,13206154.0,533.0,65,R,13205074,13205294,222,1224.5,487.5,3239,right
13,2,binary,15,1,trial,13205621.0,13206154.0,533.0,65,R,13205336,13205626,292,921.7,524.3,3763,NA
13,2,binary,15,1,trial,13205621.0,13206154.0,533.0,65,R,13205678,13205822,146,632.4,456.0,3760,left
13,2,binary,15,1,trial,13205621.0,13206154.0,533.0,65,R,13205848,13205992,146,452.3,509.6,3652,left
13,2,binary,15,1,trial,13205621.0,13206154.0,533.0,65,R,13206006,13206078,74,414.3,484.4,3495,left
13,2,binary,15,1,postResponse,13205621.0,13206154.0,533.0,65,R,13206148,13206480,334,1445.2,501.4,3176,right
13,2,binary,16,2,fixationCross,13207171.0,13208003.0,832.0,66,R,13206692,13206868,178,1178.7,476.1,3514,NA
13,2,binary,16,2,trial,13207171.0,13208003.0,832.0,66,R,13206908,13207174,268,907.4,519.2,3882,NA
13,2,binary,16,2,trial,13207171.0,13208003.0,832.0,66,R,13207222,13207484,264,633.4,477.6,3900,left
13,2,binary,16,2,trial,13207171.0,13208003.0,832.0,66,R,13207552,13208014,464,1483.0,555.8,3365,right
13,2,binary,16,2,postResponse,13207171.0,13208003.0,832.0,66,R,13208030,13208346,318,1537.2,583.7,3332,right
13,2,binary,17,2,fixationCross,13210171.0,13211154.0,983.0,67,R,13208462,13208884,424,828.7,553.9,3578,NA
13,2,binary,17,2,fixationCross,13210171.0,13211154.0,983.0,67,R,13208922,13209424,504,628.5,472.0,3854,left
13,2,binary,17,2,fixationCross,13210171.0,13211154.0,983.0,67,R,13209444,13209670,228,752.9,501.9,3842,NA
13,2,binary,17,2,trial,13210171.0,13211154.0,983.0,67,R,13209868,13210204,338,869.2,494.9,3916,NA
13,2,binary,17,2,trial,13210171.0,13211154.0,983.0,67,R,13210246,13210382,138,533.2,515.3,4028,left
13,2,binary,17,2,trial,13210171.0,13211154.0,983.0,67,R,13210404,13210552,150,416.8,470.6,3821,left
13,2,binary,17,2,trial,13210171.0,13211154.0,983.0,67,R,13210626,13211408,784,1477.9,515.3,3251,right
13,2,binary,18,1,fixationCross,13212204.0,13212887.0,683.0,68,R,13211602,13211880,280,1280.1,518.0,3479,right
13,2,binary,18,1,fixationCross,13212204.0,13212887.0,683.0,68,R,13211920,13212202,284,968.1,531.8,3945,NA
13,2,binary,18,1,trial,13212204.0,13212887.0,683.0,68,R,13212248,13212370,124,605.2,521.2,4017,left
13,2,binary,18,1,trial,13212204.0,13212887.0,683.0,68,R,13212408,13212528,122,393.0,530.3,3972,left
13,2,binary,18,1,trial,13212204.0,13212887.0,683.0,68,R,13212538,13212894,358,363.4,513.3,3671,left
13,2,binary,18,1,postResponse,13212204.0,13212887.0,683.0,68,R,13212968,13213234,268,1465.6,503.3,3399,right
13,2,binary,19,2,fixationCross,13214754.0,13215887.0,1133.0,69,R,13213370,13213876,508,709.8,535.2,3840,left
13,2,binary,19,2,fixationCross,13214754.0,13215887.0,1133.0,69,R,13213926,13214188,264,438.0,530.5,3852,left
13,2,binary,19,2,fixationCross,13214754.0,13215887.0,1133.0,69,R,13214226,13214454,230,706.0,508.2,3927,left
13,2,binary,19,2,trial,13214754.0,13215887.0,1133.0,69,R,13214484,13214816,334,920.0,522.0,4001,NA
13,2,binary,19,2,trial,13214754.0,13215887.0,1133.0,69,R,13214974,13215014,42,729.0,470.6,4070,left
13,2,binary,19,2,trial,13214754.0,13215887.0,1133.0,69,R,13215066,13215234,170,435.6,551.4,3813,left
13,2,binary,19,2,trial,13214754.0,13215887.0,1133.0,69,R,13215260,13215352,94,563.6,550.6,3607,left
13,2,binary,19,2,trial,13214754.0,13215887.0,1133.0,69,R,13215422,13215606,186,1435.3,516.1,3407,right
13,2,binary,19,2,postResponse,13214754.0,13215887.0,1133.0,69,R,13215624,13216234,612,1349.3,499.2,3293,right
13,2,binary,20,1,fixationCross,13216854.0,13217687.0,833.0,70,R,13216310,13216388,80,1340.0,509.3,3362,right
13,2,binary,20,1,fixationCross,13216854.0,13217687.0,833.0,70,R,13216576,13216722,148,1025.1,529.4,3730,NA
13,2,binary,20,1,trial,13216854.0,13217687.0,833.0,70,R,13216740,13216978,240,949.0,537.0,3944,NA
13,2,binary,20,1,trial,13216854.0,13217687.0,833.0,70,R,13217026,13217236,212,532.9,544.9,3885,left
13,2,binary,20,1,trial,13216854.0,13217687.0,833.0,70,R,13217256,13217374,120,438.6,553.1,3444,left
13,2,binary,20,1,postResponse,13216854.0,13217687.0,833.0,70,R,13217446,13218022,578,1407.0,512.2,3153,right
13,2,binary,21,2,fixationCross,13219837.0,13220637.0,800.0,71,R,13218122,13218228,108,1400.0,511.0,3109,right
13,2,binary,21,2,fixationCross,13219837.0,13220637.0,800.0,71,R,13218304,13218718,416,694.3,520.2,3529,left
13,2,binary,21,2,fixationCross,13219837.0,13220637.0,800.0,71,R,13218746,13219050,306,529.5,479.0,3767,left
13,2,binary,21,2,fixationCross,13219837.0,13220637.0,800.0,71,R,13219080,13219358,280,787.2,475.8,3844,NA
13,2,binary,21,2,fixationCross,13219837.0,13220637.0,800.0,71,R,13219564,13219812,250,881.8,493.1,3915,NA
13,2,binary,21,2,trial,13219837.0,13220637.0,800.0,71,R,13219848,13220030,184,586.6,496.2,4004,left
13,2,binary,21,2,trial,13219837.0,13220637.0,800.0,71,R,13220054,13220146,94,515.8,541.3,3904,left
13,2,binary,21,2,trial,13219837.0,13220637.0,800.0,71,R,13220212,13220492,282,1448.5,524.5,3365,right
13,2,binary,21,2,postResponse,13219837.0,13220637.0,800.0,71,R,13220516,13220984,470,1521.8,619.7,3285,right
13,2,binary,22,1,fixationCross,13222555.0,13223338.0,783.0,72,R,13221086,13221112,28,1513.4,620.1,3425,right
13,2,binary,22,1,fixationCross,13222555.0,13223338.0,783.0,72,R,13221178,13221340,164,933.1,569.9,3608,NA
13,2,binary,22,1,fixationCross,13222555.0,13223338.0,783.0,72,R,13221380,13221740,362,691.5,488.7,3811,left
13,2,binary,22,1,fixationCross,13222555.0,13223338.0,783.0,72,R,13221766,13222020,256,597.3,480.7,3913,left
13,2,binary,22,1,fixationCross,13222555.0,13223338.0,783.0,72,R,13222060,13222226,168,839.1,505.1,3933,NA
13,2,binary,22,1,trial,13222555.0,13223338.0,783.0,72,R,13222410,13222686,278,898.7,505.8,4006,NA
13,2,binary,22,1,trial,13222555.0,13223338.0,783.0,72,R,13222732,13222976,246,526.3,542.5,4024,left
13,2,binary,22,1,trial,13222555.0,13223338.0,783.0,72,R,13222992,13223040,50,467.3,571.3,3660,left
13,2,binary,22,1,trial,13222555.0,13223338.0,783.0,72,R,13223106,13223570,466,1384.6,542.3,3389,right
13,2,binary,23,2,fixationCross,13225321.0,13226071.0,750.0,73,R,13223802,13224040,240,1194.4,441.8,3530,right
13,2,binary,23,2,fixationCross,13225321.0,13226071.0,750.0,73,R,13224092,13224548,458,821.8,495.0,3930,NA
13,2,binary,23,2,fixationCross,13225321.0,13226071.0,750.0,73,R,13224590,13225050,462,529.4,485.1,3826,left
13,2,binary,23,2,trial,13225321.0,13226071.0,750.0,73,R,13225104,13225454,352,948.4,481.6,3816,NA
13,2,binary,23,2,trial,13225321.0,13226071.0,750.0,73,R,13225502,13225648,148,546.6,530.7,3950,left
13,2,binary,23,2,postResponse,13225321.0,13226071.0,750.0,73,R,13225824,13226420,598,1442.3,601.0,3596,right
13,2,binary,24,1,fixationCross,13226971.0,13227604.0,633.0,74,R,13226494,13226550,58,1444.4,601.9,3738,right
13,2,binary,24,1,trial,13226971.0,13227604.0,633.0,74,R,13226622,13227096,476,898.1,495.2,3867,NA
13,2,binary,24,1,trial,13226971.0,13227604.0,633.0,74,R,13227146,13227384,240,530.7,548.1,3861,left
13,2,binary,24,1,trial,13226971.0,13227604.0,633.0,74,R,13227406,13227822,418,446.9,524.4,3495,left
13,2,binary,25,2,fixationCross,13229571.0,13231154.0,1583.0,75,R,13228048,13228260,214,1165.7,571.9,3508,NA
13,2,binary,25,2,fixationCross,13229571.0,13231154.0,1583.0,75,R,13228306,13229086,782,786.5,499.5,3916,NA
13,2,binary,25,2,fixationCross,13229571.0,13231154.0,1583.0,75,R,13229130,13229296,168,581.7,484.3,3823,left
13,2,binary,25,2,fixationCross,13229571.0,13231154.0,1583.0,75,R,13229340,13229550,212,974.7,553.0,3936,NA
13,2,binary,25,2,trial,13229571.0,13231154.0,1583.0,75,R,13229562,13229720,160,940.6,546.2,3996,NA
13,2,binary,25,2,trial,13229571.0,13231154.0,1583.0,75,R,13229770,13229990,222,475.5,556.4,3868,left
13,2,binary,25,2,trial,13229571.0,13231154.0,1583.0,75,R,13230058,13230240,184,1372.7,525.5,3322,right
13,2,binary,25,2,trial,13229571.0,13231154.0,1583.0,75,R,13230262,13230390,130,1457.8,525.1,3213,right
13,2,binary,25,2,trial,13229571.0,13231154.0,1583.0,75,R,13230412,13230766,356,1397.1,431.3,3206,right
13,2,binary,25,2,trial,13229571.0,13231154.0,1583.0,75,R,13230940,13231452,514,1422.4,491.2,3404,right
13,2,binary,26,2,fixationCross,13264138.0,13265604.0,1466.0,76,R,13263279,13263379,102,2208.2,916.0,3959,NA
13,2,binary,26,2,fixationCross,13264138.0,13265604.0,1466.0,76,R,13263479,13263631,154,844.4,201.6,3947,NA
13,2,binary,26,2,trial,13264138.0,13265604.0,1466.0,76,R,13263669,13264221,554,945.8,442.8,3858,NA
13,2,binary,26,2,trial,13264138.0,13265604.0,1466.0,76,R,13264277,13264415,140,687.8,538.3,4209,left
13,2,binary,26,2,trial,13264138.0,13265604.0,1466.0,76,R,13264445,13264621,178,524.3,699.8,3947,left
13,2,binary,26,2,trial,13264138.0,13265604.0,1466.0,76,R,13264663,13264809,148,531.1,400.8,3614,left
13,2,binary,26,2,trial,13264138.0,13265604.0,1466.0,76,R,13264899,13265175,278,1519.1,502.2,3395,right
13,2,binary,26,2,trial,13264138.0,13265604.0,1466.0,76,R,13265185,13265685,502,1516.6,478.3,3369,right
13,2,binary,26,2,trial,13264138.0,13265604.0,1466.0,76,R,13265717,13265831,116,1319.0,471.4,3442,right
13,2,binary,27,2,fixationCross,13267472.0,13268638.0,1166.0,77,R,13266059,13266233,176,1310.7,478.7,3648,right
13,2,binary,27,2,fixationCross,13267472.0,13268638.0,1166.0,77,R,13266289,13266673,386,855.0,453.9,4084,NA
13,2,binary,27,2,fixationCross,13267472.0,13268638.0,1166.0,77,R,13266699,13267057,360,689.1,453.2,4039,left
13,2,binary,27,2,fixationCross,13267472.0,13268638.0,1166.0,77,R,13267091,13267273,184,884.8,469.0,3993,NA
13,2,binary,27,2,trial,13267472.0,13268638.0,1166.0,77,R,13267295,13267511,218,956.6,522.3,4012,NA
13,2,binary,27,2,trial,13267472.0,13268638.0,1166.0,77,R,13267563,13267697,136,660.7,463.5,4127,left
13,2,binary,27,2,trial,13267472.0,13268638.0,1166.0,77,R,13267731,13267987,258,487.9,557.8,3909,left
13,2,binary,27,2,trial,13267472.0,13268638.0,1166.0,77,R,13268059,13268315,258,1432.1,530.0,3447,right
13,2,binary,27,2,trial,13267472.0,13268638.0,1166.0,77,R,13268335,13268801,468,1531.8,514.7,3439,right
13,2,binary,28,1,fixationCross,13269672.0,13270238.0,566.0,78,R,13269117,13269349,234,1216.7,605.4,3893,right
13,2,binary,28,1,fixationCross,13269672.0,13270238.0,566.0,78,R,13269395,13269621,228,896.6,524.8,4166,NA
13,2,binary,28,1,trial,13269672.0,13270238.0,566.0,78,R,13269661,13269827,168,592.0,460.9,4078,left
13,2,binary,28,1,trial,13269672.0,13270238.0,566.0,78,R,13269859,13270525,668,456.8,603.7,3548,left
13,2,binary,29,1,fixationCross,13272738.0,13273538.0,800.0,79,R,13270687,13270845,160,1021.9,539.9,3440,NA
13,2,binary,29,1,fixationCross,13272738.0,13273538.0,800.0,79,R,13270903,13271333,432,661.0,487.7,3820,left
13,2,binary,29,1,fixationCross,13272738.0,13273538.0,800.0,79,R,13271351,13271633,284,605.1,456.3,3797,left
13,2,binary,29,1,fixationCross,13272738.0,13273538.0,800.0,79,R,13271663,13271891,230,792.3,482.0,3770,NA
13,2,binary,29,1,fixationCross,13272738.0,13273538.0,800.0,79,R,13271921,13272151,232,566.2,507.3,3817,left
13,2,binary,29,1,fixationCross,13272738.0,13273538.0,800.0,79,R,13272327,13272439,114,641.1,480.5,3831,left
13,2,binary,29,1,fixationCross,13272738.0,13273538.0,800.0,79,R,13272483,13272673,192,934.7,507.8,3911,NA
13,2,binary,29,1,trial,13272738.0,13273538.0,800.0,79,R,13272691,13272871,182,970.8,547.6,3979,NA
13,2,binary,29,1,trial,13272738.0,13273538.0,800.0,79,R,13272921,13273093,174,564.7,541.4,3845,left
13,2,binary,29,1,trial,13272738.0,13273538.0,800.0,79,R,13273133,13273259,128,350.0,467.6,3489,left
13,2,binary,29,1,trial,13272738.0,13273538.0,800.0,79,R,13273333,13273505,174,1388.7,524.6,3184,right
13,2,binary,29,1,postResponse,13272738.0,13273538.0,800.0,79,R,13273523,13273891,370,1448.6,540.2,3087,right
13,2,binary,30,1,fixationCross,13275938.0,13277071.0,1133.0,80,R,13274075,13274541,468,818.4,468.6,3603,NA
13,2,binary,30,1,fixationCross,13275938.0,13277071.0,1133.0,80,R,13274575,13274881,308,607.9,513.6,3830,left
13,2,binary,30,1,fixationCross,13275938.0,13277071.0,1133.0,80,R,13274907,13275151,246,503.5,471.5,3753,left
13,2,binary,30,1,fixationCross,13275938.0,13277071.0,1133.0,80,R,13275189,13275455,268,737.8,487.9,3725,NA
13,2,binary,30,1,fixationCross,13275938.0,13277071.0,1133.0,80,R,13275487,13275663,178,849.7,500.7,3761,NA
13,2,binary,30,1,fixationCross,13275938.0,13277071.0,1133.0,80,R,13275691,13275937,248,965.9,520.9,3866,NA
13,2,binary,30,1,trial,13275938.0,13277071.0,1133.0,80,R,13275993,13276019,28,621.6,478.0,3883,left
13,2,binary,30,1,trial,13275938.0,13277071.0,1133.0,80,R,13276197,13276387,192,545.9,455.1,3739,left
13,2,binary,30,1,trial,13275938.0,13277071.0,1133.0,80,R,13276421,13276497,78,365.1,480.4,3628,left
13,2,binary,30,1,trial,13275938.0,13277071.0,1133.0,80,R,13276569,13277115,548,1425.3,525.4,3418,right
13,2,binary,30,1,trial,13275938.0,13277071.0,1133.0,80,R,13277181,13277359,180,732.4,527.0,3428,left
13,2,binary,31,1,fixationCross,13278204.0,13278971.0,767.0,81,R,13277551,13277791,242,1001.2,554.1,3654,NA
13,2,binary,31,1,fixationCross,13278204.0,13278971.0,767.0,81,R,13277829,13278001,174,812.0,508.6,3964,NA
13,2,binary,31,1,trial,13278204.0,13278971.0,767.0,81,R,13278029,13278273,246,945.8,500.5,3999,NA
13,2,binary,31,1,trial,13278204.0,13278971.0,767.0,81,R,13278319,13278485,168,632.2,479.0,3826,left
13,2,binary,31,1,trial,13278204.0,13278971.0,767.0,81,R,13278523,13278955,434,514.6,554.2,3407,left
13,2,binary,31,1,trial,13278204.0,13278971.0,767.0,81,R,13279023,13279229,208,1401.2,454.8,3125,right
13,2,binary,32,2,fixationCross,13280154.0,13280971.0,817.0,82,R,13279413,13279605,194,1275.3,378.7,3426,right
13,2,binary,32,2,fixationCross,13280154.0,13280971.0,817.0,82,R,13279683,13279823,142,517.4,525.4,3887,left
13,2,binary,32,2,trial,13280154.0,13280971.0,817.0,82,R,13279863,13280277,416,933.4,531.5,3913,NA
13,2,binary,32,2,trial,13280154.0,13280971.0,817.0,82,R,13280323,13280573,252,535.3,551.9,3907,left
13,2,binary,32,2,trial,13280154.0,13280971.0,817.0,82,R,13280641,13280971,332,1396.1,530.7,3452,right
13,2,binary,32,2,trial,13280154.0,13280971.0,817.0,82,R,13280989,13281185,198,1466.2,485.6,3357,right
13,2,binary,33,2,fixationCross,13281921.0,13282905.0,984.0,83,R,13281401,13281613,214,1391.0,451.7,3388,right
13,2,binary,33,2,trial,13281921.0,13282905.0,984.0,83,R,13281671,13282057,388,958.8,485.7,3931,NA
13,2,binary,33,2,trial,13281921.0,13282905.0,984.0,83,R,13282109,13282315,208,537.7,539.5,4036,left
13,2,binary,33,2,trial,13281921.0,13282905.0,984.0,83,R,13282383,13282593,212,1474.4,536.0,3459,right
13,2,binary,33,2,trial,13281921.0,13282905.0,984.0,83,R,13282613,13282881,270,1410.3,522.4,3328,right
13,2,binary,33,2,trial,13281921.0,13282905.0,984.0,83,R,13282901,13283099,200,1450.3,452.9,3401,right
13,2,binary,34,2,fixationCross,13284904.0,13286572.0,1668.0,84,R,13283367,13283601,236,1212.7,459.4,3457,right
13,2,binary,34,2,fixationCross,13284904.0,13286572.0,1668.0,84,R,13283651,13284131,482,824.4,545.3,3989,NA
13,2,binary,34,2,fixationCross,13284904.0,13286572.0,1668.0,84,R,13284157,13284399,244,645.0,507.6,3942,left
13,2,binary,34,2,fixationCross,13284904.0,13286572.0,1668.0,84,R,13284431,13284667,238,852.6,509.2,3975,NA
13,2,binary,34,2,fixationCross,13284904.0,13286572.0,1668.0,84,R,13284689,13284891,204,967.2,516.0,4106,NA
13,2,binary,34,2,trial,13284904.0,13286572.0,1668.0,84,R,13284941,13285065,126,686.5,499.6,4237,left
13,2,binary,34,2,trial,13284904.0,13286572.0,1668.0,84,R,13285101,13285239,140,532.0,502.3,4239,left
13,2,binary,34,2,trial,13284904.0,13286572.0,1668.0,84,R,13285305,13285493,190,1399.3,493.7,3685,right
13,2,binary,34,2,trial,13284904.0,13286572.0,1668.0,84,R,13285517,13285961,446,1443.1,377.4,3326,right
13,2,binary,34,2,trial,13284904.0,13286572.0,1668.0,84,R,13286033,13286773,742,613.8,565.4,3369,left
13,2,binary,35,2,fixationCross,13287704.0,13288539.0,835.0,85,R,13287001,13287245,246,1295.6,426.5,3769,right
13,2,binary,35,2,fixationCross,13287704.0,13288539.0,835.0,85,R,13287323,13287457,136,838.9,565.7,4104,NA
13,2,binary,35,2,trial,13287704.0,13288539.0,835.0,85,R,13287481,13287705,226,944.2,529.6,4091,NA
13,2,binary,35,2,trial,13287704.0,13288539.0,835.0,85,R,13287743,13287929,188,705.3,496.4,3926,left
13,2,binary,35,2,trial,13287704.0,13288539.0,835.0,85,R,13287955,13288057,104,565.0,552.5,3875,left
13,2,binary,35,2,trial,13287704.0,13288539.0,835.0,85,R,13288121,13288821,702,1380.0,550.3,3638,right
13,2,binary,36,1,fixationCross,13291072.0,13291589.0,517.0,86,R,13289051,13289209,160,1127.2,666.9,3915,NA
13,2,binary,36,1,fixationCross,13291072.0,13291589.0,517.0,86,R,13289265,13289563,300,868.8,493.6,4145,NA
13,2,binary,36,1,fixationCross,13291072.0,13291589.0,517.0,86,R,13289613,13289921,310,539.3,462.2,3929,left
13,2,binary,36,1,fixationCross,13291072.0,13291589.0,517.0,86,R,13289955,13290337,384,795.7,470.4,3818,NA
13,2,binary,36,1,fixationCross,13291072.0,13291589.0,517.0,86,R,13290353,13290559,208,733.1,502.5,3877,left
13,2,binary,36,1,fixationCross,13291072.0,13291589.0,517.0,86,R,13290819,13290933,116,705.2,491.2,3893,left
13,2,binary,36,1,trial,13291072.0,13291589.0,517.0,86,R,13290967,13291217,252,922.4,511.0,3975,NA
13,2,binary,36,1,trial,13291072.0,13291589.0,517.0,86,R,13291265,13291557,294,501.5,506.8,3770,left
13,2,binary,36,1,trial,13291072.0,13291589.0,517.0,86,R,13291629,13291853,226,1428.4,489.6,3290,right
13,2,binary,37,1,fixationCross,13292821.0,13293838.0,1017.0,87,R,13292119,13292509,392,1100.4,461.7,3707,NA
13,2,binary,37,1,trial,13292821.0,13293838.0,1017.0,87,R,13292543,13292953,412,896.6,484.3,3826,NA
13,2,binary,37,1,trial,13292821.0,13293838.0,1017.0,87,R,13292999,13293211,214,493.7,509.9,3623,left
13,2,binary,37,1,trial,13292821.0,13293838.0,1017.0,87,R,13293227,13293421,196,540.4,507.2,3353,left
13,2,binary,37,1,trial,13292821.0,13293838.0,1017.0,87,R,13293493,13293847,356,1472.1,513.5,3133,right
13,2,binary,37,1,postResponse,13292821.0,13293838.0,1017.0,87,R,13293869,13294185,318,1548.1,573.0,3280,right
13,2,binary,38,2,fixationCross,13294738.0,13295455.0,717.0,88,R,13294259,13294285,28,1541.5,578.7,3400,right
13,2,binary,38,2,trial,13294738.0,13295455.0,717.0,88,R,13294355,13294789,436,950.7,497.0,3709,NA
13,2,binary,38,2,trial,13294738.0,13295455.0,717.0,88,R,13294843,13295061,220,559.4,498.0,3789,left
13,2,binary,38,2,trial,13294738.0,13295455.0,717.0,88,R,13295125,13295619,496,1414.4,505.2,3369,right
13,2,binary,39,1,fixationCross,13297905.0,13298488.0,583.0,89,R,13295897,13296113,218,1106.7,489.6,3613,NA
13,2,binary,39,1,fixationCross,13297905.0,13298488.0,583.0,89,R,13296165,13296541,378,774.7,524.1,3913,NA
13,2,binary,39,1,fixationCross,13297905.0,13298488.0,583.0,89,R,13296569,13296865,298,618.1,463.3,3733,left
13,2,binary,39,1,fixationCross,13297905.0,13298488.0,583.0,89,R,13296893,13297225,334,836.9,490.3,3779,NA
13,2,binary,39,1,fixationCross,13297905.0,13298488.0,583.0,89,R,13297259,13297375,118,592.7,504.4,3914,left
13,2,binary,39,1,fixationCross,13297905.0,13298488.0,583.0,89,R,13297575,13297655,82,730.9,509.2,3894,left
13,2,binary,39,1,fixationCross,13297905.0,13298488.0,583.0,89,R,13297683,13297891,210,946.4,523.5,3955,NA
13,2,binary,39,1,trial,13297905.0,13298488.0,583.0,89,R,13297925,13298057,134,1205.8,517.3,4056,right
13,2,binary,39,1,trial,13297905.0,13298488.0,583.0,89,R,13298117,13298477,362,507.6,524.9,3765,left
13,2,binary,39,1,trial,13297905.0,13298488.0,583.0,89,R,13298491,13298723,234,541.0,528.0,3243,left
13,2,binary,40,1,fixationCross,13299672.0,13300438.0,766.0,90,R,13298919,13299167,250,1198.8,432.9,3142,right
13,2,binary,40,1,fixationCross,13299672.0,13300438.0,766.0,90,R,13299217,13299425,210,816.6,507.4,3627,NA
13,2,binary,40,1,trial,13299672.0,13300438.0,766.0,90,R,13299451,13299745,296,955.5,519.1,3863,NA
13,2,binary,40,1,trial,13299672.0,13300438.0,766.0,90,R,13299789,13299889,102,687.4,482.5,3925,left
13,2,binary,40,1,trial,13299672.0,13300438.0,766.0,90,R,13299927,13300037,112,454.4,492.5,3825,left
13,2,binary,40,1,trial,13299672.0,13300438.0,766.0,90,R,13300055,13300353,300,430.3,430.8,3396,left
13,2,binary,40,1,trial,13299672.0,13300438.0,766.0,90,R,13300427,13300661,236,1387.2,568.6,3158,right
13,2,binary,41,2,fixationCross,13301489.0,13302239.0,750.0,91,R,13300917,13301209,294,1171.1,447.8,3517,NA
13,2,binary,41,2,fixationCross,13301489.0,13302239.0,750.0,91,R,13301249,13301479,232,941.7,533.9,3872,NA
13,2,binary,41,2,trial,13301489.0,13302239.0,750.0,91,R,13301539,13301761,224,543.3,457.2,3826,left
13,2,binary,41,2,trial,13301489.0,13302239.0,750.0,91,R,13301827,13302199,374,1424.2,527.6,3574,right
13,2,binary,41,2,postResponse,13301489.0,13302239.0,750.0,91,R,13302227,13302581,356,1440.2,408.1,3386,right
13,2,binary,42,1,fixationCross,13304589.0,13305455.0,866.0,92,R,13302681,13302787,108,1433.5,416.6,3456,right
13,2,binary,42,1,fixationCross,13304589.0,13305455.0,866.0,92,R,13302855,13303391,538,767.3,500.8,3837,NA
13,2,binary,42,1,fixationCross,13304589.0,13305455.0,866.0,92,R,13303413,13303865,454,835.5,465.0,3933,NA
13,2,binary,42,1,fixationCross,13304589.0,13305455.0,866.0,92,R,13304063,13304285,224,809.0,505.9,4012,NA
13,2,binary,42,1,fixationCross,13304589.0,13305455.0,866.0,92,R,13304307,13304527,222,908.4,484.4,4093,NA
13,2,binary,42,1,trial,13304589.0,13305455.0,866.0,92,R,13304547,13304719,174,950.7,524.2,4003,NA
13,2,binary,42,1,trial,13304589.0,13305455.0,866.0,92,R,13304771,13304887,118,526.8,505.1,3876,left
13,2,binary,42,1,trial,13304589.0,13305455.0,866.0,92,R,13304907,13305251,346,599.0,484.9,3541,left
13,2,binary,42,1,trial,13304589.0,13305455.0,866.0,92,R,13305315,13305755,442,1398.6,561.1,3316,right
13,2,binary,43,2,fixationCross,13306505.0,13307422.0,917.0,93,R,13306009,13306215,208,1053.0,443.3,3609,NA
13,2,binary,43,2,trial,13306505.0,13307422.0,917.0,93,R,13306241,13306525,286,946.2,504.6,3912,NA
13,2,binary,43,2,trial,13306505.0,13307422.0,917.0,93,R,13306585,13306791,208,527.9,467.1,3854,left
13,2,binary,43,2,trial,13306505.0,13307422.0,917.0,93,R,13306869,13307015,148,1404.9,554.6,3401,right
13,2,binary,43,2,trial,13306505.0,13307422.0,917.0,93,R,13307037,13307249,214,1494.0,528.0,3123,right
13,2,binary,43,2,postResponse,13306505.0,13307422.0,917.0,93,R,13307257,13307763,508,1515.5,551.9,3041,right
13,2,binary,44,1,fixationCross,13310288.0,13311039.0,751.0,94,R,13308021,13308277,258,1015.4,443.9,3379,NA
13,2,binary,44,1,fixationCross,13310288.0,13311039.0,751.0,94,R,13308303,13308639,338,818.1,460.2,3815,NA
13,2,binary,44,1,fixationCross,13310288.0,13311039.0,751.0,94,R,13308667,13309009,344,646.3,456.9,3791,left
13,2,binary,44,1,fixationCross,13310288.0,13311039.0,751.0,94,R,13309043,13309417,376,858.0,481.7,3739,NA
13,2,binary,44,1,fixationCross,13310288.0,13311039.0,751.0,94,R,13309461,13309723,264,569.1,502.0,3851,left
13,2,binary,44,1,fixationCross,13310288.0,13311039.0,751.0,94,R,13309933,13310021,90,828.9,492.5,3766,NA
13,2,binary,44,1,fixationCross,13310288.0,13311039.0,751.0,94,R,13310047,13310135,90,958.4,523.1,3785,NA
13,2,binary,44,1,trial,13310288.0,13311039.0,751.0,94,R,13310353,13310433,82,991.7,464.6,3923,NA
13,2,binary,44,1,trial,13310288.0,13311039.0,751.0,94,R,13310481,13310765,286,562.7,500.2,3919,left
13,2,binary,44,1,trial,13310288.0,13311039.0,751.0,94,R,13310785,13311251,468,641.6,470.2,3469,left
13,2,binary,44,1,postResponse,13310288.0,13311039.0,751.0,94,R,13311307,13311385,80,1283.2,437.3,3194,right
13,2,binary,45,1,fixationCross,13312122.0,13312988.0,866.0,95,R,13311639,13311795,158,1360.3,402.8,3363,right
13,2,binary,45,1,trial,13312122.0,13312988.0,866.0,95,R,13311849,13312253,406,926.9,525.4,3903,NA
13,2,binary,45,1,trial,13312122.0,13312988.0,866.0,95,R,13312305,13312447,144,481.0,498.5,3852,left
13,2,binary,45,1,trial,13312122.0,13312988.0,866.0,95,R,13312469,13312967,500,481.1,414.9,3411,left
13,2,binary,45,1,trial,13312122.0,13312988.0,866.0,95,R,13313037,13313267,232,1418.8,440.6,3348,right
13,2,binary,46,2,fixationCross,13314005.0,13315022.0,1017.0,96,R,13313469,13313699,232,1274.2,368.9,3662,right
13,2,binary,46,2,trial,13314005.0,13315022.0,1017.0,96,R,13313745,13314141,398,916.0,496.9,4062,NA
13,2,binary,46,2,trial,13314005.0,13315022.0,1017.0,96,R,13314187,13314399,214,580.2,566.5,3952,left
13,2,binary,46,2,trial,13314005.0,13315022.0,1017.0,96,R,13314423,13314493,72,438.5,596.9,3638,left
13,2,binary,46,2,trial,13314005.0,13315022.0,1017.0,96,R,13314561,13314727,168,1387.9,425.5,3425,right
13,2,binary,46,2,postResponse,13314005.0,13315022.0,1017.0,96,R,13314741,13315363,624,1346.8,409.2,3389,right
13,2,binary,47,1,fixationCross,13315955.0,13316972.0,1017.0,97,R,13315437,13315633,198,1350.4,417.5,3530,right
13,2,binary,47,1,fixationCross,13315955.0,13316972.0,1017.0,97,R,13315695,13315859,166,898.0,576.3,3904,NA
13,2,binary,47,1,trial,13315955.0,13316972.0,1017.0,97,R,13315875,13316079,206,948.0,546.1,3968,NA
13,2,binary,47,1,trial,13315955.0,13316972.0,1017.0,97,R,13316129,13316267,140,523.3,515.5,3920,left
13,2,binary,47,1,trial,13315955.0,13316972.0,1017.0,97,R,13316279,13316557,280,543.1,492.5,3626,left
13,2,binary,47,1,trial,13315955.0,13316972.0,1017.0,97,R,13316629,13317145,518,1423.8,421.1,3360,right
13,2,binary,48,1,fixationCross,13318022.0,13319339.0,1317.0,98,R,13317397,13317711,316,1153.7,434.9,3442,NA
13,2,binary,48,1,fixationCross,13318022.0,13319339.0,1317.0,98,R,13317747,13318007,262,938.2,528.1,3829,NA
13,2,binary,48,1,trial,13318022.0,13319339.0,1317.0,98,R,13318049,13318191,144,685.0,456.9,3781,left
13,2,binary,48,1,trial,13318022.0,13319339.0,1317.0,98,R,13318229,13318345,118,526.9,517.7,3734,left
13,2,binary,48,1,trial,13318022.0,13319339.0,1317.0,98,R,13318363,13318539,178,496.0,480.4,3625,left
13,2,binary,48,1,trial,13318022.0,13319339.0,1317.0,98,R,13318611,13318867,258,1326.6,495.0,3462,right
13,2,binary,48,1,trial,13318022.0,13319339.0,1317.0,98,R,13318891,13319043,154,1454.0,506.1,3406,right
13,2,binary,48,1,trial,13318022.0,13319339.0,1317.0,98,R,13319059,13319377,320,1489.4,537.0,3399,right
13,2,binary,48,1,trial,13318022.0,13319339.0,1317.0,98,R,13319449,13319627,180,662.4,530.8,3561,left
13,2,binary,49,1,fixationCross,13321472.0,13322205.0,733.0,99,R,13319825,13320061,238,742.7,468.1,3671,NA
13,2,binary,49,1,fixationCross,13321472.0,13322205.0,733.0,99,R,13320083,13320877,796,646.7,480.5,3756,left
13,2,binary,49,1,fixationCross,13321472.0,13322205.0,733.0,99,R,13320901,13321163,264,740.2,504.1,3786,NA
13,2,binary,49,1,fixationCross,13321472.0,13322205.0,733.0,99,R,13321189,13321435,248,877.0,505.1,3889,NA
13,2,binary,49,1,trial,13321472.0,13322205.0,733.0,99,R,13321479,13321715,238,569.6,512.4,4031,left
13,2,binary,49,1,trial,13321472.0,13322205.0,733.0,99,R,13321737,13321893,158,636.9,523.2,3915,left
13,2,binary,49,1,trial,13321472.0,13322205.0,733.0,99,R,13321951,13322371,422,1321.4,584.9,3362,right
13,2,binary,50,2,fixationCross,13323255.0,13324006.0,751.0,100,R,13322665,13323171,508,918.3,446.8,3898,NA
13,2,binary,50,2,trial,13323255.0,13324006.0,751.0,100,R,13323227,13323453,228,620.3,509.1,3893,left
13,2,binary,50,2,trial,13323255.0,13324006.0,751.0,100,R,13323477,13323683,208,515.0,569.6,3725,left
13,2,binary,50,2,postResponse,13323255.0,13324006.0,751.0,100,R,13323757,13324347,592,1399.7,526.7,3324,right
13,3,valuation,1,6,fixationCross,13359723.0,13361805.0,2082.0,101,R,13359018,13359112,96,967.9,625.3,3927,NA
13,3,valuation,1,6,fixationCross,13359723.0,13361805.0,2082.0,101,R,13359136,13359306,172,1105.4,627.7,3914,NA
13,3,valuation,1,6,fixationCross,13359723.0,13361805.0,2082.0,101,R,13359324,13359430,108,1171.4,635.9,3868,NA
13,3,valuation,1,6,trial,13359723.0,13361805.0,2082.0,101,R,13359470,13359870,402,949.0,546.3,3949,NA
13,3,valuation,1,6,trial,13359723.0,13361805.0,2082.0,101,R,13359898,13360008,112,751.1,541.1,4033,NA
13,3,valuation,1,6,trial,13359723.0,13361805.0,2082.0,101,R,13360096,13360280,186,484.1,457.7,3783,likertVertical
13,3,valuation,1,6,trial,13359723.0,13361805.0,2082.0,101,R,13360302,13360558,258,511.0,548.6,3846,likertVertical
13,3,valuation,1,6,trial,13359723.0,13361805.0,2082.0,101,R,13360598,13360826,230,548.1,221.6,3802,likertVertical
13,3,valuation,1,6,trial,13359723.0,13361805.0,2082.0,101,R,13360896,13361028,134,1422.3,419.0,3735,right
13,3,valuation,1,6,trial,13359723.0,13361805.0,2082.0,101,R,13361052,13361270,220,1540.8,429.2,3760,right
13,3,valuation,1,6,trial,13359723.0,13361805.0,2082.0,101,R,13361352,13361762,412,510.4,328.0,3724,likertVertical
13,3,valuation,1,6,postResponse,13359723.0,13361805.0,2082.0,101,R,13361904,13362156,254,533.1,265.9,3713,likertVertical
13,3,valuation,2,6,fixationCross,13362956.0,13364889.0,1933.0,102,R,13362230,13362672,444,861.1,345.0,3995,NA
13,3,valuation,2,6,trial,13362956.0,13364889.0,1933.0,102,R,13362700,13363086,388,932.8,481.6,4056,NA
13,3,valuation,2,6,trial,13362956.0,13364889.0,1933.0,102,R,13363132,13363354,224,542.0,426.1,4074,likertVertical
13,3,valuation,2,6,trial,13362956.0,13364889.0,1933.0,102,R,13363438,13363686,250,1473.7,446.7,3798,right
13,3,valuation,2,6,trial,13362956.0,13364889.0,1933.0,102,R,13363760,13363960,202,519.0,642.7,3769,likertVertical
13,3,valuation,2,6,trial,13362956.0,13364889.0,1933.0,102,R,13363998,13364386,390,510.5,388.7,3650,likertVertical
13,3,valuation,2,6,trial,13362956.0,13364889.0,1933.0,102,R,13364398,13364804,408,515.8,357.6,3851,likertVertical
13,3,valuation,2,6,trial,13362956.0,13364889.0,1933.0,102,R,13364824,13365090,268,531.6,311.5,3884,likertVertical
13,3,valuation,3,4,fixationCross,13365939.0,13367272.0,1333.0,103,R,13365342,13365658,318,1108.0,484.0,3917,NA
13,3,valuation,3,4,fixationCross,13365939.0,13367272.0,1333.0,103,R,13365694,13365888,196,917.6,490.7,4177,NA
13,3,valuation,3,4,trial,13365939.0,13367272.0,1333.0,103,R,13365948,13366098,152,420.0,285.6,4064,likertVertical
13,3,valuation,3,4,trial,13365939.0,13367272.0,1333.0,103,R,13366134,13366244,112,596.5,423.5,4049,likertVertical
13,3,valuation,3,4,trial,13365939.0,13367272.0,1333.0,103,R,13366320,13366582,264,1418.3,555.5,3858,right
13,3,valuation,3,4,trial,13365939.0,13367272.0,1333.0,103,R,13366650,13366764,116,587.0,461.4,3818,likertVertical
13,3,valuation,3,4,trial,13365939.0,13367272.0,1333.0,103,R,13366782,13367270,490,509.4,449.9,3578,likertVertical
13,3,valuation,3,4,postResponse,13365939.0,13367272.0,1333.0,103,R,13367340,13367610,272,1408.3,497.8,3645,right
13,3,valuation,4,7,fixationCross,13368389.0,13370189.0,1800.0,104,R,13367710,13367764,56,1401.3,500.6,3811,right
13,3,valuation,4,7,fixationCross,13368389.0,13370189.0,1800.0,104,R,13367844,13368086,244,593.7,382.9,3988,likertVertical
13,3,valuation,4,7,trial,13368389.0,13370189.0,1800.0,104,R,13368130,13368454,326,978.4,485.5,3900,NA
13,3,valuation,4,7,trial,13368389.0,13370189.0,1800.0,104,R,13368672,13368724,54,1184.6,524.5,3939,right
13,3,valuation,4,7,trial,13368389.0,13370189.0,1800.0,104,R,13368756,13368908,154,1459.9,558.2,3794,right
13,3,valuation,4,7,trial,13368389.0,13370189.0,1800.0,104,R,13369000,13369138,140,500.8,312.1,3919,likertVertical
13,3,valuation,4,7,trial,13368389.0,13370189.0,1800.0,104,R,13369160,13369398,240,530.1,281.3,3939,likertVertical
13,3,valuation,4,7,trial,13368389.0,13370189.0,1800.0,104,R,13369418,13369690,274,520.8,210.7,3786,NA
13,3,valuation,4,7,trial,13368389.0,13370189.0,1800.0,104,R,13369710,13370076,368,603.2,198.3,3729,NA
13,3,valuation,4,7,trial,13368389.0,13370189.0,1800.0,104,R,13370096,13370232,138,528.6,195.6,3772,NA
13,3,valuation,4,7,trial,13368389.0,13370189.0,1800.0,104,R,13370310,13370438,130,1455.8,469.9,3751,right
13,3,valuation,5,5,fixationCross,13371273.0,13372440.0,1167.0,105,R,13370640,13370988,350,795.1,325.2,4003,NA
13,3,valuation,5,5,fixationCross,13371273.0,13372440.0,1167.0,105,R,13371024,13371272,250,956.2,513.0,4145,NA
13,3,valuation,5,5,trial,13371273.0,13372440.0,1167.0,105,R,13371316,13371466,152,670.3,317.9,3926,likertVertical
13,3,valuation,5,5,trial,13371273.0,13372440.0,1167.0,105,R,13371534,13371784,252,1420.7,508.3,3801,right
13,3,valuation,5,5,trial,13371273.0,13372440.0,1167.0,105,R,13371862,13372406,546,497.1,318.1,3419,likertVertical
13,3,valuation,5,5,postResponse,13371273.0,13372440.0,1167.0,105,R,13372424,13372792,370,508.5,386.9,3521,likertVertical
13,3,valuation,6,6,fixationCross,13373506.0,13375956.0,2450.0,106,R,13372892,13373236,346,831.0,469.4,3902,NA
13,3,valuation,6,6,trial,13373506.0,13375956.0,2450.0,106,R,13373264,13373632,370,961.7,553.5,4038,NA
13,3,valuation,6,6,trial,13373506.0,13375956.0,2450.0,106,R,13373678,13373760,84,1427.9,513.3,3925,right
13,3,valuation,6,6,trial,13373506.0,13375956.0,2450.0,106,R,13373934,13374052,120,1578.4,414.8,3525,right
13,3,valuation,6,6,trial,13373506.0,13375956.0,2450.0,106,R,13374134,13374276,144,495.6,614.4,3598,likertVertical
13,3,valuation,6,6,trial,13373506.0,13375956.0,2450.0,106,R,13374308,13374478,172,500.5,470.5,3580,likertVertical
13,3,valuation,6,6,trial,13373506.0,13375956.0,2450.0,106,R,13374492,13374790,300,503.0,413.4,3541,likertVertical
13,3,valuation,6,6,trial,13373506.0,13375956.0,2450.0,106,R,13374816,13375376,562,508.3,303.1,3557,likertVertical
13,3,valuation,6,6,trial,13373506.0,13375956.0,2450.0,106,R,13375390,13375554,166,534.1,261.8,3674,likertVertical
13,3,valuation,6,6,trial,13373506.0,13375956.0,2450.0,106,R,13375574,13376140,568,506.2,299.4,3856,likertVertical
13,3,valuation,7,2,fixationCross,13377106.0,13378289.0,1183.0,107,R,13376376,13376570,196,1329.4,407.2,3832,right
13,3,valuation,7,2,fixationCross,13377106.0,13378289.0,1183.0,107,R,13376630,13376834,206,797.9,432.7,4134,NA
13,3,valuation,7,2,trial,13377106.0,13378289.0,1183.0,107,R,13376862,13377130,270,948.4,520.3,4109,NA
13,3,valuation,7,2,trial,13377106.0,13378289.0,1183.0,107,R,13377162,13377278,118,794.0,471.7,3959,NA
13,3,valuation,7,2,trial,13377106.0,13378289.0,1183.0,107,R,13377332,13377626,296,1402.4,521.1,3735,right
13,3,valuation,7,2,trial,13377106.0,13378289.0,1183.0,107,R,13377648,13377714,68,1506.2,499.1,3583,right
13,3,valuation,7,2,trial,13377106.0,13378289.0,1183.0,107,R,13377790,13378158,370,495.7,655.6,3680,likertVertical
13,3,valuation,7,2,trial,13377106.0,13378289.0,1183.0,107,R,13378182,13378506,326,494.2,745.5,3855,likertVertical
13,3,valuation,8,3,fixationCross,13379389.0,13380889.0,1500.0,108,R,13378744,13379106,364,1176.3,422.8,3962,NA
13,3,valuation,8,3,trial,13379389.0,13380889.0,1500.0,108,R,13379146,13379506,362,941.1,536.5,4166,NA
13,3,valuation,8,3,trial,13379389.0,13380889.0,1500.0,108,R,13379560,13379724,166,1340.6,509.1,3944,right
13,3,valuation,8,3,trial,13379389.0,13380889.0,1500.0,108,R,13379748,13379856,110,1448.8,507.4,3694,right
13,3,valuation,8,3,trial,13379389.0,13380889.0,1500.0,108,R,13379930,13380110,182,549.7,657.2,3603,likertVertical
13,3,valuation,8,3,trial,13379389.0,13380889.0,1500.0,108,R,13380130,13380322,194,487.9,695.9,3562,likertVertical
13,3,valuation,8,3,trial,13379389.0,13380889.0,1500.0,108,R,13380330,13381126,798,488.6,675.7,3769,likertVertical
13,3,valuation,8,3,postResponse,13379389.0,13380889.0,1500.0,108,R,13381184,13381236,54,1029.1,504.0,3961,NA
13,3,valuation,9,6,trial,13381773.0,13382922.0,1149.0,109,R,13381310,13381826,518,1022.0,513.1,4011,NA
13,3,valuation,9,6,trial,13381773.0,13382922.0,1149.0,109,R,13381844,13381916,74,967.2,480.5,4015,NA
13,3,valuation,9,6,trial,13381773.0,13382922.0,1149.0,109,R,13381966,13382060,96,1421.3,522.5,3895,right
13,3,valuation,9,6,trial,13381773.0,13382922.0,1149.0,109,R,13382220,13382258,40,1506.4,509.8,3578,right
13,3,valuation,9,6,trial,13381773.0,13382922.0,1149.0,109,R,13382336,13382714,380,522.8,346.9,3566,likertVertical
13,3,valuation,9,6,trial,13381773.0,13382922.0,1149.0,109,R,13382734,13382904,172,515.7,293.8,3569,likertVertical
13,3,valuation,9,6,postResponse,13381773.0,13382922.0,1149.0,109,R,13382986,13383270,286,1433.8,499.2,3584,right
13,3,valuation,10,2,fixationCross,13383973.0,13385156.0,1183.0,110,R,13383344,13383416,74,1421.6,516.5,3686,right
13,3,valuation,10,2,fixationCross,13383973.0,13385156.0,1183.0,110,R,13383500,13383682,184,673.3,398.3,3895,likertVertical
13,3,valuation,10,2,trial,13383973.0,13385156.0,1183.0,110,R,13383730,13383988,260,1017.5,524.2,3847,NA
13,3,valuation,10,2,trial,13383973.0,13385156.0,1183.0,110,R,13384006,13384106,102,1014.7,478.5,3852,NA
13,3,valuation,10,2,trial,13383973.0,13385156.0,1183.0,110,R,13384154,13384250,98,1429.9,510.6,3846,right
13,3,valuation,10,2,trial,13383973.0,13385156.0,1183.0,110,R,13384414,13384476,64,1475.5,365.2,3505,right
13,3,valuation,10,2,trial,13383973.0,13385156.0,1183.0,110,R,13384556,13384940,386,468.9,641.7,3489,likertVertical
13,3,valuation,10,2,trial,13383973.0,13385156.0,1183.0,110,R,13384968,13385260,294,488.8,776.3,3621,likertVertical
13,3,valuation,10,2,trial,13383973.0,13385156.0,1183.0,110,R,13385270,13385370,102,505.7,758.8,3754,likertVertical
13,3,valuation,10,2,postResponse,13383973.0,13385156.0,1183.0,110,R,13385430,13385502,74,1053.5,496.4,3781,NA
13,3,valuation,11,5,trial,13386022.0,13387706.0,1684.0,111,R,13385576,13386160,586,1041.8,507.2,3857,NA
13,3,valuation,11,5,trial,13386022.0,13387706.0,1684.0,111,R,13386200,13386340,142,1382.9,443.3,3870,right
13,3,valuation,11,5,trial,13386022.0,13387706.0,1684.0,111,R,13386500,13386588,90,1396.6,350.4,3464,right
13,3,valuation,11,5,trial,13386022.0,13387706.0,1684.0,111,R,13386660,13386822,164,538.5,350.6,3524,likertVertical
13,3,valuation,11,5,trial,13386022.0,13387706.0,1684.0,111,R,13386846,13387046,202,489.8,476.3,3579,likertVertical
13,3,valuation,11,5,trial,13386022.0,13387706.0,1684.0,111,R,13387058,13387186,130,500.7,448.1,3582,likertVertical
13,3,valuation,11,5,trial,13386022.0,13387706.0,1684.0,111,R,13387214,13387546,334,513.8,294.4,3633,likertVertical
13,3,valuation,11,5,trial,13386022.0,13387706.0,1684.0,111,R,13387574,13387734,162,499.1,436.9,3813,likertVertical
13,3,valuation,11,5,trial,13386022.0,13387706.0,1684.0,111,R,13387794,13387962,170,1137.6,395.5,3853,NA
13,3,valuation,12,4,fixationCross,13388806.0,13390356.0,1550.0,112,R,13388230,13388524,296,826.0,423.6,3968,NA
13,3,valuation,12,4,trial,13388806.0,13390356.0,1550.0,112,R,13388554,13388928,376,985.9,477.2,3986,NA
13,3,valuation,12,4,trial,13388806.0,13390356.0,1550.0,112,R,13388970,13389150,182,1355.0,486.6,3762,right
13,3,valuation,12,4,trial,13388806.0,13390356.0,1550.0,112,R,13389176,13389324,150,1491.8,504.0,3513,right
13,3,valuation,12,4,trial,13388806.0,13390356.0,1550.0,112,R,13389406,13389594,190,483.5,554.6,3533,likertVertical
13,3,valuation,12,4,trial,13388806.0,13390356.0,1550.0,112,R,13389620,13390030,412,494.4,429.1,3510,likertVertical
13,3,valuation,12,4,trial,13388806.0,13390356.0,1550.0,112,R,13390108,13390296,190,1522.4,535.8,3612,right
13,3,valuation,12,4,trial,13388806.0,13390356.0,1550.0,112,R,13390374,13390632,260,520.8,497.4,3681,likertVertical
13,3,valuation,13,3,fixationCross,13391373.0,13393073.0,1700.0,113,R,13390908,13391106,200,839.1,498.2,3682,NA
13,3,valuation,13,3,fixationCross,13391373.0,13393073.0,1700.0,113,R,13391134,13391356,224,997.0,518.1,3845,NA
13,3,valuation,13,3,trial,13391373.0,13393073.0,1700.0,113,R,13391386,13391532,148,1235.0,475.9,3800,right
13,3,valuation,13,3,trial,13391373.0,13393073.0,1700.0,113,R,13391560,13391826,268,1385.9,558.6,3691,right
13,3,valuation,13,3,trial,13391373.0,13393073.0,1700.0,113,R,13391904,13392100,198,501.5,501.6,3558,likertVertical
13,3,valuation,13,3,trial,13391373.0,13393073.0,1700.0,113,R,13392116,13392468,354,495.8,459.0,3540,likertVertical
13,3,valuation,13,3,trial,13391373.0,13393073.0,1700.0,113,R,13392494,13392846,354,499.1,306.6,3644,likertVertical
13,3,valuation,13,3,trial,13391373.0,13393073.0,1700.0,113,R,13392886,13393272,388,480.3,590.7,3883,likertVertical
13,3,valuation,14,6,fixationCross,13394089.0,13395190.0,1101.0,114,R,13393584,13393802,220,845.5,460.5,3862,NA
13,3,valuation,14,6,fixationCross,13394089.0,13395190.0,1101.0,114,R,13393832,13394012,182,1015.1,511.7,3988,NA
13,3,valuation,14,6,trial,13394089.0,13395190.0,1101.0,114,R,13394046,13394232,188,1250.3,471.5,3922,right
13,3,valuation,14,6,trial,13394089.0,13395190.0,1101.0,114,R,13394262,13394560,300,1448.9,540.0,3737,right
13,3,valuation,14,6,trial,13394089.0,13395190.0,1101.0,114,R,13394640,13395102,464,514.0,341.0,3382,likertVertical
13,3,valuation,14,6,trial,13394089.0,13395190.0,1101.0,114,R,13395114,13395394,282,490.5,326.0,3416,likertVertical
13,3,valuation,14,6,postResponse,13394089.0,13395190.0,1101.0,114,R,13395466,13395532,68,1190.8,446.3,3533,right
13,3,valuation,15,5,fixationCross,13396540.0,13398040.0,1500.0,115,R,13395632,13396266,636,1181.2,457.7,3773,NA
13,3,valuation,15,5,trial,13396540.0,13398040.0,1500.0,115,R,13396298,13396660,364,1044.9,491.3,3987,NA
13,3,valuation,15,5,trial,13396540.0,13398040.0,1500.0,115,R,13396708,13396794,88,1336.8,591.3,4004,right
13,3,valuation,15,5,trial,13396540.0,13398040.0,1500.0,115,R,13396960,13397034,76,1513.4,551.1,3600,right
13,3,valuation,15,5,trial,13396540.0,13398040.0,1500.0,115,R,13397116,13397322,208,506.7,346.4,3555,likertVertical
13,3,valuation,15,5,trial,13396540.0,13398040.0,1500.0,115,R,13397344,13397772,430,491.4,412.3,3512,likertVertical
13,3,valuation,15,5,trial,13396540.0,13398040.0,1500.0,115,R,13397790,13398252,464,502.4,337.8,3601,likertVertical
13,3,valuation,15,5,postResponse,13396540.0,13398040.0,1500.0,115,R,13398314,13398394,82,1137.3,371.7,3655,NA
13,3,valuation,16,3,fixationCross,13399273.0,13400357.0,1084.0,116,R,13398468,13398534,68,1124.6,397.4,3685,NA
13,3,valuation,16,3,fixationCross,13399273.0,13400357.0,1084.0,116,R,13398790,13398994,206,1112.7,517.4,3932,NA
13,3,valuation,16,3,trial,13399273.0,13400357.0,1084.0,116,R,13399016,13399400,386,1006.8,481.1,4022,NA
13,3,valuation,16,3,trial,13399273.0,13400357.0,1084.0,116,R,13399446,13399634,190,1357.4,538.1,3815,right
