participantNo,block,task,blockTrial,response,trialStage,trialStartTime,trialFinishTime,rt,trial,eye,fixStart,fixEnd,fixLength,fixPosX,fixPosY,dilation,aoi
63,1,continuous,1,79,fixationCross,5250640.0,5258007.0,7367.0,1,L,5249791,5249955,166,945.0,527.6,4629,NA
63,1,continuous,1,79,fixationCross,5250640.0,5258007.0,7367.0,1,L,5249981,5250301,322,914.0,399.1,4718,NA
63,1,continuous,1,79,trial,5250640.0,5258007.0,7367.0,1,L,5250329,5250849,522,970.3,547.2,4731,NA
63,1,continuous,1,79,trial,5250640.0,5258007.0,7367.0,1,L,5250905,5251091,188,516.8,587.2,4748,left
63,1,continuous,1,79,trial,5250640.0,5258007.0,7367.0,1,L,5251115,5251309,196,500.1,480.5,4498,left
63,1,continuous,1,79,trial,5250640.0,5258007.0,7367.0,1,L,5251381,5251573,194,1437.5,573.4,4219,right
63,1,continuous,1,79,trial,5250640.0,5258007.0,7367.0,1,L,5251591,5251985,396,1494.2,566.5,4392,right
63,1,continuous,1,79,trial,5250640.0,5258007.0,7367.0,1,L,5252057,5252223,168,521.0,494.4,4547,left
63,1,continuous,1,79,trial,5250640.0,5258007.0,7367.0,1,L,5252241,5252475,236,488.7,460.1,4541,left
63,1,continuous,1,79,trial,5250640.0,5258007.0,7367.0,1,L,5252485,5252707,224,487.3,439.5,4463,left
63,1,continuous,1,79,trial,5250640.0,5258007.0,7367.0,1,L,5252771,5252909,140,974.0,945.3,4443,likertHorizontal
63,1,continuous,1,79,trial,5250640.0,5258007.0,7367.0,1,L,5252929,5253091,164,957.9,977.5,4474,likertHorizontal
63,1,continuous,1,79,trial,5250640.0,5258007.0,7367.0,1,L,5253149,5253465,318,1494.9,575.2,4318,right
63,1,continuous,1,79,trial,5250640.0,5258007.0,7367.0,1,L,5253535,5253931,398,584.8,554.3,4696,left
63,1,continuous,1,79,trial,5250640.0,5258007.0,7367.0,1,L,5253957,5254355,400,497.2,486.6,4695,left
63,1,continuous,1,79,trial,5250640.0,5258007.0,7367.0,1,L,5254367,5255019,654,491.5,459.1,4604,left
63,1,continuous,1,79,trial,5250640.0,5258007.0,7367.0,1,L,5255047,5255397,352,572.2,550.1,4631,left
63,1,continuous,1,79,trial,5250640.0,5258007.0,7367.0,1,L,5255419,5255571,154,501.4,477.9,4595,left
63,1,continuous,1,79,trial,5250640.0,5258007.0,7367.0,1,L,5255579,5255769,192,488.4,459.6,4559,left
63,1,continuous,1,79,trial,5250640.0,5258007.0,7367.0,1,L,5255779,5255917,140,498.5,444.9,4525,left
63,1,continuous,1,79,trial,5250640.0,5258007.0,7367.0,1,L,5255991,5256187,198,1461.6,564.5,4331,right
63,1,continuous,1,79,trial,5250640.0,5258007.0,7367.0,1,L,5256201,5256743,544,1494.6,552.2,4299,right
63,1,continuous,1,79,trial,5250640.0,5258007.0,7367.0,1,L,5256801,5256997,198,1066.4,850.9,4423,likertHorizontal
63,1,continuous,1,79,trial,5250640.0,5258007.0,7367.0,1,L,5257033,5257333,302,1237.4,968.0,4589,NA
63,1,continuous,1,79,trial,5250640.0,5258007.0,7367.0,1,L,5257357,5257575,220,1176.5,841.2,4683,likertHorizontal
63,1,continuous,1,79,trial,5250640.0,5258007.0,7367.0,1,L,5257603,5257805,204,1220.4,966.2,4629,NA
63,1,continuous,1,79,trial,5250640.0,5258007.0,7367.0,1,L,5257837,5258015,180,1394.9,985.6,4814,NA
63,1,continuous,1,79,postResponse,5250640.0,5258007.0,7367.0,1,L,5258057,5258373,318,1213.8,732.4,4716,NA
63,1,continuous,2,16,fixationCross,5259157.0,5264307.0,5150.0,2,L,5258473,5258833,362,874.8,683.2,5002,NA
63,1,continuous,2,16,trial,5259157.0,5264307.0,5150.0,2,L,5258861,5259415,556,966.6,542.9,4877,NA
63,1,continuous,2,16,trial,5259157.0,5264307.0,5150.0,2,L,5259465,5259701,238,456.7,584.6,4659,left
63,1,continuous,2,16,trial,5259157.0,5264307.0,5150.0,2,L,5259721,5259863,144,471.0,655.8,4455,left
63,1,continuous,2,16,trial,5259157.0,5264307.0,5150.0,2,L,5259937,5260447,512,1478.9,506.2,4083,right
63,1,continuous,2,16,trial,5259157.0,5264307.0,5150.0,2,L,5260473,5260769,298,1489.6,618.8,4149,right
63,1,continuous,2,16,trial,5259157.0,5264307.0,5150.0,2,L,5260843,5261023,182,515.9,670.4,4319,left
63,1,continuous,2,16,trial,5259157.0,5264307.0,5150.0,2,L,5261041,5261363,324,480.1,684.3,4215,left
63,1,continuous,2,16,trial,5259157.0,5264307.0,5150.0,2,L,5261415,5261603,190,963.6,972.6,4024,likertHorizontal
63,1,continuous,2,16,trial,5259157.0,5264307.0,5150.0,2,L,5261659,5261891,234,1494.0,534.2,3888,right
63,1,continuous,2,16,trial,5259157.0,5264307.0,5150.0,2,L,5261907,5262263,358,1496.4,495.3,4061,right
63,1,continuous,2,16,trial,5259157.0,5264307.0,5150.0,2,L,5262295,5262733,440,1498.9,642.5,4193,right
63,1,continuous,2,16,trial,5259157.0,5264307.0,5150.0,2,L,5262755,5263067,314,1346.5,617.9,4262,right
63,1,continuous,2,16,trial,5259157.0,5264307.0,5150.0,2,L,5263137,5263657,522,688.6,921.5,4589,NA
63,1,continuous,2,16,trial,5259157.0,5264307.0,5150.0,2,L,5263693,5263863,172,739.4,745.6,4516,likertHorizontal
63,1,continuous,2,16,trial,5259157.0,5264307.0,5150.0,2,L,5263901,5264251,352,623.2,990.1,4673,NA
63,1,continuous,2,16,postResponse,5259157.0,5264307.0,5150.0,2,L,5264293,5264655,364,725.9,755.4,4532,NA
63,1,continuous,3,1,fixationCross,5265490.0,5267441.0,1951.0,3,L,5264757,5265059,304,721.3,758.9,4705,NA
63,1,continuous,3,1,trial,5265490.0,5267441.0,1951.0,3,L,5265187,5265669,484,965.1,555.1,4770,NA
63,1,continuous,3,1,trial,5265490.0,5267441.0,1951.0,3,L,5265717,5266029,314,524.8,585.6,4419,left
63,1,continuous,3,1,trial,5265490.0,5267441.0,1951.0,3,L,5266099,5266589,492,1432.0,632.7,3990,right
63,1,continuous,3,1,trial,5265490.0,5267441.0,1951.0,3,L,5266661,5266957,298,489.5,651.7,4055,left
63,1,continuous,3,1,trial,5265490.0,5267441.0,1951.0,3,L,5266999,5267693,696,492.1,978.1,4437,NA
63,1,continuous,4,86,fixationCross,5268357.0,5271440.0,3083.0,4,L,5267853,5268219,368,894.7,608.5,4541,NA
63,1,continuous,4,86,trial,5268357.0,5271440.0,3083.0,4,L,5268243,5268615,374,960.0,551.4,4670,NA
63,1,continuous,4,86,trial,5268357.0,5271440.0,3083.0,4,L,5268659,5268843,186,1332.7,548.4,4265,right
63,1,continuous,4,86,trial,5268357.0,5271440.0,3083.0,4,L,5268881,5268999,120,1570.5,454.6,4145,right
63,1,continuous,4,86,trial,5268357.0,5271440.0,3083.0,4,L,5269013,5269285,274,1604.3,444.6,4138,right
63,1,continuous,4,86,trial,5268357.0,5271440.0,3083.0,4,L,5269361,5269673,314,521.2,586.7,4395,left
63,1,continuous,4,86,trial,5268357.0,5271440.0,3083.0,4,L,5269695,5270067,374,461.9,642.0,4243,left
63,1,continuous,4,86,trial,5268357.0,5271440.0,3083.0,4,L,5270137,5270429,294,1364.3,515.0,3859,right
63,1,continuous,4,86,trial,5268357.0,5271440.0,3083.0,4,L,5270485,5270757,274,1311.2,970.6,4177,NA
63,1,continuous,4,86,trial,5268357.0,5271440.0,3083.0,4,L,5270775,5270943,170,1385.0,976.7,4308,NA
63,1,continuous,4,86,trial,5268357.0,5271440.0,3083.0,4,L,5270991,5271193,204,1285.9,635.6,4286,right
63,1,continuous,4,86,trial,5268357.0,5271440.0,3083.0,4,L,5271219,5271411,194,1252.9,516.6,4310,right
63,1,continuous,4,86,postResponse,5268357.0,5271440.0,3083.0,4,L,5271453,5271793,342,1520.2,466.0,4300,right
63,1,continuous,5,85,fixationCross,5272556.0,5277090.0,4534.0,5,L,5271895,5272033,140,1518.4,473.6,4432,right
63,1,continuous,5,85,fixationCross,5272556.0,5277090.0,4534.0,5,L,5272075,5272253,180,1215.1,514.5,4557,right
63,1,continuous,5,85,trial,5272556.0,5277090.0,4534.0,5,L,5272289,5272707,420,967.1,553.6,4633,NA
63,1,continuous,5,85,trial,5272556.0,5277090.0,4534.0,5,L,5272751,5272941,192,562.7,562.3,4490,left
63,1,continuous,5,85,trial,5272556.0,5277090.0,4534.0,5,L,5272961,5273113,154,501.5,590.0,4288,left
63,1,continuous,5,85,trial,5272556.0,5277090.0,4534.0,5,L,5273185,5273355,172,1470.7,521.4,4028,right
63,1,continuous,5,85,trial,5272556.0,5277090.0,4534.0,5,L,5273371,5273587,218,1528.8,535.1,3983,right
63,1,continuous,5,85,trial,5272556.0,5277090.0,4534.0,5,L,5273617,5273973,358,1318.7,598.0,3950,right
63,1,continuous,5,85,trial,5272556.0,5277090.0,4534.0,5,L,5274011,5274355,346,1534.1,517.1,3889,right
63,1,continuous,5,85,trial,5272556.0,5277090.0,4534.0,5,L,5274373,5274615,244,1529.8,477.8,3962,right
63,1,continuous,5,85,trial,5272556.0,5277090.0,4534.0,5,L,5274653,5274803,152,1312.6,600.7,4003,right
63,1,continuous,5,85,trial,5272556.0,5277090.0,4534.0,5,L,5274865,5275083,220,552.9,562.2,4155,left
63,1,continuous,5,85,trial,5272556.0,5277090.0,4534.0,5,L,5275103,5275333,232,493.6,594.8,4145,left
63,1,continuous,5,85,trial,5272556.0,5277090.0,4534.0,5,L,5275395,5275607,214,1109.1,942.9,4098,likertHorizontal
63,1,continuous,5,85,trial,5272556.0,5277090.0,4534.0,5,L,5275645,5276019,376,1363.6,961.6,4078,NA
63,1,continuous,5,85,trial,5272556.0,5277090.0,4534.0,5,L,5276037,5276255,220,1426.8,962.1,4215,NA
63,1,continuous,5,85,trial,5272556.0,5277090.0,4534.0,5,L,5276273,5276793,522,1373.2,956.0,4342,NA
63,1,continuous,5,85,postResponse,5272556.0,5277090.0,4534.0,5,L,5276837,5277409,574,1297.9,646.8,4328,right
63,1,continuous,6,12,fixationCross,5277990.0,5283840.0,5850.0,6,L,5277671,5277873,204,933.7,589.5,4484,NA
63,1,continuous,6,12,trial,5277990.0,5283840.0,5850.0,6,L,5277891,5278169,280,977.5,553.7,4672,NA
63,1,continuous,6,12,trial,5277990.0,5283840.0,5850.0,6,L,5278213,5278347,136,595.1,597.0,4321,left
63,1,continuous,6,12,trial,5277990.0,5283840.0,5850.0,6,L,5278373,5278731,360,474.5,476.6,4068,left
63,1,continuous,6,12,trial,5277990.0,5283840.0,5850.0,6,L,5278743,5278993,252,474.3,454.2,4004,left
63,1,continuous,6,12,trial,5277990.0,5283840.0,5850.0,6,L,5279073,5279401,330,1491.8,522.8,3907,right
63,1,continuous,6,12,trial,5277990.0,5283840.0,5850.0,6,L,5279421,5279607,188,1439.1,544.2,4083,right
63,1,continuous,6,12,trial,5277990.0,5283840.0,5850.0,6,L,5279635,5279923,290,1408.4,413.9,4048,right
63,1,continuous,6,12,trial,5277990.0,5283840.0,5850.0,6,L,5280001,5280285,286,471.5,520.6,4205,left
63,1,continuous,6,12,trial,5277990.0,5283840.0,5850.0,6,L,5280321,5280483,164,672.8,626.6,4191,left
63,1,continuous,6,12,trial,5277990.0,5283840.0,5850.0,6,L,5280549,5280775,228,1475.5,617.0,3892,right
63,1,continuous,6,12,trial,5277990.0,5283840.0,5850.0,6,L,5280789,5281005,218,1446.3,584.5,3868,right
63,1,continuous,6,12,trial,5277990.0,5283840.0,5850.0,6,L,5281031,5281333,304,1605.3,561.7,3884,right
63,1,continuous,6,12,trial,5277990.0,5283840.0,5850.0,6,L,5281343,5281809,468,1602.8,542.7,3896,right
63,1,continuous,6,12,trial,5277990.0,5283840.0,5850.0,6,L,5281835,5282017,184,1408.9,601.3,3972,right
63,1,continuous,6,12,trial,5277990.0,5283840.0,5850.0,6,L,5282063,5282249,188,1181.5,886.3,4176,likertHorizontal
63,1,continuous,6,12,trial,5277990.0,5283840.0,5850.0,6,L,5282311,5282561,252,495.1,552.4,4419,left
63,1,continuous,6,12,trial,5277990.0,5283840.0,5850.0,6,L,5282587,5282821,236,683.4,625.0,4407,left
63,1,continuous,6,12,trial,5277990.0,5283840.0,5850.0,6,L,5282837,5283005,170,663.8,659.1,4303,left
63,1,continuous,6,12,trial,5277990.0,5283840.0,5850.0,6,L,5283045,5283395,352,693.9,917.9,4328,NA
63,1,continuous,6,12,trial,5277990.0,5283840.0,5850.0,6,L,5283419,5283697,280,601.1,961.9,4483,NA
63,1,continuous,6,12,trial,5277990.0,5283840.0,5850.0,6,L,5283743,5284085,344,669.0,651.0,4448,left
63,1,continuous,7,7,fixationCross,5284940.0,5288374.0,3434.0,7,L,5284327,5284631,306,852.1,657.5,4608,NA
63,1,continuous,7,7,trial,5284940.0,5288374.0,3434.0,7,L,5284659,5285099,442,979.2,540.4,4563,NA
63,1,continuous,7,7,trial,5284940.0,5288374.0,3434.0,7,L,5285145,5285357,214,562.5,538.1,4517,left
63,1,continuous,7,7,trial,5284940.0,5288374.0,3434.0,7,L,5285383,5285563,182,424.5,560.2,4441,left
63,1,continuous,7,7,trial,5284940.0,5288374.0,3434.0,7,L,5285627,5285811,186,1248.3,470.4,4177,right
63,1,continuous,7,7,trial,5284940.0,5288374.0,3434.0,7,L,5285829,5285975,148,1296.1,457.4,4175,right
63,1,continuous,7,7,trial,5284940.0,5288374.0,3434.0,7,L,5286019,5286311,294,1508.4,616.9,4385,right
63,1,continuous,7,7,trial,5284940.0,5288374.0,3434.0,7,L,5286383,5286689,308,526.7,523.8,4396,left
63,1,continuous,7,7,trial,5284940.0,5288374.0,3434.0,7,L,5286753,5286903,152,759.2,943.9,4499,likertHorizontal
63,1,continuous,7,7,trial,5284940.0,5288374.0,3434.0,7,L,5286941,5287205,266,504.5,984.0,4701,NA
63,1,continuous,7,7,trial,5284940.0,5288374.0,3434.0,7,L,5287269,5287439,172,1307.1,528.7,4540,right
63,1,continuous,7,7,trial,5284940.0,5288374.0,3434.0,7,L,5287467,5287839,374,1286.8,407.5,4492,right
63,1,continuous,7,7,trial,5284940.0,5288374.0,3434.0,7,L,5287915,5288195,282,564.0,931.5,4756,NA
63,1,continuous,7,7,trial,5284940.0,5288374.0,3434.0,7,L,5288217,5288663,448,528.5,974.1,4763,NA
63,1,continuous,8,4,fixationCross,5289240.0,5292474.0,3234.0,8,L,5288779,5288935,158,726.9,704.9,4774,left
63,1,continuous,8,4,fixationCross,5289240.0,5292474.0,3234.0,8,L,5288979,5289167,190,1018.2,557.9,4876,NA
63,1,continuous,8,4,trial,5289240.0,5292474.0,3234.0,8,L,5289189,5289413,226,961.5,550.5,5137,NA
63,1,continuous,8,4,trial,5289240.0,5292474.0,3234.0,8,L,5289467,5289683,218,532.2,629.8,5020,left
63,1,continuous,8,4,trial,5289240.0,5292474.0,3234.0,8,L,5289707,5289897,192,436.7,565.1,4605,left
63,1,continuous,8,4,trial,5289240.0,5292474.0,3234.0,8,L,5289973,5290139,168,1460.4,517.5,4186,right
63,1,continuous,8,4,trial,5289240.0,5292474.0,3234.0,8,L,5290159,5290311,154,1549.3,522.6,4126,right
63,1,continuous,8,4,trial,5289240.0,5292474.0,3234.0,8,L,5290343,5290635,294,1334.3,462.4,4167,right
63,1,continuous,8,4,trial,5289240.0,5292474.0,3234.0,8,L,5290677,5290891,216,1555.4,668.6,4105,right
63,1,continuous,8,4,trial,5289240.0,5292474.0,3234.0,8,L,5290901,5291111,212,1523.4,678.9,4098,right
63,1,continuous,8,4,trial,5289240.0,5292474.0,3234.0,8,L,5291187,5291439,254,531.1,627.1,4258,left
63,1,continuous,8,4,trial,5289240.0,5292474.0,3234.0,8,L,5291453,5291655,204,513.1,581.3,4323,left
63,1,continuous,8,4,trial,5289240.0,5292474.0,3234.0,8,L,5291715,5292051,338,536.5,983.3,4551,NA
63,1,continuous,8,4,trial,5289240.0,5292474.0,3234.0,8,L,5292069,5292343,276,482.6,961.3,4538,NA
63,1,continuous,8,4,trial,5289240.0,5292474.0,3234.0,8,L,5292389,5292777,390,509.3,668.4,4516,left
63,1,continuous,9,94,fixationCross,5293373.0,5300458.0,7085.0,9,L,5292907,5293043,138,807.4,645.5,4697,NA
63,1,continuous,9,94,fixationCross,5293373.0,5300458.0,7085.0,9,L,5293083,5293367,286,1022.3,576.7,4784,NA
63,1,continuous,9,94,trial,5293373.0,5300458.0,7085.0,9,L,5293389,5293579,192,977.2,555.3,4937,NA
63,1,continuous,9,94,trial,5293373.0,5300458.0,7085.0,9,L,5293629,5293949,322,484.8,539.3,4853,left
63,1,continuous,9,94,trial,5293373.0,5300458.0,7085.0,9,L,5294023,5294291,270,1428.8,548.8,4674,right
63,1,continuous,9,94,trial,5293373.0,5300458.0,7085.0,9,L,5294325,5294581,258,1609.0,573.2,4556,right
63,1,continuous,9,94,trial,5293373.0,5300458.0,7085.0,9,L,5294613,5294833,222,1428.1,574.6,4432,right
63,1,continuous,9,94,trial,5293373.0,5300458.0,7085.0,9,L,5295109,5295619,512,1432.4,575.9,4713,right
63,1,continuous,9,94,trial,5293373.0,5300458.0,7085.0,9,L,5295639,5295781,144,1374.6,581.8,4373,right
63,1,continuous,9,94,trial,5293373.0,5300458.0,7085.0,9,L,5295851,5296453,604,481.2,534.9,4694,left
63,1,continuous,9,94,trial,5293373.0,5300458.0,7085.0,9,L,5296559,5296915,358,649.2,947.3,5026,NA
63,1,continuous,9,94,trial,5293373.0,5300458.0,7085.0,9,L,5296993,5297259,268,1391.9,597.2,4835,right
63,1,continuous,9,94,trial,5293373.0,5300458.0,7085.0,9,L,5297297,5297511,216,1602.1,582.9,4605,right
63,1,continuous,9,94,trial,5293373.0,5300458.0,7085.0,9,L,5297595,5298121,528,490.3,496.5,4715,left
63,1,continuous,9,94,trial,5293373.0,5300458.0,7085.0,9,L,5298199,5298629,432,1460.2,594.2,4676,right
63,1,continuous,9,94,trial,5293373.0,5300458.0,7085.0,9,L,5298649,5298801,154,1386.5,562.7,4531,right
63,1,continuous,9,94,trial,5293373.0,5300458.0,7085.0,9,L,5298871,5299037,168,615.0,931.0,4596,NA
63,1,continuous,9,94,trial,5293373.0,5300458.0,7085.0,9,L,5299057,5299299,244,567.2,967.0,4609,NA
63,1,continuous,9,94,trial,5293373.0,5300458.0,7085.0,9,L,5299363,5299791,430,1290.9,839.2,4608,NA
63,1,continuous,9,94,trial,5293373.0,5300458.0,7085.0,9,L,5299819,5300419,602,1337.7,960.1,4956,NA
63,1,continuous,9,94,postResponse,5293373.0,5300458.0,7085.0,9,L,5300469,5300791,324,1308.7,602.5,4934,right
63,1,continuous,10,9,fixationCross,5301590.0,5305457.0,3867.0,10,L,5300865,5301083,220,1308.0,604.9,5207,right
63,1,continuous,10,9,fixationCross,5301590.0,5305457.0,3867.0,10,L,5301105,5301259,156,1384.3,541.8,5094,right
63,1,continuous,10,9,fixationCross,5301590.0,5305457.0,3867.0,10,L,5301303,5301429,128,1022.6,560.6,5111,NA
63,1,continuous,10,9,trial,5301590.0,5305457.0,3867.0,10,L,5301453,5301747,296,952.5,571.4,5259,NA
63,1,continuous,10,9,trial,5301590.0,5305457.0,3867.0,10,L,5301801,5302043,244,547.2,579.9,5086,left
63,1,continuous,10,9,trial,5301590.0,5305457.0,3867.0,10,L,5302065,5302283,220,445.7,608.8,4714,left
63,1,continuous,10,9,trial,5301590.0,5305457.0,3867.0,10,L,5302353,5302615,264,1386.5,601.3,4325,right
63,1,continuous,10,9,trial,5301590.0,5305457.0,3867.0,10,L,5302637,5302841,206,1462.3,667.8,4323,right
63,1,continuous,10,9,trial,5301590.0,5305457.0,3867.0,10,L,5302865,5303229,366,1349.4,684.0,4256,right
63,1,continuous,10,9,trial,5301590.0,5305457.0,3867.0,10,L,5303265,5303465,202,1309.4,888.8,4441,NA
63,1,continuous,10,9,trial,5301590.0,5305457.0,3867.0,10,L,5303511,5303643,134,944.3,751.3,4718,likertHorizontal
63,1,continuous,10,9,trial,5301590.0,5305457.0,3867.0,10,L,5303691,5303965,276,557.1,587.1,4915,left
63,1,continuous,10,9,trial,5301590.0,5305457.0,3867.0,10,L,5303999,5304277,280,405.8,554.9,4791,left
63,1,continuous,10,9,trial,5301590.0,5305457.0,3867.0,10,L,5304387,5304589,204,684.2,887.7,4682,NA
63,1,continuous,10,9,trial,5301590.0,5305457.0,3867.0,10,L,5304659,5304875,218,613.7,559.6,4832,left
63,1,continuous,10,9,trial,5301590.0,5305457.0,3867.0,10,L,5304897,5305115,220,527.0,531.6,4883,left
63,1,continuous,10,9,trial,5301590.0,5305457.0,3867.0,10,L,5305129,5305347,220,494.4,490.5,4770,left
63,1,continuous,10,9,postResponse,5301590.0,5305457.0,3867.0,10,L,5305373,5305791,420,360.5,582.6,4596,left
63,1,continuous,11,12,fixationCross,5306357.0,5312890.0,6533.0,11,L,5305865,5306043,180,598.4,511.2,4645,left
63,1,continuous,11,12,fixationCross,5306357.0,5312890.0,6533.0,11,L,5306099,5306245,148,1023.0,523.8,4743,NA
63,1,continuous,11,12,trial,5306357.0,5312890.0,6533.0,11,L,5306267,5306491,226,959.1,539.5,4955,NA
63,1,continuous,11,12,trial,5306357.0,5312890.0,6533.0,11,L,5306545,5306775,232,513.8,536.5,5009,left
63,1,continuous,11,12,trial,5306357.0,5312890.0,6533.0,11,L,5306799,5306973,176,650.3,551.4,4598,left
63,1,continuous,11,12,trial,5306357.0,5312890.0,6533.0,11,L,5307007,5307257,252,450.5,529.3,4287,left
63,1,continuous,11,12,trial,5306357.0,5312890.0,6533.0,11,L,5307275,5307559,286,377.5,499.1,4101,left
63,1,continuous,11,12,trial,5306357.0,5312890.0,6533.0,11,L,5307573,5307803,232,338.4,479.1,4111,left
63,1,continuous,11,12,trial,5306357.0,5312890.0,6533.0,11,L,5307843,5307973,132,662.6,549.6,4249,left
63,1,continuous,11,12,trial,5306357.0,5312890.0,6533.0,11,L,5308033,5308277,246,1352.5,541.3,4231,right
63,1,continuous,11,12,trial,5306357.0,5312890.0,6533.0,11,L,5308303,5308879,578,1498.9,598.5,4425,right
63,1,continuous,11,12,trial,5306357.0,5312890.0,6533.0,11,L,5308903,5309793,892,1404.7,532.5,4674,right
63,1,continuous,11,12,trial,5306357.0,5312890.0,6533.0,11,L,5309821,5310221,402,1495.8,609.6,4755,right
63,1,continuous,11,12,trial,5306357.0,5312890.0,6533.0,11,L,5310241,5310625,386,1436.9,551.6,4641,right
63,1,continuous,11,12,trial,5306357.0,5312890.0,6533.0,11,L,5310645,5310873,230,1479.1,607.4,4815,right
63,1,continuous,11,12,trial,5306357.0,5312890.0,6533.0,11,L,5310895,5311017,124,1382.4,569.6,4899,right
63,1,continuous,11,12,trial,5306357.0,5312890.0,6533.0,11,L,5311091,5311467,378,477.2,593.9,4890,left
63,1,continuous,11,12,trial,5306357.0,5312890.0,6533.0,11,L,5311555,5311723,170,588.8,944.4,4745,NA
63,1,continuous,11,12,trial,5306357.0,5312890.0,6533.0,11,L,5311731,5311753,24,572.4,970.3,4646,NA
63,1,continuous,11,12,trial,5306357.0,5312890.0,6533.0,11,L,5311763,5312061,300,526.9,983.8,4729,NA
63,1,continuous,11,12,trial,5306357.0,5312890.0,6533.0,11,L,5312075,5312235,162,480.4,983.5,4769,NA
63,1,continuous,11,12,trial,5306357.0,5312890.0,6533.0,11,L,5312293,5312413,122,547.2,545.7,4693,left
63,1,continuous,11,12,trial,5306357.0,5312890.0,6533.0,11,L,5312485,5312879,396,1450.6,579.6,4523,right
63,1,continuous,11,12,postResponse,5306357.0,5312890.0,6533.0,11,L,5312951,5313225,276,588.5,556.4,4679,left
63,1,continuous,12,100,fixationCross,5313824.0,5319074.0,5250.0,12,L,5313305,5313529,226,821.0,578.9,4708,NA
63,1,continuous,12,100,trial,5313824.0,5319074.0,5250.0,12,L,5313553,5313997,446,969.4,604.7,4970,NA
63,1,continuous,12,100,trial,5313824.0,5319074.0,5250.0,12,L,5314051,5314411,362,555.3,581.5,4917,left
63,1,continuous,12,100,trial,5313824.0,5319074.0,5250.0,12,L,5314427,5314577,152,501.8,580.8,4723,left
63,1,continuous,12,100,trial,5313824.0,5319074.0,5250.0,12,L,5314653,5314927,276,1454.7,550.8,4494,right
63,1,continuous,12,100,trial,5313824.0,5319074.0,5250.0,12,L,5315357,5315709,354,1422.2,429.3,4674,right
63,1,continuous,12,100,trial,5313824.0,5319074.0,5250.0,12,L,5315783,5316219,438,498.6,535.7,4892,left
63,1,continuous,12,100,trial,5313824.0,5319074.0,5250.0,12,L,5316237,5316781,546,434.6,543.2,4655,left
63,1,continuous,12,100,trial,5313824.0,5319074.0,5250.0,12,L,5316805,5316951,148,552.9,565.2,4577,left
63,1,continuous,12,100,trial,5313824.0,5319074.0,5250.0,12,L,5317021,5317387,368,1444.7,547.7,4597,right
63,1,continuous,12,100,trial,5313824.0,5319074.0,5250.0,12,L,5317401,5317641,242,1446.1,513.7,4723,right
63,1,continuous,12,100,trial,5313824.0,5319074.0,5250.0,12,L,5317711,5317877,168,530.4,561.6,4843,left
63,1,continuous,12,100,trial,5313824.0,5319074.0,5250.0,12,L,5317943,5318123,182,1284.7,962.3,4830,NA
63,1,continuous,12,100,trial,5313824.0,5319074.0,5250.0,12,L,5318143,5318673,532,1389.5,959.0,4842,NA
63,1,continuous,12,100,trial,5313824.0,5319074.0,5250.0,12,L,5318789,5319085,298,498.9,622.9,5044,left
63,1,continuous,12,100,postResponse,5313824.0,5319074.0,5250.0,12,L,5319109,5319407,300,480.0,512.1,4895,left
63,1,continuous,13,100,fixationCross,5320174.0,5322508.0,2334.0,13,L,5319481,5319661,182,473.2,512.9,4646,left
63,1,continuous,13,100,fixationCross,5320174.0,5322508.0,2334.0,13,L,5319685,5319861,178,586.6,552.9,4882,left
63,1,continuous,13,100,trial,5320174.0,5322508.0,2334.0,13,L,5319905,5320347,444,971.3,545.9,5073,NA
63,1,continuous,13,100,trial,5320174.0,5322508.0,2334.0,13,L,5320403,5320791,390,550.7,516.8,4978,left
63,1,continuous,13,100,trial,5320174.0,5322508.0,2334.0,13,L,5320809,5320959,152,480.4,476.7,4725,left
63,1,continuous,13,100,trial,5320174.0,5322508.0,2334.0,13,L,5320977,5321321,346,472.4,421.3,4697,left
63,1,continuous,13,100,trial,5320174.0,5322508.0,2334.0,13,L,5321351,5321513,164,505.3,562.7,4776,left
63,1,continuous,13,100,trial,5320174.0,5322508.0,2334.0,13,L,5321585,5321853,270,1414.1,531.9,4612,right
63,1,continuous,13,100,trial,5320174.0,5322508.0,2334.0,13,L,5321875,5322279,406,1475.5,483.0,4537,right
63,1,continuous,13,100,postResponse,5320174.0,5322508.0,2334.0,13,L,5322293,5322841,550,1442.4,464.5,4561,right
63,1,continuous,14,87,fixationCross,5323407.0,5326407.0,3000.0,14,L,5322931,5323275,346,932.5,562.1,4970,NA
63,1,continuous,14,87,trial,5323407.0,5326407.0,3000.0,14,L,5323295,5323587,294,959.0,550.2,5078,NA
63,1,continuous,14,87,trial,5323407.0,5326407.0,3000.0,14,L,5323633,5323787,156,532.8,540.4,5046,left
63,1,continuous,14,87,trial,5323407.0,5326407.0,3000.0,14,L,5323807,5323995,190,454.0,558.3,4765,left
63,1,continuous,14,87,trial,5323407.0,5326407.0,3000.0,14,L,5324067,5324397,332,1402.0,542.0,4372,right
63,1,continuous,14,87,trial,5323407.0,5326407.0,3000.0,14,L,5324415,5324803,390,1378.5,589.4,4314,right
63,1,continuous,14,87,trial,5323407.0,5326407.0,3000.0,14,L,5324829,5325149,322,1330.1,483.7,4155,right
63,1,continuous,14,87,trial,5323407.0,5326407.0,3000.0,14,L,5325271,5325665,396,1262.4,886.6,4510,NA
63,1,continuous,14,87,trial,5323407.0,5326407.0,3000.0,14,L,5325713,5325953,242,1391.4,552.6,4514,right
63,1,continuous,14,87,postResponse,5323407.0,5326407.0,3000.0,14,L,5325965,5326741,778,1379.0,570.1,4638,right
63,1,continuous,15,9,fixationCross,5327290.0,5329224.0,1934.0,15,L,5326827,5327211,386,907.6,552.3,5020,NA
63,1,continuous,15,9,trial,5327290.0,5329224.0,1934.0,15,L,5327227,5327449,224,956.8,554.1,5187,NA
63,1,continuous,15,9,trial,5327290.0,5329224.0,1934.0,15,L,5327495,5327641,148,520.3,538.9,5009,left
63,1,continuous,15,9,trial,5327290.0,5329224.0,1934.0,15,L,5327665,5327823,160,389.0,521.0,4824,left
63,1,continuous,15,9,trial,5327290.0,5329224.0,1934.0,15,L,5327895,5328095,202,1390.9,496.6,4552,right
63,1,continuous,15,9,trial,5327290.0,5329224.0,1934.0,15,L,5328117,5328535,420,1298.5,525.8,4579,right
63,1,continuous,15,9,trial,5327290.0,5329224.0,1934.0,15,L,5328621,5328829,210,476.7,577.6,4743,left
63,1,continuous,15,9,trial,5327290.0,5329224.0,1934.0,15,L,5328885,5329179,296,558.8,956.0,4934,NA
63,1,continuous,15,9,trial,5327290.0,5329224.0,1934.0,15,L,5329229,5329447,220,449.9,543.6,4744,left
63,1,continuous,16,100,fixationCross,5330173.0,5332990.0,2817.0,16,L,5329693,5329883,192,838.1,661.5,4945,NA
63,1,continuous,16,100,trial,5330173.0,5332990.0,2817.0,16,L,5329919,5330359,442,1033.0,564.8,5068,NA
63,1,continuous,16,100,trial,5330173.0,5332990.0,2817.0,16,L,5330411,5330549,140,492.5,583.5,4839,left
63,1,continuous,16,100,trial,5330173.0,5332990.0,2817.0,16,L,5330573,5330675,104,515.7,465.8,4687,left
63,1,continuous,16,100,trial,5330173.0,5332990.0,2817.0,16,L,5330743,5331003,262,1419.8,482.1,4459,right
63,1,continuous,16,100,trial,5330173.0,5332990.0,2817.0,16,L,5331027,5331319,294,1521.0,457.7,4450,right
63,1,continuous,16,100,trial,5330173.0,5332990.0,2817.0,16,L,5331351,5331633,284,1443.7,589.3,4482,right
63,1,continuous,16,100,trial,5330173.0,5332990.0,2817.0,16,L,5331667,5331817,152,1347.0,453.1,4593,right
63,1,continuous,16,100,trial,5330173.0,5332990.0,2817.0,16,L,5331887,5332071,186,476.2,513.2,4711,left
63,1,continuous,16,100,trial,5330173.0,5332990.0,2817.0,16,L,5332095,5332339,246,524.9,481.1,4858,left
63,1,continuous,16,100,trial,5330173.0,5332990.0,2817.0,16,L,5332409,5332745,338,1394.5,507.4,4746,right
63,1,continuous,16,100,trial,5330173.0,5332990.0,2817.0,16,L,5332797,5332983,188,1397.1,930.4,4780,NA
63,1,continuous,16,100,trial,5330173.0,5332990.0,2817.0,16,L,5332995,5333037,44,1425.7,938.6,4777,NA
63,1,continuous,16,100,postResponse,5330173.0,5332990.0,2817.0,16,L,5333083,5333309,228,1436.3,568.7,4664,right
63,1,continuous,17,100,fixationCross,5333991.0,5336041.0,2050.0,17,L,5333423,5333653,232,915.6,839.1,5043,likertHorizontal
63,1,continuous,17,100,fixationCross,5333991.0,5336041.0,2050.0,17,L,5333703,5333833,132,871.2,520.9,5121,NA
63,1,continuous,17,100,trial,5333991.0,5336041.0,2050.0,17,L,5333857,5334125,270,968.3,548.2,5104,NA
63,1,continuous,17,100,trial,5333991.0,5336041.0,2050.0,17,L,5334173,5334417,246,1406.6,556.6,5053,right
63,1,continuous,17,100,trial,5333991.0,5336041.0,2050.0,17,L,5334439,5334549,112,1366.3,585.1,4729,right
63,1,continuous,17,100,trial,5333991.0,5336041.0,2050.0,17,L,5334617,5334867,252,516.2,564.6,4622,left
63,1,continuous,17,100,trial,5333991.0,5336041.0,2050.0,17,L,5334885,5335225,342,459.0,507.9,4600,left
63,1,continuous,17,100,trial,5333991.0,5336041.0,2050.0,17,L,5335251,5335621,372,593.9,570.5,4771,left
63,1,continuous,17,100,trial,5333991.0,5336041.0,2050.0,17,L,5335687,5335963,278,1389.6,556.1,4606,right
63,1,continuous,17,100,postResponse,5333991.0,5336041.0,2050.0,17,L,5335987,5336359,374,1513.5,573.7,4499,right
63,1,continuous,18,10,fixationCross,5337074.0,5340457.0,3383.0,18,L,5336447,5336631,186,1170.5,603.2,4630,NA
63,1,continuous,18,10,fixationCross,5337074.0,5340457.0,3383.0,18,L,5336677,5336825,150,806.3,593.9,4899,NA
63,1,continuous,18,10,trial,5337074.0,5340457.0,3383.0,18,L,5336853,5337209,358,956.6,567.0,5093,NA
63,1,continuous,18,10,trial,5337074.0,5340457.0,3383.0,18,L,5337253,5337421,170,568.3,531.8,5004,left
63,1,continuous,18,10,trial,5337074.0,5340457.0,3383.0,18,L,5337443,5337797,356,524.1,495.8,4762,left
63,1,continuous,18,10,trial,5337074.0,5340457.0,3383.0,18,L,5337871,5338137,268,1472.7,541.7,4438,right
63,1,continuous,18,10,trial,5337074.0,5340457.0,3383.0,18,L,5338161,5338427,268,1579.2,504.5,4483,right
63,1,continuous,18,10,trial,5337074.0,5340457.0,3383.0,18,L,5338505,5338779,276,548.2,478.1,4754,left
63,1,continuous,18,10,trial,5337074.0,5340457.0,3383.0,18,L,5338819,5339259,442,386.1,671.4,4690,left
63,1,continuous,18,10,trial,5337074.0,5340457.0,3383.0,18,L,5339271,5339523,254,347.0,681.5,4586,left
63,1,continuous,18,10,trial,5337074.0,5340457.0,3383.0,18,L,5339563,5339743,182,551.2,489.8,4522,left
63,1,continuous,18,10,trial,5337074.0,5340457.0,3383.0,18,L,5339809,5340019,212,584.0,947.5,4668,NA
63,1,continuous,18,10,trial,5337074.0,5340457.0,3383.0,18,L,5340059,5340207,150,362.3,686.4,4725,left
63,1,continuous,18,10,trial,5337074.0,5340457.0,3383.0,18,L,5340225,5340435,212,338.7,671.5,4675,left
63,1,continuous,18,10,postResponse,5337074.0,5340457.0,3383.0,18,L,5340475,5340791,318,549.0,485.6,4622,left
63,1,continuous,19,91,fixationCross,5341541.0,5343974.0,2433.0,19,L,5340865,5341113,250,545.2,486.0,4819,left
63,1,continuous,19,91,fixationCross,5341541.0,5343974.0,2433.0,19,L,5341157,5341285,130,852.7,517.5,4971,NA
63,1,continuous,19,91,trial,5341541.0,5343974.0,2433.0,19,L,5341311,5341705,396,962.5,564.5,4997,NA
63,1,continuous,19,91,trial,5341541.0,5343974.0,2433.0,19,L,5341757,5342083,328,559.5,557.8,4867,left
63,1,continuous,19,91,trial,5341541.0,5343974.0,2433.0,19,L,5342153,5342425,274,1439.0,532.1,4200,right
63,1,continuous,19,91,trial,5341541.0,5343974.0,2433.0,19,L,5342451,5342853,404,1331.7,620.8,4300,right
63,1,continuous,19,91,trial,5341541.0,5343974.0,2433.0,19,L,5342913,5343083,172,1325.2,935.3,4605,NA
63,1,continuous,19,91,trial,5341541.0,5343974.0,2433.0,19,L,5343159,5343361,204,559.6,586.5,4860,left
63,1,continuous,19,91,trial,5341541.0,5343974.0,2433.0,19,L,5343385,5343599,216,479.9,630.1,4818,left
63,1,continuous,19,91,trial,5341541.0,5343974.0,2433.0,19,L,5343637,5343831,196,704.4,490.4,4495,left
63,1,continuous,19,91,trial,5341541.0,5343974.0,2433.0,19,L,5343893,5344201,310,1445.6,511.9,4141,right
63,1,continuous,20,1,fixationCross,5345058.0,5348674.0,3616.0,20,L,5344479,5344755,278,1193.7,602.1,4776,right
63,1,continuous,20,1,fixationCross,5345058.0,5348674.0,3616.0,20,L,5344791,5345055,266,963.8,545.7,4919,NA
63,1,continuous,20,1,trial,5345058.0,5348674.0,3616.0,20,L,5345099,5345291,194,1279.4,547.4,4577,right
63,1,continuous,20,1,trial,5345058.0,5348674.0,3616.0,20,L,5345315,5345687,374,1427.0,533.2,4627,right
63,1,continuous,20,1,trial,5345058.0,5348674.0,3616.0,20,L,5345707,5346059,354,1403.7,464.7,4546,right
63,1,continuous,20,1,trial,5345058.0,5348674.0,3616.0,20,L,5346131,5346457,328,497.8,513.5,4702,left
63,1,continuous,20,1,trial,5345058.0,5348674.0,3616.0,20,L,5346479,5346803,326,579.9,540.7,4687,left
63,1,continuous,20,1,trial,5345058.0,5348674.0,3616.0,20,L,5346873,5347321,450,1450.0,517.2,4412,right
63,1,continuous,20,1,trial,5345058.0,5348674.0,3616.0,20,L,5347391,5347643,254,664.3,930.9,4749,NA
63,1,continuous,20,1,trial,5345058.0,5348674.0,3616.0,20,L,5347673,5348319,648,546.8,956.3,4828,NA
63,1,continuous,20,1,trial,5345058.0,5348674.0,3616.0,20,L,5348383,5348581,200,509.1,613.5,4858,left
63,1,continuous,20,1,postResponse,5345058.0,5348674.0,3616.0,20,L,5348651,5349007,358,1406.0,548.3,4765,right
63,1,continuous,21,10,fixationCross,5349791.0,5353657.0,3866.0,21,L,5349081,5349469,390,1405.3,537.7,4835,right
63,1,continuous,21,10,trial,5349791.0,5353657.0,3866.0,21,L,5349515,5349929,416,970.6,540.7,5124,NA
63,1,continuous,21,10,trial,5349791.0,5353657.0,3866.0,21,L,5349975,5350177,204,545.0,592.6,5189,left
63,1,continuous,21,10,trial,5349791.0,5353657.0,3866.0,21,L,5350199,5350375,178,447.8,540.0,4919,left
63,1,continuous,21,10,trial,5349791.0,5353657.0,3866.0,21,L,5350451,5350639,190,1481.7,470.1,4521,right
63,1,continuous,21,10,trial,5349791.0,5353657.0,3866.0,21,L,5350657,5351413,758,1533.8,480.7,4617,right
63,1,continuous,21,10,trial,5349791.0,5353657.0,3866.0,21,L,5351435,5351835,402,1391.6,457.0,4869,right
63,1,continuous,21,10,trial,5349791.0,5353657.0,3866.0,21,L,5351863,5352001,140,1533.6,473.8,4929,right
63,1,continuous,21,10,trial,5349791.0,5353657.0,3866.0,21,L,5352077,5352337,262,514.8,544.6,5010,left
63,1,continuous,21,10,trial,5349791.0,5353657.0,3866.0,21,L,5352359,5352683,326,451.7,551.9,4904,left
63,1,continuous,21,10,trial,5349791.0,5353657.0,3866.0,21,L,5352721,5352881,162,562.5,681.3,4819,left
63,1,continuous,21,10,trial,5349791.0,5353657.0,3866.0,21,L,5352953,5353165,214,1456.2,503.3,4557,right
63,1,continuous,21,10,trial,5349791.0,5353657.0,3866.0,21,L,5353237,5353471,236,641.8,933.5,4950,NA
63,1,continuous,21,10,trial,5349791.0,5353657.0,3866.0,21,L,5353495,5353641,148,552.2,963.1,4874,NA
63,1,continuous,21,10,postResponse,5349791.0,5353657.0,3866.0,21,L,5353687,5353991,306,524.6,581.7,4706,left
63,1,continuous,22,1,fixationCross,5354574.0,5356791.0,2217.0,22,L,5354131,5354459,330,871.6,540.6,4908,NA
63,1,continuous,22,1,trial,5354574.0,5356791.0,2217.0,22,L,5354481,5354761,282,961.4,544.3,4993,NA
63,1,continuous,22,1,trial,5354574.0,5356791.0,2217.0,22,L,5354817,5355015,200,535.9,555.0,5144,left
63,1,continuous,22,1,trial,5354574.0,5356791.0,2217.0,22,L,5355083,5355823,742,1423.5,468.2,4614,right
63,1,continuous,22,1,trial,5354574.0,5356791.0,2217.0,22,L,5355891,5356125,236,574.0,558.0,4665,left
63,1,continuous,22,1,trial,5354574.0,5356791.0,2217.0,22,L,5356181,5356505,326,516.9,932.8,5009,NA
63,1,continuous,22,1,trial,5354574.0,5356791.0,2217.0,22,L,5356577,5356763,188,1449.3,484.2,4647,right
63,1,continuous,22,1,postResponse,5354574.0,5356791.0,2217.0,22,L,5356781,5357125,346,1432.4,415.2,4577,right
63,1,continuous,23,8,fixationCross,5357924.0,5363574.0,5650.0,23,L,5357495,5357591,98,1365.5,503.3,4770,right
63,1,continuous,23,8,fixationCross,5357924.0,5363574.0,5650.0,23,L,5357635,5357763,130,1001.8,535.3,5210,NA
63,1,continuous,23,8,trial,5357924.0,5363574.0,5650.0,23,L,5357783,5358065,284,965.2,539.7,5213,NA
63,1,continuous,23,8,trial,5357924.0,5363574.0,5650.0,23,L,5358115,5358301,188,503.9,525.0,4843,left
63,1,continuous,23,8,trial,5357924.0,5363574.0,5650.0,23,L,5358325,5358615,292,433.0,567.9,4639,left
63,1,continuous,23,8,trial,5357924.0,5363574.0,5650.0,23,L,5358629,5358917,290,451.4,527.1,4567,left
63,1,continuous,23,8,trial,5357924.0,5363574.0,5650.0,23,L,5358995,5359305,312,1463.2,518.6,4508,right
63,1,continuous,23,8,trial,5357924.0,5363574.0,5650.0,23,L,5359377,5359565,190,537.3,485.5,4841,left
63,1,continuous,23,8,trial,5357924.0,5363574.0,5650.0,23,L,5359591,5360027,438,421.5,540.0,4832,left
63,1,continuous,23,8,trial,5357924.0,5363574.0,5650.0,23,L,5360039,5360303,266,419.6,519.1,4635,left
63,1,continuous,23,8,trial,5357924.0,5363574.0,5650.0,23,L,5360323,5360735,414,436.9,594.7,4680,left
63,1,continuous,23,8,trial,5357924.0,5363574.0,5650.0,23,L,5360755,5361053,300,430.7,520.9,4634,left
63,1,continuous,23,8,trial,5357924.0,5363574.0,5650.0,23,L,5361063,5361373,312,450.0,508.6,4584,left
63,1,continuous,23,8,trial,5357924.0,5363574.0,5650.0,23,L,5361455,5361785,332,1460.0,555.5,4318,right
63,1,continuous,23,8,trial,5357924.0,5363574.0,5650.0,23,L,5361837,5362089,254,1244.8,872.3,4465,NA
63,1,continuous,23,8,trial,5357924.0,5363574.0,5650.0,23,L,5362153,5362485,334,503.4,603.6,4661,left
63,1,continuous,23,8,trial,5357924.0,5363574.0,5650.0,23,L,5362537,5362707,172,751.3,828.7,4741,likertHorizontal
63,1,continuous,23,8,trial,5357924.0,5363574.0,5650.0,23,L,5362757,5362959,204,1227.0,905.9,4661,NA
63,1,continuous,23,8,trial,5357924.0,5363574.0,5650.0,23,L,5363011,5363497,488,619.3,908.8,5006,NA
63,1,continuous,23,8,postResponse,5357924.0,5363574.0,5650.0,23,L,5363541,5363905,366,526.0,637.3,4929,left
63,1,continuous,24,10,fixationCross,5364474.0,5368075.0,3601.0,24,L,5364029,5364419,392,977.4,585.7,4823,NA
63,1,continuous,24,10,trial,5364474.0,5368075.0,3601.0,24,L,5364433,5364683,252,963.3,544.3,4968,NA
63,1,continuous,24,10,trial,5364474.0,5368075.0,3601.0,24,L,5364733,5364913,182,486.6,512.4,4928,left
63,1,continuous,24,10,trial,5364474.0,5368075.0,3601.0,24,L,5364933,5365135,204,428.4,551.3,4697,left
63,1,continuous,24,10,trial,5364474.0,5368075.0,3601.0,24,L,5365211,5365489,280,1455.8,508.6,4244,right
63,1,continuous,24,10,trial,5364474.0,5368075.0,3601.0,24,L,5365499,5365831,334,1471.6,524.1,4360,right
63,1,continuous,24,10,trial,5364474.0,5368075.0,3601.0,24,L,5365853,5366163,312,1347.3,492.5,4612,right
63,1,continuous,24,10,trial,5364474.0,5368075.0,3601.0,24,L,5366187,5366435,250,1464.2,525.8,4630,right
63,1,continuous,24,10,trial,5364474.0,5368075.0,3601.0,24,L,5366511,5366725,216,509.4,554.8,4941,left
63,1,continuous,24,10,trial,5364474.0,5368075.0,3601.0,24,L,5366735,5366987,254,509.5,533.8,4777,left
63,1,continuous,24,10,trial,5364474.0,5368075.0,3601.0,24,L,5367043,5367199,158,570.9,958.2,4509,NA
63,1,continuous,24,10,trial,5364474.0,5368075.0,3601.0,24,L,5367243,5367413,172,474.0,535.9,4454,left
63,1,continuous,24,10,trial,5364474.0,5368075.0,3601.0,24,L,5367431,5367573,144,442.3,558.4,4495,left
63,1,continuous,24,10,trial,5364474.0,5368075.0,3601.0,24,L,5367601,5367951,352,501.6,418.7,4428,left
63,1,continuous,24,10,trial,5364474.0,5368075.0,3601.0,24,L,5367975,5368067,94,405.8,430.9,4363,left
63,1,continuous,24,10,postResponse,5364474.0,5368075.0,3601.0,24,L,5368141,5368407,268,1409.2,522.2,4292,right
63,1,continuous,25,11,fixationCross,5369308.0,5372658.0,3350.0,25,L,5368507,5368799,294,1391.0,532.8,4677,right
63,1,continuous,25,11,fixationCross,5369308.0,5372658.0,3350.0,25,L,5368859,5369001,144,941.7,673.9,5066,NA
63,1,continuous,25,11,trial,5369308.0,5372658.0,3350.0,25,L,5369033,5369465,434,977.4,568.0,4943,NA
63,1,continuous,25,11,trial,5369308.0,5372658.0,3350.0,25,L,5369513,5369747,236,524.1,551.1,4934,left
63,1,continuous,25,11,trial,5369308.0,5372658.0,3350.0,25,L,5369769,5370065,298,488.2,620.2,4802,left
63,1,continuous,25,11,trial,5369308.0,5372658.0,3350.0,25,L,5370131,5370435,306,1291.7,544.8,4460,right
63,1,continuous,25,11,trial,5369308.0,5372658.0,3350.0,25,L,5370475,5370905,432,1541.3,552.2,4577,right
63,1,continuous,25,11,trial,5369308.0,5372658.0,3350.0,25,L,5370983,5371389,408,529.7,598.0,4949,left
63,1,continuous,25,11,trial,5369308.0,5372658.0,3350.0,25,L,5371409,5371591,184,543.0,567.2,4666,left
63,1,continuous,25,11,trial,5369308.0,5372658.0,3350.0,25,L,5371611,5371885,276,505.6,505.1,4525,left
63,1,continuous,25,11,trial,5369308.0,5372658.0,3350.0,25,L,5371915,5372109,196,478.7,660.5,4625,left
63,1,continuous,25,11,trial,5369308.0,5372658.0,3350.0,25,L,5372157,5372567,412,580.2,946.2,4823,NA
63,1,continuous,25,11,postResponse,5369308.0,5372658.0,3350.0,25,L,5372637,5372991,356,1377.6,561.7,4499,right
63,1,continuous,26,5,fixationCross,5392191.0,5394375.0,2184.0,26,L,5391476,5391682,208,120.2,-11.1,5064,NA
63,1,continuous,26,5,fixationCross,5392191.0,5394375.0,2184.0,26,L,5391750,5391882,134,722.7,400.5,4717,left
63,1,continuous,26,5,fixationCross,5392191.0,5394375.0,2184.0,26,L,5391918,5392072,156,933.2,534.5,4749,NA
63,1,continuous,26,5,trial,5392191.0,5394375.0,2184.0,26,L,5392090,5392396,308,959.2,546.6,5123,NA
63,1,continuous,26,5,trial,5392191.0,5394375.0,2184.0,26,L,5392442,5392676,236,567.5,604.1,4983,left
63,1,continuous,26,5,trial,5392191.0,5394375.0,2184.0,26,L,5392742,5393070,330,1424.4,584.0,4482,right
63,1,continuous,26,5,trial,5392191.0,5394375.0,2184.0,26,L,5393138,5393550,414,507.9,606.7,4523,left
63,1,continuous,26,5,trial,5392191.0,5394375.0,2184.0,26,L,5393648,5394062,416,630.7,976.7,4716,NA
63,1,continuous,26,5,trial,5392191.0,5394375.0,2184.0,26,L,5394094,5394280,188,531.1,887.3,4794,NA
63,1,continuous,26,5,trial,5392191.0,5394375.0,2184.0,26,L,5394350,5394668,320,1428.0,612.8,4508,right
63,1,continuous,27,8,fixationCross,5395442.0,5397341.0,1899.0,27,L,5394806,5395138,334,743.5,742.3,4969,likertHorizontal
63,1,continuous,27,8,fixationCross,5395442.0,5397341.0,1899.0,27,L,5395176,5395392,218,958.0,569.8,5011,NA
63,1,continuous,27,8,trial,5395442.0,5397341.0,1899.0,27,L,5395430,5395644,216,1174.6,556.0,4886,NA
63,1,continuous,27,8,trial,5395442.0,5397341.0,1899.0,27,L,5395696,5395944,250,573.5,555.9,5102,left
63,1,continuous,27,8,trial,5395442.0,5397341.0,1899.0,27,L,5395966,5396240,276,460.2,513.8,4773,left
63,1,continuous,27,8,trial,5395442.0,5397341.0,1899.0,27,L,5396312,5396722,412,1394.8,551.1,4265,right
63,1,continuous,27,8,trial,5395442.0,5397341.0,1899.0,27,L,5396746,5396924,180,1330.7,463.9,4367,right
63,1,continuous,27,8,trial,5395442.0,5397341.0,1899.0,27,L,5396994,5397234,242,499.5,651.8,4478,left
63,1,continuous,27,8,postResponse,5395442.0,5397341.0,1899.0,27,L,5397266,5397676,412,483.8,479.3,4295,left
63,1,continuous,28,100,fixationCross,5398391.0,5399775.0,1384.0,28,L,5397994,5398084,92,703.2,750.5,4874,NA
63,1,continuous,28,100,fixationCross,5398391.0,5399775.0,1384.0,28,L,5398124,5398252,130,935.6,554.3,4957,NA
63,1,continuous,28,100,trial,5398391.0,5399775.0,1384.0,28,L,5398272,5398550,280,975.1,557.7,5062,NA
63,1,continuous,28,100,trial,5398391.0,5399775.0,1384.0,28,L,5398594,5398818,226,563.2,540.7,4730,left
63,1,continuous,28,100,trial,5398391.0,5399775.0,1384.0,28,L,5398886,5399658,774,1450.2,556.2,4155,right
63,1,continuous,28,100,postResponse,5398391.0,5399775.0,1384.0,28,L,5399670,5400106,438,1403.7,527.1,4427,right
63,1,continuous,29,92,fixationCross,5400875.0,5404024.0,3149.0,29,L,5400180,5400244,66,1392.1,526.4,4725,right
63,1,continuous,29,92,fixationCross,5400875.0,5404024.0,3149.0,29,L,5400294,5400564,272,1031.2,692.0,4966,NA
63,1,continuous,29,92,trial,5400875.0,5404024.0,3149.0,29,L,5400590,5400998,410,936.6,538.9,5041,NA
63,1,continuous,29,92,trial,5400875.0,5404024.0,3149.0,29,L,5401044,5401280,238,535.9,551.1,4977,left
63,1,continuous,29,92,trial,5400875.0,5404024.0,3149.0,29,L,5401314,5401400,88,685.9,513.5,4671,left
63,1,continuous,29,92,trial,5400875.0,5404024.0,3149.0,29,L,5401460,5402186,728,1413.2,475.9,4279,right
63,1,continuous,29,92,trial,5400875.0,5404024.0,3149.0,29,L,5402256,5402786,532,584.2,518.3,4358,left
63,1,continuous,29,92,trial,5400875.0,5404024.0,3149.0,29,L,5402804,5403056,254,628.1,485.1,4609,left
63,1,continuous,29,92,trial,5400875.0,5404024.0,3149.0,29,L,5403130,5403438,310,1308.1,734.3,4470,NA
63,1,continuous,29,92,trial,5400875.0,5404024.0,3149.0,29,L,5403480,5403978,500,1411.1,506.0,4282,right
63,1,continuous,29,92,postResponse,5400875.0,5404024.0,3149.0,29,L,5403990,5404358,370,1413.6,477.1,4427,right
63,1,continuous,30,100,fixationCross,5405075.0,5407475.0,2400.0,30,L,5404622,5404782,162,739.2,562.0,4930,NA
63,1,continuous,30,100,trial,5405075.0,5407475.0,2400.0,30,L,5404818,5405238,422,959.6,544.8,5049,NA
63,1,continuous,30,100,trial,5405075.0,5407475.0,2400.0,30,L,5405284,5405642,360,541.9,560.5,4620,left
63,1,continuous,30,100,trial,5405075.0,5407475.0,2400.0,30,L,5405652,5405942,292,522.2,558.9,4414,left
63,1,continuous,30,100,trial,5405075.0,5407475.0,2400.0,30,L,5406014,5406176,164,1475.6,493.2,4182,right
63,1,continuous,30,100,trial,5405075.0,5407475.0,2400.0,30,L,5406200,5406402,204,1595.1,518.2,4087,right
63,1,continuous,30,100,trial,5405075.0,5407475.0,2400.0,30,L,5406414,5406644,232,1560.7,495.9,4028,right
63,1,continuous,30,100,trial,5405075.0,5407475.0,2400.0,30,L,5406720,5407066,348,539.3,586.4,4092,left
63,1,continuous,30,100,trial,5405075.0,5407475.0,2400.0,30,L,5407076,5407748,674,551.4,565.3,4255,left
63,1,continuous,31,89,fixationCross,5408558.0,5410891.0,2333.0,31,L,5408016,5408230,216,1248.6,691.9,4638,right
63,1,continuous,31,89,trial,5408558.0,5410891.0,2333.0,31,L,5408270,5408704,436,983.4,558.1,4731,NA
63,1,continuous,31,89,trial,5408558.0,5410891.0,2333.0,31,L,5408746,5409066,322,617.1,550.5,4563,left
63,1,continuous,31,89,trial,5408558.0,5410891.0,2333.0,31,L,5409130,5409350,222,1408.0,564.7,4272,right
63,1,continuous,31,89,trial,5408558.0,5410891.0,2333.0,31,L,5409370,5409760,392,1472.9,589.6,4255,right
63,1,continuous,31,89,trial,5408558.0,5410891.0,2333.0,31,L,5409796,5410336,542,1312.8,490.0,4205,right
63,1,continuous,31,89,trial,5408558.0,5410891.0,2333.0,31,L,5410396,5410564,170,723.6,494.5,4696,left
63,1,continuous,31,89,trial,5408558.0,5410891.0,2333.0,31,L,5410590,5410934,346,662.3,527.8,4727,left
63,1,continuous,31,89,postResponse,5408558.0,5410891.0,2333.0,31,L,5410994,5411226,234,1346.0,537.8,4298,right
63,1,continuous,32,8,fixationCross,5412475.0,5414858.0,2383.0,32,L,5411324,5411438,116,1005.1,676.5,4438,NA
63,1,continuous,32,8,fixationCross,5412475.0,5414858.0,2383.0,32,L,5411716,5412184,470,1129.5,512.5,4983,NA
63,1,continuous,32,8,fixationCross,5412475.0,5414858.0,2383.0,32,L,5412212,5412354,144,993.4,537.3,4681,NA
63,1,continuous,32,8,trial,5412475.0,5414858.0,2383.0,32,L,5412372,5412658,288,970.8,543.2,4557,NA
63,1,continuous,32,8,trial,5412475.0,5414858.0,2383.0,32,L,5412706,5413124,420,509.3,549.8,4582,left
63,1,continuous,32,8,trial,5412475.0,5414858.0,2383.0,32,L,5413136,5413396,262,470.4,552.7,4460,left
63,1,continuous,32,8,trial,5412475.0,5414858.0,2383.0,32,L,5413470,5413774,306,1423.7,551.7,4289,right
63,1,continuous,32,8,trial,5412475.0,5414858.0,2383.0,32,L,5413790,5413944,156,1408.2,507.6,4294,right
63,1,continuous,32,8,trial,5412475.0,5414858.0,2383.0,32,L,5414014,5414416,404,548.5,615.9,4439,left
63,1,continuous,32,8,trial,5412475.0,5414858.0,2383.0,32,L,5414458,5414614,158,550.9,886.2,4698,NA
63,1,continuous,32,8,postResponse,5412475.0,5414858.0,2383.0,32,L,5414662,5415192,532,505.4,541.2,4642,left
63,1,continuous,33,52,fixationCross,5416024.0,5419842.0,3818.0,33,L,5415266,5415348,84,497.4,538.4,4836,left
63,1,continuous,33,52,fixationCross,5416024.0,5419842.0,3818.0,33,L,5415414,5415734,322,986.5,645.1,4834,NA
63,1,continuous,33,52,trial,5416024.0,5419842.0,3818.0,33,L,5415760,5416214,456,976.3,546.0,4955,NA
63,1,continuous,33,52,trial,5416024.0,5419842.0,3818.0,33,L,5416268,5416438,172,592.3,586.9,4907,left
63,1,continuous,33,52,trial,5416024.0,5419842.0,3818.0,33,L,5416504,5416702,200,1445.4,550.1,4402,right
63,1,continuous,33,52,trial,5416024.0,5419842.0,3818.0,33,L,5416714,5416878,166,1464.9,523.7,4341,right
63,1,continuous,33,52,trial,5416024.0,5419842.0,3818.0,33,L,5416890,5417108,220,1468.8,489.5,4275,right
63,1,continuous,33,52,trial,5416024.0,5419842.0,3818.0,33,L,5417180,5417398,220,566.5,589.7,4433,left
63,1,continuous,33,52,trial,5416024.0,5419842.0,3818.0,33,L,5417442,5417612,172,628.7,945.2,4587,NA
63,1,continuous,33,52,trial,5416024.0,5419842.0,3818.0,33,L,5417630,5417794,166,541.3,960.6,4736,NA
63,1,continuous,33,52,trial,5416024.0,5419842.0,3818.0,33,L,5417840,5418210,372,538.8,582.4,4609,left
63,1,continuous,33,52,trial,5416024.0,5419842.0,3818.0,33,L,5418246,5418636,392,337.0,478.6,4440,left
63,1,continuous,33,52,trial,5416024.0,5419842.0,3818.0,33,L,5418716,5418916,202,1438.1,489.4,4293,right
63,1,continuous,33,52,trial,5416024.0,5419842.0,3818.0,33,L,5418972,5419306,336,948.2,902.1,4659,likertHorizontal
63,1,continuous,33,52,postResponse,5416024.0,5419842.0,3818.0,33,L,5419328,5420174,848,955.6,977.9,4868,likertHorizontal
63,1,continuous,34,53,fixationCross,5420925.0,5426658.0,5733.0,34,L,5420248,5420446,200,886.4,1030.2,5057,likertHorizontal
63,1,continuous,34,53,fixationCross,5420925.0,5426658.0,5733.0,34,L,5420492,5420634,144,956.8,731.7,5257,NA
63,1,continuous,34,53,trial,5420925.0,5426658.0,5733.0,34,L,5420678,5421140,464,951.9,559.9,5267,NA
63,1,continuous,34,53,trial,5420925.0,5426658.0,5733.0,34,L,5421186,5421554,370,563.0,564.3,4866,left
63,1,continuous,34,53,trial,5420925.0,5426658.0,5733.0,34,L,5421624,5422032,410,1412.4,599.5,4181,right
63,1,continuous,34,53,trial,5420925.0,5426658.0,5733.0,34,L,5422098,5422614,518,609.6,549.2,4785,left
63,1,continuous,34,53,trial,5420925.0,5426658.0,5733.0,34,L,5422684,5423114,432,1424.4,567.0,4591,right
63,1,continuous,34,53,trial,5420925.0,5426658.0,5733.0,34,L,5423182,5423830,650,553.4,595.5,4668,left
63,1,continuous,34,53,trial,5420925.0,5426658.0,5733.0,34,L,5423850,5424054,206,625.7,575.2,4420,left
63,1,continuous,34,53,trial,5420925.0,5426658.0,5733.0,34,L,5424120,5424364,246,1361.1,598.5,4330,right
63,1,continuous,34,53,trial,5420925.0,5426658.0,5733.0,34,L,5424384,5424654,272,1434.4,561.2,4443,right
63,1,continuous,34,53,trial,5420925.0,5426658.0,5733.0,34,L,5424666,5424908,244,1401.0,579.1,4548,right
63,1,continuous,34,53,trial,5420925.0,5426658.0,5733.0,34,L,5424918,5425022,106,1417.0,608.0,4558,right
63,1,continuous,34,53,trial,5420925.0,5426658.0,5733.0,34,L,5425090,5425452,364,576.3,587.1,4607,left
63,1,continuous,34,53,trial,5420925.0,5426658.0,5733.0,34,L,5425698,5426000,304,1206.0,924.3,4373,NA
63,1,continuous,34,53,trial,5420925.0,5426658.0,5733.0,34,L,5426024,5426252,230,1087.9,857.3,4616,likertHorizontal
63,1,continuous,34,53,trial,5420925.0,5426658.0,5733.0,34,L,5426276,5426648,374,957.7,831.3,4775,likertHorizontal
63,1,continuous,34,53,postResponse,5420925.0,5426658.0,5733.0,34,L,5426678,5426990,314,964.9,972.8,4908,likertHorizontal
63,1,continuous,35,100,fixationCross,5427742.0,5430475.0,2733.0,35,L,5427066,5427228,164,963.9,973.6,4998,likertHorizontal
63,1,continuous,35,100,fixationCross,5427742.0,5430475.0,2733.0,35,L,5427472,5427610,140,969.1,537.3,4954,NA
63,1,continuous,35,100,trial,5427742.0,5430475.0,2733.0,35,L,5427626,5427906,282,945.3,568.6,5172,NA
63,1,continuous,35,100,trial,5427742.0,5430475.0,2733.0,35,L,5427960,5428116,158,559.6,588.4,4910,left
63,1,continuous,35,100,trial,5427742.0,5430475.0,2733.0,35,L,5428154,5428496,344,351.5,471.9,4443,left
63,1,continuous,35,100,trial,5427742.0,5430475.0,2733.0,35,L,5428576,5428990,416,1427.6,512.9,4280,right
63,1,continuous,35,100,trial,5427742.0,5430475.0,2733.0,35,L,5429042,5429238,198,997.2,801.0,4783,likertHorizontal
63,1,continuous,35,100,trial,5427742.0,5430475.0,2733.0,35,L,5429282,5429532,252,1339.6,786.2,4785,NA
63,1,continuous,35,100,trial,5427742.0,5430475.0,2733.0,35,L,5429558,5429874,318,1311.6,883.2,5110,NA
63,1,continuous,35,100,trial,5427742.0,5430475.0,2733.0,35,L,5429898,5430140,244,1378.1,961.1,5170,NA
63,1,continuous,35,100,trial,5427742.0,5430475.0,2733.0,35,L,5430202,5430372,172,752.8,648.7,5121,NA
63,1,continuous,35,100,trial,5427742.0,5430475.0,2733.0,35,L,5430412,5430762,352,448.9,517.3,4832,left
63,1,continuous,36,47,fixationCross,5431458.0,5433875.0,2417.0,36,L,5430908,5431208,302,981.0,625.7,4693,NA
63,1,continuous,36,47,trial,5431458.0,5433875.0,2417.0,36,L,5431344,5431626,284,985.0,595.4,5140,NA
63,1,continuous,36,47,trial,5431458.0,5433875.0,2417.0,36,L,5431678,5431872,196,593.5,582.9,5181,left
63,1,continuous,36,47,trial,5431458.0,5433875.0,2417.0,36,L,5431894,5432110,218,501.2,571.8,4581,left
63,1,continuous,36,47,trial,5431458.0,5433875.0,2417.0,36,L,5432180,5432350,172,1405.6,474.7,4125,right
63,1,continuous,36,47,trial,5431458.0,5433875.0,2417.0,36,L,5432360,5432840,482,1366.6,477.1,4091,right
63,1,continuous,36,47,trial,5431458.0,5433875.0,2417.0,36,L,5432902,5433022,122,1102.1,817.2,4194,likertHorizontal
63,1,continuous,36,47,trial,5431458.0,5433875.0,2417.0,36,L,5433078,5433344,268,559.8,608.7,4523,left
63,1,continuous,36,47,trial,5431458.0,5433875.0,2417.0,36,L,5433408,5434090,684,908.4,956.4,4623,likertHorizontal
63,1,continuous,37,88,fixationCross,5434975.0,5438626.0,3651.0,37,L,5434386,5434658,274,864.5,679.2,5081,NA
63,1,continuous,37,88,trial,5434975.0,5438626.0,3651.0,37,L,5434688,5435136,450,969.9,577.6,4881,NA
63,1,continuous,37,88,trial,5434975.0,5438626.0,3651.0,37,L,5435182,5435436,256,557.0,586.5,4685,left
63,1,continuous,37,88,trial,5434975.0,5438626.0,3651.0,37,L,5435456,5435694,240,475.7,568.8,4536,left
63,1,continuous,37,88,trial,5434975.0,5438626.0,3651.0,37,L,5435766,5436598,834,1426.5,576.2,4309,right
63,1,continuous,37,88,trial,5434975.0,5438626.0,3651.0,37,L,5436672,5436988,318,499.1,565.6,4431,left
63,1,continuous,37,88,trial,5434975.0,5438626.0,3651.0,37,L,5437004,5437228,226,454.0,531.5,4373,left
63,1,continuous,37,88,trial,5434975.0,5438626.0,3651.0,37,L,5437300,5437710,412,1427.8,581.4,4212,right
63,1,continuous,37,88,trial,5434975.0,5438626.0,3651.0,37,L,5437768,5437920,154,1218.7,868.3,4545,NA
63,1,continuous,37,88,trial,5434975.0,5438626.0,3651.0,37,L,5437946,5438548,604,1312.1,957.1,4703,NA
63,1,continuous,37,88,postResponse,5434975.0,5438626.0,3651.0,37,L,5438614,5438958,346,1369.6,668.8,4732,right
63,1,continuous,38,100,fixationCross,5439858.0,5441642.0,1784.0,38,L,5439030,5439212,184,1074.0,686.4,5053,NA
63,1,continuous,38,100,fixationCross,5439858.0,5441642.0,1784.0,38,L,5439256,5439402,148,881.0,834.0,5274,likertHorizontal
63,1,continuous,38,100,fixationCross,5439858.0,5441642.0,1784.0,38,L,5439440,5439556,118,947.2,679.8,5174,NA
63,1,continuous,38,100,trial,5439858.0,5441642.0,1784.0,38,L,5439578,5440024,448,965.3,567.4,5000,NA
63,1,continuous,38,100,trial,5439858.0,5441642.0,1784.0,38,L,5440080,5440424,346,460.9,598.3,4842,left
63,1,continuous,38,100,trial,5439858.0,5441642.0,1784.0,38,L,5440496,5441024,530,1422.5,529.9,4205,right
63,1,continuous,38,100,trial,5439858.0,5441642.0,1784.0,38,L,5441084,5441242,160,1280.0,934.7,4470,NA
63,1,continuous,38,100,trial,5439858.0,5441642.0,1784.0,38,L,5441266,5441484,220,1402.0,951.6,4546,NA
63,1,continuous,38,100,postResponse,5439858.0,5441642.0,1784.0,38,L,5441558,5441976,420,488.6,578.5,4883,left
63,1,continuous,39,100,fixationCross,5442859.0,5445241.0,2382.0,39,L,5442050,5442086,38,486.6,580.2,4658,left
63,1,continuous,39,100,fixationCross,5442859.0,5445241.0,2382.0,39,L,5442354,5442522,170,1192.9,566.9,4628,right
63,1,continuous,39,100,fixationCross,5442859.0,5445241.0,2382.0,39,L,5442550,5442750,202,985.5,553.9,5019,NA
63,1,continuous,39,100,trial,5442859.0,5445241.0,2382.0,39,L,5442774,5443012,240,952.6,539.4,4931,NA
63,1,continuous,39,100,trial,5442859.0,5445241.0,2382.0,39,L,5443058,5443242,186,538.2,535.6,4747,left
63,1,continuous,39,100,trial,5442859.0,5445241.0,2382.0,39,L,5443310,5443722,414,1468.3,539.8,4337,right
63,1,continuous,39,100,trial,5442859.0,5445241.0,2382.0,39,L,5443740,5444158,420,1438.1,474.8,4547,right
63,1,continuous,39,100,trial,5442859.0,5445241.0,2382.0,39,L,5444218,5444426,210,1264.0,936.5,4919,NA
63,1,continuous,39,100,trial,5442859.0,5445241.0,2382.0,39,L,5444464,5444776,314,1377.8,941.0,4874,NA
63,1,continuous,39,100,trial,5442859.0,5445241.0,2382.0,39,L,5444812,5444932,122,1402.1,937.1,4839,NA
63,1,continuous,39,100,trial,5442859.0,5445241.0,2382.0,39,L,5444978,5445240,264,1450.7,578.0,4688,right
63,1,continuous,39,100,trial,5442859.0,5445241.0,2382.0,39,L,5445310,5445474,166,552.6,600.9,4975,left
63,1,continuous,40,29,fixationCross,5446358.0,5449209.0,2851.0,40,L,5445722,5446048,328,1019.7,693.8,5011,NA
63,1,continuous,40,29,fixationCross,5446358.0,5449209.0,2851.0,40,L,5446084,5446282,200,942.6,558.0,5114,NA
63,1,continuous,40,29,trial,5446358.0,5449209.0,2851.0,40,L,5446292,5446538,248,962.7,537.4,4795,NA
63,1,continuous,40,29,trial,5446358.0,5449209.0,2851.0,40,L,5446584,5446820,238,551.2,536.6,4739,left
63,1,continuous,40,29,trial,5446358.0,5449209.0,2851.0,40,L,5446886,5447070,186,1411.0,521.2,4241,right
63,1,continuous,40,29,trial,5446358.0,5449209.0,2851.0,40,L,5447088,5447286,200,1421.1,468.8,4091,right
63,1,continuous,40,29,trial,5446358.0,5449209.0,2851.0,40,L,5447306,5447754,450,1484.1,527.6,4026,right
63,1,continuous,40,29,trial,5446358.0,5449209.0,2851.0,40,L,5447776,5447974,200,1592.2,583.1,3963,right
63,1,continuous,40,29,trial,5446358.0,5449209.0,2851.0,40,L,5448054,5448348,296,558.0,566.3,4298,left
63,1,continuous,40,29,trial,5446358.0,5449209.0,2851.0,40,L,5448404,5448518,116,846.7,890.8,4376,likertHorizontal
63,1,continuous,40,29,trial,5446358.0,5449209.0,2851.0,40,L,5448562,5448694,134,589.8,610.9,4381,left
63,1,continuous,40,29,trial,5446358.0,5449209.0,2851.0,40,L,5448748,5449158,412,762.6,929.4,4450,likertHorizontal
63,1,continuous,40,29,postResponse,5446358.0,5449209.0,2851.0,40,L,5449200,5449540,342,717.5,634.9,4609,left
63,1,continuous,41,89,fixationCross,5450392.0,5453142.0,2750.0,41,L,5449616,5449818,204,715.3,638.4,4761,left
63,1,continuous,41,89,fixationCross,5450392.0,5453142.0,2750.0,41,L,5450050,5450134,86,703.7,568.3,4745,left
63,1,continuous,41,89,trial,5450392.0,5453142.0,2750.0,41,L,5450168,5450522,356,952.0,555.7,4954,NA
63,1,continuous,41,89,trial,5450392.0,5453142.0,2750.0,41,L,5450576,5450802,228,533.1,576.1,4735,left
63,1,continuous,41,89,trial,5450392.0,5453142.0,2750.0,41,L,5450824,5451248,426,458.4,597.6,4483,left
63,1,continuous,41,89,trial,5450392.0,5453142.0,2750.0,41,L,5451268,5451556,290,527.1,590.8,4552,left
63,1,continuous,41,89,trial,5450392.0,5453142.0,2750.0,41,L,5451630,5452018,390,1406.2,557.7,4483,right
63,1,continuous,41,89,trial,5450392.0,5453142.0,2750.0,41,L,5452040,5452244,206,1313.0,501.1,4224,right
63,1,continuous,41,89,trial,5450392.0,5453142.0,2750.0,41,L,5452302,5452612,312,1227.9,919.0,4225,NA
63,1,continuous,41,89,trial,5450392.0,5453142.0,2750.0,41,L,5452634,5453024,392,1320.0,956.3,4567,NA
63,1,continuous,41,89,trial,5450392.0,5453142.0,2750.0,41,L,5453120,5453308,190,1304.9,595.6,4400,right
63,1,continuous,42,78,fixationCross,5454292.0,5457609.0,3317.0,42,L,5453610,5453786,178,925.9,581.6,4804,NA
63,1,continuous,42,78,fixationCross,5454292.0,5457609.0,3317.0,42,L,5453822,5454048,228,1107.0,547.9,4921,NA
63,1,continuous,42,78,trial,5454292.0,5457609.0,3317.0,42,L,5454072,5454466,396,975.1,545.2,4591,NA
63,1,continuous,42,78,trial,5454292.0,5457609.0,3317.0,42,L,5454524,5454938,416,499.6,577.9,4534,left
63,1,continuous,42,78,trial,5454292.0,5457609.0,3317.0,42,L,5455016,5455302,288,1446.6,535.3,4084,right
63,1,continuous,42,78,trial,5454292.0,5457609.0,3317.0,42,L,5455322,5455528,208,1446.0,483.3,4143,right
63,1,continuous,42,78,trial,5454292.0,5457609.0,3317.0,42,L,5455586,5456248,664,1226.9,906.0,4391,NA
63,1,continuous,42,78,trial,5454292.0,5457609.0,3317.0,42,L,5456316,5456716,402,1384.7,495.4,4634,right
63,1,continuous,42,78,trial,5454292.0,5457609.0,3317.0,42,L,5456732,5457218,488,1426.3,463.4,4540,right
63,1,continuous,42,78,trial,5454292.0,5457609.0,3317.0,42,L,5457230,5457436,208,1442.1,430.6,4540,right
63,1,continuous,42,78,postResponse,5454292.0,5457609.0,3317.0,42,L,5457510,5457942,434,511.2,562.3,4750,left
63,1,continuous,43,1,fixationCross,5458859.0,5462042.0,3183.0,43,L,5458018,5458102,86,511.8,569.3,4526,left
63,1,continuous,43,1,fixationCross,5458859.0,5462042.0,3183.0,43,L,5458320,5458354,36,492.7,471.3,4451,left
63,1,continuous,43,1,fixationCross,5458859.0,5462042.0,3183.0,43,L,5458364,5458524,162,484.0,477.4,4615,left
63,1,continuous,43,1,fixationCross,5458859.0,5462042.0,3183.0,43,L,5458568,5458684,118,892.9,522.6,4893,NA
63,1,continuous,43,1,trial,5458859.0,5462042.0,3183.0,43,L,5458708,5458924,218,977.6,552.8,4728,NA
63,1,continuous,43,1,trial,5458859.0,5462042.0,3183.0,43,L,5458964,5459134,172,1288.3,531.7,4415,right
63,1,continuous,43,1,trial,5458859.0,5462042.0,3183.0,43,L,5459166,5459394,230,1455.8,597.4,4272,right
63,1,continuous,43,1,trial,5458859.0,5462042.0,3183.0,43,L,5459458,5459680,224,635.4,583.8,4296,left
63,1,continuous,43,1,trial,5458859.0,5462042.0,3183.0,43,L,5459704,5460166,464,496.5,551.8,4224,left
63,1,continuous,43,1,trial,5458859.0,5462042.0,3183.0,43,L,5460242,5460676,436,1447.6,591.3,4028,right
63,1,continuous,43,1,trial,5458859.0,5462042.0,3183.0,43,L,5460740,5461108,370,613.3,582.1,4216,left
63,1,continuous,43,1,trial,5458859.0,5462042.0,3183.0,43,L,5461174,5461682,510,1447.6,576.1,3925,right
63,1,continuous,43,1,trial,5458859.0,5462042.0,3183.0,43,L,5461746,5461922,178,624.9,568.5,4190,left
63,1,continuous,43,1,postResponse,5458859.0,5462042.0,3183.0,43,L,5461944,5462376,434,488.1,547.6,4157,left
63,1,continuous,44,55,fixationCross,5463125.0,5465509.0,2384.0,44,L,5462476,5462578,104,483.8,550.3,4166,left
63,1,continuous,44,55,fixationCross,5463125.0,5465509.0,2384.0,44,L,5462622,5462822,202,787.7,564.3,4382,NA
63,1,continuous,44,55,trial,5463125.0,5465509.0,2384.0,44,L,5462852,5463286,436,959.9,545.2,4706,NA
63,1,continuous,44,55,trial,5463125.0,5465509.0,2384.0,44,L,5463332,5463490,160,554.6,496.3,4703,left
63,1,continuous,44,55,trial,5463125.0,5465509.0,2384.0,44,L,5463512,5463658,148,476.2,458.4,4525,left
63,1,continuous,44,55,trial,5463125.0,5465509.0,2384.0,44,L,5463670,5463782,114,448.2,441.4,4438,left
63,1,continuous,44,55,trial,5463125.0,5465509.0,2384.0,44,L,5463856,5463998,144,1452.2,465.6,4150,right
63,1,continuous,44,55,trial,5463125.0,5465509.0,2384.0,44,L,5464016,5464512,498,1494.4,424.9,4198,right
63,1,continuous,44,55,trial,5463125.0,5465509.0,2384.0,44,L,5464578,5464904,328,1275.6,933.5,4389,NA
63,1,continuous,44,55,trial,5463125.0,5465509.0,2384.0,44,L,5464928,5465116,190,1123.9,881.3,4489,likertHorizontal
63,1,continuous,44,55,trial,5463125.0,5465509.0,2384.0,44,L,5465142,5465366,226,988.5,929.9,4684,likertHorizontal
63,1,continuous,44,55,postResponse,5463125.0,5465509.0,2384.0,44,L,5465384,5465840,458,978.5,980.3,4888,likertHorizontal
63,1,continuous,45,76,fixationCross,5466692.0,5469576.0,2884.0,45,L,5465940,5466174,236,969.0,977.1,4783,likertHorizontal
63,1,continuous,45,76,fixationCross,5466692.0,5469576.0,2884.0,45,L,5466408,5466540,134,972.5,592.9,5025,NA
63,1,continuous,45,76,trial,5466692.0,5469576.0,2884.0,45,L,5466558,5466856,300,959.2,557.1,5132,NA
63,1,continuous,45,76,trial,5466692.0,5469576.0,2884.0,45,L,5466900,5467132,234,585.1,565.6,4746,left
63,1,continuous,45,76,trial,5466692.0,5469576.0,2884.0,45,L,5467160,5467346,188,441.3,501.3,4388,left
63,1,continuous,45,76,trial,5466692.0,5469576.0,2884.0,45,L,5467382,5467506,126,685.9,587.4,4262,left
63,1,continuous,45,76,trial,5466692.0,5469576.0,2884.0,45,L,5467574,5467822,250,1510.3,542.1,4114,right
63,1,continuous,45,76,trial,5466692.0,5469576.0,2884.0,45,L,5467840,5468118,280,1414.4,551.1,4257,right
63,1,continuous,45,76,trial,5466692.0,5469576.0,2884.0,45,L,5468144,5468390,248,1554.0,508.9,4173,right
63,1,continuous,45,76,trial,5466692.0,5469576.0,2884.0,45,L,5468454,5468718,266,1069.5,949.4,4462,likertHorizontal
63,1,continuous,45,76,postResponse,5466692.0,5469576.0,2884.0,45,L,5468748,5469908,1162,1176.3,742.8,4781,likertHorizontal
63,1,continuous,46,91,fixationCross,5470725.0,5473743.0,3018.0,46,L,5470008,5470240,234,912.2,815.9,5096,likertHorizontal
63,1,continuous,46,91,fixationCross,5470725.0,5473743.0,3018.0,46,L,5470264,5470416,154,911.0,695.1,5136,NA
63,1,continuous,46,91,trial,5470725.0,5473743.0,3018.0,46,L,5470442,5470898,458,971.3,567.0,4908,NA
63,1,continuous,46,91,trial,5470725.0,5473743.0,3018.0,46,L,5470944,5471080,138,544.2,542.7,4924,left
63,1,continuous,46,91,trial,5470725.0,5473743.0,3018.0,46,L,5471108,5471244,138,402.9,460.3,4753,left
63,1,continuous,46,91,trial,5470725.0,5473743.0,3018.0,46,L,5471256,5471396,142,375.7,438.9,4613,left
63,1,continuous,46,91,trial,5470725.0,5473743.0,3018.0,46,L,5471470,5471752,284,1390.9,535.1,4234,right
63,1,continuous,46,91,trial,5470725.0,5473743.0,3018.0,46,L,5471776,5471956,182,1462.1,586.1,4380,right
63,1,continuous,46,91,trial,5470725.0,5473743.0,3018.0,46,L,5472034,5472204,172,424.0,495.8,4631,left
63,1,continuous,46,91,trial,5470725.0,5473743.0,3018.0,46,L,5472226,5472384,160,363.3,426.3,4600,left
63,1,continuous,46,91,trial,5470725.0,5473743.0,3018.0,46,L,5472414,5472602,190,547.0,543.8,4428,left
63,1,continuous,46,91,trial,5470725.0,5473743.0,3018.0,46,L,5472672,5473178,508,1426.2,615.4,4211,right
63,1,continuous,46,91,trial,5470725.0,5473743.0,3018.0,46,L,5473222,5473502,282,1306.5,951.3,4668,NA
63,1,continuous,46,91,trial,5470725.0,5473743.0,3018.0,46,L,5473520,5473676,158,1363.9,929.2,4743,NA
63,1,continuous,46,91,postResponse,5470725.0,5473743.0,3018.0,46,L,5473722,5474078,358,1385.4,570.3,4583,right
63,1,continuous,47,10,fixationCross,5474876.0,5479759.0,4883.0,47,L,5474154,5474276,124,1386.9,562.9,4783,right
63,1,continuous,47,10,fixationCross,5474876.0,5479759.0,4883.0,47,L,5474340,5474562,224,914.9,692.5,4927,NA
63,1,continuous,47,10,trial,5474876.0,5479759.0,4883.0,47,L,5474596,5475018,424,981.0,559.8,4867,NA
63,1,continuous,47,10,trial,5474876.0,5479759.0,4883.0,47,L,5475066,5475308,244,1395.8,525.7,4835,right
63,1,continuous,47,10,trial,5474876.0,5479759.0,4883.0,47,L,5475322,5475552,232,1374.9,492.0,4666,right
63,1,continuous,47,10,trial,5474876.0,5479759.0,4883.0,47,L,5475618,5475774,158,580.6,522.2,4773,left
63,1,continuous,47,10,trial,5474876.0,5479759.0,4883.0,47,L,5475794,5476148,356,502.6,538.7,4744,left
63,1,continuous,47,10,trial,5474876.0,5479759.0,4883.0,47,L,5476218,5476510,294,1436.1,523.5,4294,right
63,1,continuous,47,10,trial,5474876.0,5479759.0,4883.0,47,L,5476524,5476870,348,1466.3,555.1,4349,right
63,1,continuous,47,10,trial,5474876.0,5479759.0,4883.0,47,L,5476888,5477080,194,1539.1,586.0,4315,right
63,1,continuous,47,10,trial,5474876.0,5479759.0,4883.0,47,L,5477106,5477350,246,1405.1,467.0,4381,right
63,1,continuous,47,10,trial,5474876.0,5479759.0,4883.0,47,L,5477430,5477978,550,518.5,555.7,4651,left
63,1,continuous,47,10,trial,5474876.0,5479759.0,4883.0,47,L,5478164,5478436,274,1386.2,518.7,4239,right
63,1,continuous,47,10,trial,5474876.0,5479759.0,4883.0,47,L,5478458,5478646,190,1454.3,567.0,4516,right
63,1,continuous,47,10,trial,5474876.0,5479759.0,4883.0,47,L,5478662,5478906,246,1511.8,602.9,4488,right
63,1,continuous,47,10,trial,5474876.0,5479759.0,4883.0,47,L,5478984,5479358,376,617.0,973.8,4625,NA
63,1,continuous,47,10,trial,5474876.0,5479759.0,4883.0,47,L,5479406,5479642,238,527.6,585.7,4359,left
63,1,continuous,47,10,postResponse,5474876.0,5479759.0,4883.0,47,L,5479698,5480092,396,556.2,984.9,4566,NA
63,1,continuous,48,1,fixationCross,5480842.0,5482626.0,1784.0,48,L,5480192,5480298,108,543.5,985.6,4552,NA
63,1,continuous,48,1,fixationCross,5480842.0,5482626.0,1784.0,48,L,5480340,5480518,180,706.7,822.3,4690,NA
63,1,continuous,48,1,trial,5480842.0,5482626.0,1784.0,48,L,5480564,5480990,428,949.0,547.5,4848,NA
63,1,continuous,48,1,trial,5480842.0,5482626.0,1784.0,48,L,5481036,5481360,326,502.1,575.4,4760,left
63,1,continuous,48,1,trial,5480842.0,5482626.0,1784.0,48,L,5481432,5481796,366,1444.2,555.9,4166,right
63,1,continuous,48,1,trial,5480842.0,5482626.0,1784.0,48,L,5481820,5482040,222,1540.7,461.6,4035,right
63,1,continuous,48,1,trial,5480842.0,5482626.0,1784.0,48,L,5482118,5482360,244,496.4,617.3,4224,left
63,1,continuous,48,1,postResponse,5480842.0,5482626.0,1784.0,48,L,5482376,5482960,586,477.4,575.2,4216,left
63,1,continuous,49,85,fixationCross,5483743.0,5485426.0,1683.0,49,L,5483238,5483342,106,632.7,560.5,4482,left
63,1,continuous,49,85,fixationCross,5483743.0,5485426.0,1683.0,49,L,5483352,5483424,74,626.4,571.0,4598,left
63,1,continuous,49,85,trial,5483743.0,5485426.0,1683.0,49,L,5483464,5483896,434,973.1,545.1,4658,NA
63,1,continuous,49,85,trial,5483743.0,5485426.0,1683.0,49,L,5483940,5484138,200,644.6,545.6,4481,left
63,1,continuous,49,85,trial,5483743.0,5485426.0,1683.0,49,L,5484158,5484348,192,661.5,495.6,4303,left
63,1,continuous,49,85,trial,5483743.0,5485426.0,1683.0,49,L,5484412,5484768,358,1400.7,601.1,4100,right
63,1,continuous,49,85,trial,5483743.0,5485426.0,1683.0,49,L,5484816,5485004,190,1204.1,894.1,4276,NA
63,1,continuous,49,85,trial,5483743.0,5485426.0,1683.0,49,L,5485030,5485172,144,1360.6,932.1,4463,NA
63,1,continuous,49,85,trial,5483743.0,5485426.0,1683.0,49,L,5485242,5485470,230,656.4,544.9,4647,left
63,1,continuous,49,85,postResponse,5483743.0,5485426.0,1683.0,49,L,5485484,5485758,276,669.5,520.5,4502,left
63,1,continuous,50,86,fixationCross,5486493.0,5491409.0,4916.0,50,L,5485942,5485946,6,1181.4,825.6,3169,likertHorizontal
63,1,continuous,50,86,fixationCross,5486493.0,5491409.0,4916.0,50,L,5485988,5486176,190,1314.9,508.6,4454,right
63,1,continuous,50,86,trial,5486493.0,5491409.0,4916.0,50,L,5486226,5486516,292,960.3,561.0,4908,NA
63,1,continuous,50,86,trial,5486493.0,5491409.0,4916.0,50,L,5486532,5486676,146,971.6,551.1,4842,NA
63,1,continuous,50,86,trial,5486493.0,5491409.0,4916.0,50,L,5486730,5486932,204,542.3,538.1,4677,left
63,1,continuous,50,86,trial,5486493.0,5491409.0,4916.0,50,L,5487004,5487286,284,1466.3,483.5,4278,right
63,1,continuous,50,86,trial,5486493.0,5491409.0,4916.0,50,L,5487302,5487484,184,1490.8,451.9,4251,right
63,1,continuous,50,86,trial,5486493.0,5491409.0,4916.0,50,L,5487560,5487784,226,513.9,531.0,4502,left
63,1,continuous,50,86,trial,5486493.0,5491409.0,4916.0,50,L,5487808,5487920,114,463.5,595.4,4543,left
63,1,continuous,50,86,trial,5486493.0,5491409.0,4916.0,50,L,5488200,5488646,448,502.8,572.1,4538,left
63,1,continuous,50,86,trial,5486493.0,5491409.0,4916.0,50,L,5488720,5488888,170,1450.5,476.1,4054,right
63,1,continuous,50,86,trial,5486493.0,5491409.0,4916.0,50,L,5488904,5489332,430,1498.3,473.5,4147,right
63,1,continuous,50,86,trial,5486493.0,5491409.0,4916.0,50,L,5489404,5489568,166,612.8,593.0,4673,left
63,1,continuous,50,86,trial,5486493.0,5491409.0,4916.0,50,L,5489626,5489848,224,1155.7,933.3,4683,likertHorizontal
63,1,continuous,50,86,trial,5486493.0,5491409.0,4916.0,50,L,5489892,5490292,402,1343.3,698.4,4636,right
63,1,continuous,50,86,trial,5486493.0,5491409.0,4916.0,50,L,5490314,5490568,256,1235.4,749.3,4782,NA
63,1,continuous,50,86,trial,5486493.0,5491409.0,4916.0,50,L,5490632,5490878,248,534.7,600.1,4919,left
63,1,continuous,50,86,trial,5486493.0,5491409.0,4916.0,50,L,5490948,5491250,304,1436.1,508.7,4573,right
63,1,continuous,50,86,trial,5486493.0,5491409.0,4916.0,50,L,5491264,5491374,112,1473.8,492.0,4459,right
63,1,continuous,50,86,trial,5486493.0,5491409.0,4916.0,50,L,5491446,5491638,194,542.6,583.9,4667,left
63,2,binary,1,2,fixationCross,5551493.0,5556060.0,4567.0,51,L,5550554,5550760,208,1105.8,835.5,4236,likertHorizontal
63,2,binary,1,2,fixationCross,5551493.0,5556060.0,4567.0,51,L,5550788,5551062,276,944.2,850.6,4439,likertHorizontal
63,2,binary,1,2,trial,5551493.0,5556060.0,4567.0,51,L,5551214,5551694,482,965.2,533.0,4778,NA
63,2,binary,1,2,trial,5551493.0,5556060.0,4567.0,51,L,5551742,5551958,218,531.7,557.1,4506,left
63,2,binary,1,2,trial,5551493.0,5556060.0,4567.0,51,L,5552022,5552162,142,1370.2,572.7,4139,right
63,2,binary,1,2,trial,5551493.0,5556060.0,4567.0,51,L,5552210,5552356,148,1019.1,946.6,4221,likertHorizontal
63,2,binary,1,2,trial,5551493.0,5556060.0,4567.0,51,L,5552384,5552554,172,961.4,974.1,4367,likertHorizontal
63,2,binary,1,2,trial,5551493.0,5556060.0,4567.0,51,L,5552600,5553014,416,513.3,1024.8,4707,NA
63,2,binary,1,2,trial,5551493.0,5556060.0,4567.0,51,L,5553076,5553208,134,1003.3,676.6,4442,NA
63,2,binary,1,2,trial,5551493.0,5556060.0,4567.0,51,L,5553258,5553722,466,531.6,568.7,4619,left
63,2,binary,1,2,trial,5551493.0,5556060.0,4567.0,51,L,5553790,5553928,140,1372.2,870.1,4698,NA
63,2,binary,1,2,trial,5551493.0,5556060.0,4567.0,51,L,5553978,5554200,224,1370.7,542.5,4556,right
63,2,binary,1,2,trial,5551493.0,5556060.0,4567.0,51,L,5554210,5554378,170,1375.8,570.7,4662,right
63,2,binary,1,2,trial,5551493.0,5556060.0,4567.0,51,L,5554448,5554722,276,504.8,516.2,4772,left
63,2,binary,1,2,trial,5551493.0,5556060.0,4567.0,51,L,5554850,5555172,324,1386.6,562.0,4240,right
63,2,binary,1,2,trial,5551493.0,5556060.0,4567.0,51,L,5555240,5555642,404,515.5,536.7,4469,left
63,2,binary,1,2,trial,5551493.0,5556060.0,4567.0,51,L,5555708,5556104,398,1396.7,566.3,4082,right
63,2,binary,1,2,postResponse,5551493.0,5556060.0,4567.0,51,L,5556166,5556392,228,572.5,536.9,4548,left
63,2,binary,2,2,fixationCross,5556976.0,5558376.0,1400.0,52,L,5556494,5556924,432,940.4,556.4,4717,NA
63,2,binary,2,2,trial,5556976.0,5558376.0,1400.0,52,L,5556940,5557132,194,979.3,550.1,4911,NA
63,2,binary,2,2,trial,5556976.0,5558376.0,1400.0,52,L,5557184,5557682,500,593.2,570.2,4588,left
63,2,binary,2,2,trial,5556976.0,5558376.0,1400.0,52,L,5557706,5557924,220,457.1,555.5,4379,left
63,2,binary,2,2,trial,5556976.0,5558376.0,1400.0,52,L,5558002,5558180,180,1445.0,960.7,4365,NA
63,2,binary,2,2,trial,5556976.0,5558376.0,1400.0,52,L,5558230,5558326,98,1464.7,547.6,4280,right
63,2,binary,2,2,trial,5556976.0,5558376.0,1400.0,52,L,5558398,5558664,268,501.7,530.2,4600,left
63,2,binary,3,1,fixationCross,5559527.0,5562227.0,2700.0,53,L,5558856,5559232,378,981.1,655.2,4822,NA
63,2,binary,3,1,fixationCross,5559527.0,5562227.0,2700.0,53,L,5559254,5559504,252,958.1,591.1,4867,NA
63,2,binary,3,1,trial,5559527.0,5562227.0,2700.0,53,L,5559522,5559718,198,985.6,550.4,4579,NA
63,2,binary,3,1,trial,5559527.0,5562227.0,2700.0,53,L,5559764,5560012,250,563.3,568.5,4572,left
63,2,binary,3,1,trial,5559527.0,5562227.0,2700.0,53,L,5560074,5560604,532,1356.1,538.8,4252,right
63,2,binary,3,1,trial,5559527.0,5562227.0,2700.0,53,L,5560658,5560908,252,1134.1,939.3,4435,likertHorizontal
63,2,binary,3,1,trial,5559527.0,5562227.0,2700.0,53,L,5560950,5561016,68,1456.9,934.7,4427,NA
63,2,binary,3,1,trial,5559527.0,5562227.0,2700.0,53,L,5561084,5562112,1030,537.1,551.0,4470,left
63,2,binary,3,1,trial,5559527.0,5562227.0,2700.0,53,L,5562172,5562460,290,490.8,947.8,4578,NA
63,2,binary,3,1,postResponse,5559527.0,5562227.0,2700.0,53,L,5562514,5562560,48,1038.5,1082.5,4580,likertHorizontal
63,2,binary,4,1,fixationCross,5563260.0,5568543.0,5283.0,54,L,5562660,5562924,266,1025.9,1087.8,4610,likertHorizontal
63,2,binary,4,1,fixationCross,5563260.0,5568543.0,5283.0,54,L,5562992,5563172,182,948.4,520.2,4782,NA
63,2,binary,4,1,trial,5563260.0,5568543.0,5283.0,54,L,5563186,5563460,276,977.2,551.7,4811,NA
63,2,binary,4,1,trial,5563260.0,5568543.0,5283.0,54,L,5563512,5563776,266,615.6,582.1,4664,left
63,2,binary,4,1,trial,5563260.0,5568543.0,5283.0,54,L,5563840,5564116,278,1388.7,571.7,4116,right
63,2,binary,4,1,trial,5563260.0,5568543.0,5283.0,54,L,5564140,5564368,230,1547.7,570.9,4157,right
63,2,binary,4,1,trial,5563260.0,5568543.0,5283.0,54,L,5564378,5564586,210,1518.5,564.3,4163,right
63,2,binary,4,1,trial,5563260.0,5568543.0,5283.0,54,L,5564660,5564870,212,569.6,583.0,4295,left
63,2,binary,4,1,trial,5563260.0,5568543.0,5283.0,54,L,5564904,5565200,298,359.6,562.6,4330,left
63,2,binary,4,1,trial,5563260.0,5568543.0,5283.0,54,L,5565390,5565584,196,1450.6,586.2,4058,right
63,2,binary,4,1,trial,5563260.0,5568543.0,5283.0,54,L,5565644,5565824,182,991.2,892.3,4658,likertHorizontal
63,2,binary,4,1,trial,5563260.0,5568543.0,5283.0,54,L,5565872,5566100,230,567.8,563.0,4698,left
63,2,binary,4,1,trial,5563260.0,5568543.0,5283.0,54,L,5566136,5566316,182,350.5,556.0,4607,left
63,2,binary,4,1,trial,5563260.0,5568543.0,5283.0,54,L,5566332,5566580,250,296.0,566.5,4430,left
63,2,binary,4,1,trial,5563260.0,5568543.0,5283.0,54,L,5566622,5566870,250,627.5,572.6,4396,left
63,2,binary,4,1,trial,5563260.0,5568543.0,5283.0,54,L,5566934,5567240,308,1403.2,560.3,4227,right
63,2,binary,4,1,trial,5563260.0,5568543.0,5283.0,54,L,5567266,5567866,602,1544.6,562.5,4262,right
63,2,binary,4,1,trial,5563260.0,5568543.0,5283.0,54,L,5567946,5568164,220,554.9,558.5,4369,left
63,2,binary,4,1,trial,5563260.0,5568543.0,5283.0,54,L,5568198,5568488,292,351.7,577.8,4360,left
63,2,binary,4,1,trial,5563260.0,5568543.0,5283.0,54,L,5568536,5568774,240,536.5,978.7,4407,NA
63,2,binary,5,2,fixationCross,5569427.0,5570493.0,1066.0,55,L,5569030,5569318,290,952.7,555.0,4545,NA
63,2,binary,5,2,trial,5569427.0,5570493.0,1066.0,55,L,5569338,5569602,266,980.0,550.1,4762,NA
63,2,binary,5,2,trial,5569427.0,5570493.0,1066.0,55,L,5569648,5569972,326,596.4,558.6,4311,left
63,2,binary,5,2,trial,5569427.0,5570493.0,1066.0,55,L,5570032,5570792,762,1316.0,578.0,3858,right
63,2,binary,6,1,trial,5571376.0,5572610.0,1234.0,56,L,5570904,5571410,508,957.8,575.4,4706,NA
63,2,binary,6,1,trial,5571376.0,5572610.0,1234.0,56,L,5571426,5571538,114,962.0,542.9,4659,NA
63,2,binary,6,1,trial,5571376.0,5572610.0,1234.0,56,L,5571584,5571776,194,538.8,561.7,4558,left
63,2,binary,6,1,trial,5571376.0,5572610.0,1234.0,56,L,5571846,5572106,262,1468.6,556.7,4297,right
63,2,binary,6,1,trial,5571376.0,5572610.0,1234.0,56,L,5572130,5572370,242,1306.1,515.9,4192,right
63,2,binary,6,1,trial,5571376.0,5572610.0,1234.0,56,L,5572402,5572650,250,1488.2,572.8,4147,right
63,2,binary,6,1,trial,5571376.0,5572610.0,1234.0,56,L,5572676,5572842,168,1638.8,616.4,4211,right
63,2,binary,7,2,fixationCross,5573594.0,5575427.0,1833.0,57,L,5573042,5573260,220,784.1,765.4,4570,likertHorizontal
63,2,binary,7,2,fixationCross,5573594.0,5575427.0,1833.0,57,L,5573290,5573450,162,993.9,614.3,4823,NA
63,2,binary,7,2,trial,5573594.0,5575427.0,1833.0,57,L,5573472,5573756,286,983.5,535.8,4615,NA
63,2,binary,7,2,trial,5573594.0,5575427.0,1833.0,57,L,5573800,5574036,238,597.1,552.2,4609,left
63,2,binary,7,2,trial,5573594.0,5575427.0,1833.0,57,L,5574058,5574194,138,671.6,503.1,4465,left
63,2,binary,7,2,trial,5573594.0,5575427.0,1833.0,57,L,5574254,5574504,252,1442.9,537.3,4046,right
63,2,binary,7,2,trial,5573594.0,5575427.0,1833.0,57,L,5574520,5574922,404,1399.5,568.6,4218,right
63,2,binary,7,2,trial,5573594.0,5575427.0,1833.0,57,L,5574990,5575398,410,572.3,542.3,4482,left
63,2,binary,7,2,postResponse,5573594.0,5575427.0,1833.0,57,L,5575420,5575764,346,668.3,494.2,4175,left
63,2,binary,8,2,fixationCross,5576643.0,5578860.0,2217.0,58,L,5575878,5576120,244,291.2,636.8,4367,left
63,2,binary,8,2,fixationCross,5576643.0,5578860.0,2217.0,58,L,5576200,5576370,172,1159.0,558.7,4405,NA
63,2,binary,8,2,trial,5576643.0,5578860.0,2217.0,58,L,5576396,5576800,406,1007.5,548.9,4499,NA
63,2,binary,8,2,trial,5576643.0,5578860.0,2217.0,58,L,5576850,5576980,132,466.5,539.0,4720,left
63,2,binary,8,2,trial,5576643.0,5578860.0,2217.0,58,L,5577004,5577148,146,399.3,457.6,4457,left
63,2,binary,8,2,trial,5576643.0,5578860.0,2217.0,58,L,5577222,5577386,166,1465.6,546.5,4046,right
63,2,binary,8,2,trial,5576643.0,5578860.0,2217.0,58,L,5577404,5577716,314,1473.6,492.3,3981,right
63,2,binary,8,2,trial,5576643.0,5578860.0,2217.0,58,L,5577794,5578098,306,430.6,458.7,4064,left
63,2,binary,8,2,trial,5576643.0,5578860.0,2217.0,58,L,5578176,5578366,192,1436.9,928.6,4285,NA
63,2,binary,8,2,trial,5576643.0,5578860.0,2217.0,58,L,5578408,5578540,134,1537.8,592.1,4200,right
63,2,binary,8,2,trial,5576643.0,5578860.0,2217.0,58,L,5578566,5578744,180,1469.6,491.6,4121,right
63,2,binary,8,2,trial,5576643.0,5578860.0,2217.0,58,L,5578778,5578920,144,1661.2,570.3,4124,right
63,2,binary,8,2,trial,5576643.0,5578860.0,2217.0,58,L,5578954,5579156,204,1469.8,495.1,4090,right
63,2,binary,9,2,fixationCross,5579893.0,5581627.0,1734.0,59,L,5579396,5579582,188,730.3,854.0,4676,NA
63,2,binary,9,2,fixationCross,5579893.0,5581627.0,1734.0,59,L,5579624,5579772,150,971.7,566.7,4788,NA
63,2,binary,9,2,trial,5579893.0,5581627.0,1734.0,59,L,5579788,5580022,236,981.7,533.7,4641,NA
63,2,binary,9,2,trial,5579893.0,5581627.0,1734.0,59,L,5580078,5580290,214,527.9,500.9,4535,left
63,2,binary,9,2,trial,5579893.0,5581627.0,1734.0,59,L,5580310,5580624,316,520.5,545.7,4426,left
63,2,binary,9,2,trial,5579893.0,5581627.0,1734.0,59,L,5580696,5580922,228,1493.3,593.7,4134,right
63,2,binary,9,2,trial,5579893.0,5581627.0,1734.0,59,L,5580946,5581216,272,1630.7,603.1,4196,right
63,2,binary,9,2,trial,5579893.0,5581627.0,1734.0,59,L,5581232,5581534,304,1571.6,617.1,4364,right
63,2,binary,9,2,trial,5579893.0,5581627.0,1734.0,59,L,5581570,5581676,108,1351.9,570.3,4371,right
63,2,binary,9,2,postResponse,5579893.0,5581627.0,1734.0,59,L,5581738,5581960,224,591.2,538.0,4416,left
63,2,binary,10,2,fixationCross,5582827.0,5584210.0,1383.0,60,L,5582062,5582266,206,585.9,542.2,4488,left
63,2,binary,10,2,fixationCross,5582827.0,5584210.0,1383.0,60,L,5582458,5582526,70,770.6,492.9,4521,NA
63,2,binary,10,2,trial,5582827.0,5584210.0,1383.0,60,L,5582560,5582978,420,985.5,534.5,4702,NA
63,2,binary,10,2,trial,5582827.0,5584210.0,1383.0,60,L,5583024,5583464,442,555.5,532.8,4396,left
63,2,binary,10,2,trial,5582827.0,5584210.0,1383.0,60,L,5583540,5583788,250,1559.4,546.7,4009,right
63,2,binary,10,2,trial,5582827.0,5584210.0,1383.0,60,L,5583810,5584144,336,1468.6,582.2,4072,right
63,2,binary,10,2,postResponse,5582827.0,5584210.0,1383.0,60,L,5584176,5584542,368,1618.4,468.3,4090,right
63,2,binary,11,2,fixationCross,5585177.0,5588694.0,3517.0,61,L,5584666,5584862,198,1318.7,557.4,4430,right
63,2,binary,11,2,fixationCross,5585177.0,5588694.0,3517.0,61,L,5584908,5585088,182,1001.4,590.1,4598,NA
63,2,binary,11,2,trial,5585177.0,5588694.0,3517.0,61,L,5585106,5585326,222,946.8,543.0,4679,NA
63,2,binary,11,2,trial,5585177.0,5588694.0,3517.0,61,L,5585374,5585626,254,499.3,546.2,4657,left
63,2,binary,11,2,trial,5585177.0,5588694.0,3517.0,61,L,5585694,5585904,212,1402.7,617.6,4210,right
63,2,binary,11,2,trial,5585177.0,5588694.0,3517.0,61,L,5585922,5586150,230,1338.5,618.4,4279,right
63,2,binary,11,2,trial,5585177.0,5588694.0,3517.0,61,L,5586188,5586430,244,1526.0,579.6,4545,right
63,2,binary,11,2,trial,5585177.0,5588694.0,3517.0,61,L,5586458,5586726,270,1332.4,532.5,4539,right
63,2,binary,11,2,trial,5585177.0,5588694.0,3517.0,61,L,5586748,5586908,162,1333.3,607.9,4498,right
63,2,binary,11,2,trial,5585177.0,5588694.0,3517.0,61,L,5586978,5587172,196,486.2,569.2,4695,left
63,2,binary,11,2,trial,5585177.0,5588694.0,3517.0,61,L,5587192,5587618,428,435.5,543.3,4594,left
63,2,binary,11,2,trial,5585177.0,5588694.0,3517.0,61,L,5587644,5587956,314,415.5,653.0,4521,left
63,2,binary,11,2,trial,5585177.0,5588694.0,3517.0,61,L,5588028,5588288,262,1382.3,617.5,4282,right
63,2,binary,11,2,trial,5585177.0,5588694.0,3517.0,61,L,5588310,5588564,256,1332.3,547.8,4236,right
63,2,binary,11,2,trial,5585177.0,5588694.0,3517.0,61,L,5588586,5588766,182,1331.2,625.8,4176,right
63,2,binary,11,2,postResponse,5585177.0,5588694.0,3517.0,61,L,5588802,5589028,228,1574.1,612.9,4216,right
63,2,binary,12,1,fixationCross,5589810.0,5591527.0,1717.0,62,L,5589160,5589478,320,1269.6,530.8,4629,right
63,2,binary,12,1,trial,5589810.0,5591527.0,1717.0,62,L,5589518,5589960,444,966.9,549.3,4930,NA
63,2,binary,12,1,trial,5589810.0,5591527.0,1717.0,62,L,5590008,5590144,138,538.0,547.4,4838,left
63,2,binary,12,1,trial,5589810.0,5591527.0,1717.0,62,L,5590166,5590348,184,432.8,514.1,4523,left
63,2,binary,12,1,trial,5589810.0,5591527.0,1717.0,62,L,5590416,5590658,244,1339.6,615.3,3952,right
63,2,binary,12,1,trial,5589810.0,5591527.0,1717.0,62,L,5590686,5590972,288,1472.0,548.0,3981,right
63,2,binary,12,1,trial,5589810.0,5591527.0,1717.0,62,L,5591046,5591320,276,521.5,586.4,4326,left
63,2,binary,12,1,trial,5589810.0,5591527.0,1717.0,62,L,5591344,5591586,244,617.1,691.2,4337,left
63,2,binary,12,1,trial,5589810.0,5591527.0,1717.0,62,L,5591624,5591798,176,428.8,504.5,4174,left
63,2,binary,13,1,fixationCross,5592427.0,5596744.0,4317.0,63,L,5592028,5592328,302,1027.0,526.9,4498,NA
63,2,binary,13,1,trial,5592427.0,5596744.0,4317.0,63,L,5592346,5592600,256,992.2,533.5,4792,NA
63,2,binary,13,1,trial,5592427.0,5596744.0,4317.0,63,L,5592648,5592800,154,543.8,540.4,4501,left
63,2,binary,13,1,trial,5592427.0,5596744.0,4317.0,63,L,5592824,5593020,198,640.0,494.8,4255,left
63,2,binary,13,1,trial,5592427.0,5596744.0,4317.0,63,L,5593082,5593388,308,1441.2,502.8,3940,right
63,2,binary,13,1,trial,5592427.0,5596744.0,4317.0,63,L,5593400,5593618,220,1476.3,509.2,4014,right
63,2,binary,13,1,trial,5592427.0,5596744.0,4317.0,63,L,5593684,5594132,450,633.2,504.1,4243,left
63,2,binary,13,1,trial,5592427.0,5596744.0,4317.0,63,L,5594192,5594380,190,1382.5,512.6,4139,right
63,2,binary,13,1,trial,5592427.0,5596744.0,4317.0,63,L,5594402,5594720,320,1472.0,503.4,4265,right
63,2,binary,13,1,trial,5592427.0,5596744.0,4317.0,63,L,5594786,5595018,234,666.0,507.2,4430,left
63,2,binary,13,1,trial,5592427.0,5596744.0,4317.0,63,L,5595036,5595408,374,641.3,506.4,4424,left
63,2,binary,13,1,trial,5592427.0,5596744.0,4317.0,63,L,5595472,5595740,270,1439.1,533.6,4154,right
63,2,binary,13,1,trial,5592427.0,5596744.0,4317.0,63,L,5595810,5596032,224,569.3,515.8,4318,left
63,2,binary,13,1,trial,5592427.0,5596744.0,4317.0,63,L,5596056,5596374,320,644.5,507.3,4384,left
63,2,binary,13,1,trial,5592427.0,5596744.0,4317.0,63,L,5596412,5596688,278,433.6,557.3,4394,left
63,2,binary,13,1,trial,5592427.0,5596744.0,4317.0,63,L,5596718,5596934,218,648.0,502.3,4387,left
63,2,binary,14,2,fixationCross,5597810.0,5601110.0,3300.0,64,L,5597176,5597514,340,852.8,539.6,4642,NA
63,2,binary,14,2,trial,5597810.0,5601110.0,3300.0,64,L,5597540,5597956,418,990.6,533.7,4514,NA
63,2,binary,14,2,trial,5597810.0,5601110.0,3300.0,64,L,5598002,5598244,244,547.5,548.3,4368,left
63,2,binary,14,2,trial,5597810.0,5601110.0,3300.0,64,L,5598268,5598692,426,437.5,538.5,4308,left
63,2,binary,14,2,trial,5597810.0,5601110.0,3300.0,64,L,5598770,5598980,212,1441.7,517.9,4074,right
63,2,binary,14,2,trial,5597810.0,5601110.0,3300.0,64,L,5599016,5599372,358,1632.9,517.9,4245,right
63,2,binary,14,2,trial,5597810.0,5601110.0,3300.0,64,L,5599446,5599586,142,872.7,980.1,4607,likertHorizontal
63,2,binary,14,2,trial,5597810.0,5601110.0,3300.0,64,L,5599610,5599706,98,990.5,942.6,4561,likertHorizontal
63,2,binary,14,2,trial,5597810.0,5601110.0,3300.0,64,L,5599752,5599914,164,500.9,969.2,4546,NA
63,2,binary,14,2,trial,5597810.0,5601110.0,3300.0,64,L,5599970,5600148,180,413.0,568.0,4512,left
63,2,binary,14,2,trial,5597810.0,5601110.0,3300.0,64,L,5600224,5600470,248,1460.8,520.1,4206,right
63,2,binary,14,2,trial,5597810.0,5601110.0,3300.0,64,L,5600544,5600902,360,470.7,578.1,4481,left
63,2,binary,14,2,trial,5597810.0,5601110.0,3300.0,64,L,5600978,5601396,420,1429.7,942.0,4330,NA
63,2,binary,15,2,fixationCross,5602010.0,5603994.0,1984.0,65,L,5601542,5601652,112,855.8,936.4,4680,likertHorizontal
63,2,binary,15,2,fixationCross,5602010.0,5603994.0,1984.0,65,L,5601704,5601886,184,909.6,557.3,4703,NA
63,2,binary,15,2,trial,5602010.0,5603994.0,1984.0,65,L,5601908,5602172,266,983.4,541.4,4690,NA
63,2,binary,15,2,trial,5602010.0,5603994.0,1984.0,65,L,5602226,5602418,194,570.3,545.2,4684,left
63,2,binary,15,2,trial,5602010.0,5603994.0,1984.0,65,L,5602440,5602584,146,492.4,586.3,4539,left
63,2,binary,15,2,trial,5602010.0,5603994.0,1984.0,65,L,5602648,5602888,242,1344.0,558.6,4158,right
63,2,binary,15,2,trial,5602010.0,5603994.0,1984.0,65,L,5602900,5603106,208,1373.0,532.4,4066,right
63,2,binary,15,2,trial,5602010.0,5603994.0,1984.0,65,L,5603132,5603644,514,1525.2,547.1,4076,right
63,2,binary,15,2,postResponse,5602010.0,5603994.0,1984.0,65,L,5603772,5604326,556,625.9,628.8,4300,left
63,2,binary,16,1,fixationCross,5604977.0,5607094.0,2117.0,66,L,5604444,5604646,204,412.6,662.7,4397,left
63,2,binary,16,1,fixationCross,5604977.0,5607094.0,2117.0,66,L,5604712,5604860,150,1051.1,503.3,4443,NA
63,2,binary,16,1,trial,5604977.0,5607094.0,2117.0,66,L,5604890,5605112,224,972.8,530.6,4460,NA
63,2,binary,16,1,trial,5604977.0,5607094.0,2117.0,66,L,5605164,5605338,176,577.4,564.6,4592,left
63,2,binary,16,1,trial,5604977.0,5607094.0,2117.0,66,L,5605360,5605518,160,519.3,622.9,4417,left
63,2,binary,16,1,trial,5604977.0,5607094.0,2117.0,66,L,5605528,5605794,268,500.9,649.4,4215,left
63,2,binary,16,1,trial,5604977.0,5607094.0,2117.0,66,L,5605830,5605990,162,401.1,462.2,3987,left
63,2,binary,16,1,trial,5604977.0,5607094.0,2117.0,66,L,5606060,5606398,340,1380.1,501.5,3754,right
63,2,binary,16,1,trial,5604977.0,5607094.0,2117.0,66,L,5606420,5606752,334,1480.3,507.3,3848,right
63,2,binary,16,1,trial,5604977.0,5607094.0,2117.0,66,L,5606770,5607108,340,1449.7,547.6,3912,right
63,2,binary,16,1,postResponse,5604977.0,5607094.0,2117.0,66,L,5607178,5607428,252,598.4,592.8,4142,left
63,2,binary,17,1,fixationCross,5608177.0,5610494.0,2317.0,67,L,5607502,5607532,32,597.3,597.4,4185,left
63,2,binary,17,1,fixationCross,5608177.0,5610494.0,2317.0,67,L,5607792,5607814,24,686.6,513.9,4159,left
63,2,binary,17,1,fixationCross,5608177.0,5610494.0,2317.0,67,L,5607824,5607880,58,693.3,545.3,4188,left
63,2,binary,17,1,trial,5608177.0,5610494.0,2317.0,67,L,5607920,5608232,314,982.1,524.0,4390,NA
63,2,binary,17,1,trial,5608177.0,5610494.0,2317.0,67,L,5608272,5608420,150,1258.2,562.6,4116,right
63,2,binary,17,1,trial,5608177.0,5610494.0,2317.0,67,L,5608442,5608638,198,1344.4,512.8,3926,right
63,2,binary,17,1,trial,5608177.0,5610494.0,2317.0,67,L,5608704,5608944,242,516.9,584.7,3977,left
63,2,binary,17,1,trial,5608177.0,5610494.0,2317.0,67,L,5608966,5609196,232,632.4,549.3,4036,left
63,2,binary,17,1,trial,5608177.0,5610494.0,2317.0,67,L,5609210,5609380,172,617.3,516.8,3979,left
63,2,binary,17,1,trial,5608177.0,5610494.0,2317.0,67,L,5609442,5609600,160,1424.6,515.3,3786,right
63,2,binary,17,1,trial,5608177.0,5610494.0,2317.0,67,L,5609622,5609812,192,1320.6,497.3,3857,right
63,2,binary,17,1,trial,5608177.0,5610494.0,2317.0,67,L,5609852,5609978,128,1622.9,553.1,3781,right
63,2,binary,17,1,trial,5608177.0,5610494.0,2317.0,67,L,5610044,5610498,456,710.7,534.0,3971,left
63,2,binary,17,1,postResponse,5608177.0,5610494.0,2317.0,67,L,5610516,5610826,312,632.0,518.5,4066,left
63,2,binary,18,1,fixationCross,5611594.0,5615377.0,3783.0,68,L,5610926,5611112,188,411.2,615.5,4152,left
63,2,binary,18,1,fixationCross,5611594.0,5615377.0,3783.0,68,L,5611150,5611266,118,649.5,594.2,4182,left
63,2,binary,18,1,fixationCross,5611594.0,5615377.0,3783.0,68,L,5611306,5611436,132,965.3,534.2,4056,NA
63,2,binary,18,1,trial,5611594.0,5615377.0,3783.0,68,L,5611446,5611748,304,995.6,534.7,4040,NA
63,2,binary,18,1,trial,5611594.0,5615377.0,3783.0,68,L,5611794,5611942,150,519.4,571.2,4142,left
63,2,binary,18,1,trial,5611594.0,5615377.0,3783.0,68,L,5611964,5612156,194,414.3,523.9,3993,left
63,2,binary,18,1,trial,5611594.0,5615377.0,3783.0,68,L,5612168,5612266,100,429.9,499.3,3923,left
63,2,binary,18,1,trial,5611594.0,5615377.0,3783.0,68,L,5612338,5612544,208,1459.5,539.3,3636,right
63,2,binary,18,1,trial,5611594.0,5615377.0,3783.0,68,L,5612554,5612742,190,1472.0,521.7,3636,right
63,2,binary,18,1,trial,5611594.0,5615377.0,3783.0,68,L,5612768,5613016,250,1557.4,447.0,3520,right
63,2,binary,18,1,trial,5611594.0,5615377.0,3783.0,68,L,5613038,5613292,256,1468.5,521.3,3542,right
63,2,binary,18,1,trial,5611594.0,5615377.0,3783.0,68,L,5613370,5613532,164,457.4,500.9,3789,left
63,2,binary,18,1,trial,5611594.0,5615377.0,3783.0,68,L,5613546,5614078,534,414.9,487.9,3808,left
63,2,binary,18,1,trial,5611594.0,5615377.0,3783.0,68,L,5614094,5614476,384,399.7,537.1,3856,left
63,2,binary,18,1,trial,5611594.0,5615377.0,3783.0,68,L,5614560,5614876,318,1452.2,525.9,3652,right
63,2,binary,18,1,trial,5611594.0,5615377.0,3783.0,68,L,5614900,5615292,394,1565.2,451.1,3673,right
63,2,binary,18,1,postResponse,5611594.0,5615377.0,3783.0,68,L,5615380,5615710,332,418.3,509.6,3861,left
63,2,binary,19,2,fixationCross,5616311.0,5618561.0,2250.0,69,L,5616042,5616174,134,936.6,540.4,4019,NA
63,2,binary,19,2,trial,5616311.0,5618561.0,2250.0,69,L,5616192,5616458,268,985.4,546.8,4280,NA
63,2,binary,19,2,trial,5616311.0,5618561.0,2250.0,69,L,5616506,5616720,216,504.3,529.4,4026,left
63,2,binary,19,2,trial,5616311.0,5618561.0,2250.0,69,L,5616740,5616896,158,588.8,488.1,3813,left
63,2,binary,19,2,trial,5616311.0,5618561.0,2250.0,69,L,5616962,5617256,296,1462.2,531.7,3670,right
63,2,binary,19,2,trial,5616311.0,5618561.0,2250.0,69,L,5617270,5617498,230,1414.1,502.3,3765,right
63,2,binary,19,2,trial,5616311.0,5618561.0,2250.0,69,L,5617514,5617634,122,1431.6,466.7,3729,right
63,2,binary,19,2,trial,5616311.0,5618561.0,2250.0,69,L,5617712,5618056,346,415.9,521.6,3937,left
63,2,binary,19,2,trial,5616311.0,5618561.0,2250.0,69,L,5618068,5618220,154,399.8,495.6,3964,left
63,2,binary,19,2,trial,5616311.0,5618561.0,2250.0,69,L,5618248,5618528,282,594.2,487.7,3925,left
63,2,binary,19,2,postResponse,5616311.0,5618561.0,2250.0,69,L,5618594,5618894,302,1388.0,483.5,3872,right
63,2,binary,20,1,fixationCross,5620277.0,5621695.0,1418.0,70,L,5619026,5619092,68,781.4,575.6,4162,NA
63,2,binary,20,1,fixationCross,5620277.0,5621695.0,1418.0,70,L,5619106,5619446,342,758.1,570.9,4353,NA
63,2,binary,20,1,fixationCross,5620277.0,5621695.0,1418.0,70,L,5619468,5619706,240,673.6,543.3,4216,left
63,2,binary,20,1,fixationCross,5620277.0,5621695.0,1418.0,70,L,5619728,5619972,246,550.1,552.6,4100,left
63,2,binary,20,1,trial,5620277.0,5621695.0,1418.0,70,L,5620018,5620442,426,977.6,532.6,4088,NA
63,2,binary,20,1,trial,5620277.0,5621695.0,1418.0,70,L,5620490,5620676,188,530.9,566.0,4179,left
63,2,binary,20,1,trial,5620277.0,5621695.0,1418.0,70,L,5620748,5620964,218,1497.2,577.8,3817,right
63,2,binary,20,1,trial,5620277.0,5621695.0,1418.0,70,L,5620984,5621326,344,1590.8,571.8,3827,right
63,2,binary,20,1,postResponse,5620277.0,5621695.0,1418.0,70,L,5621404,5622026,624,525.4,597.1,4043,left
63,2,binary,21,1,fixationCross,5622844.0,5624061.0,1217.0,71,L,5622126,5622146,22,519.5,602.8,4067,left
63,2,binary,21,1,fixationCross,5622844.0,5624061.0,1217.0,71,L,5622380,5622530,152,1190.7,558.3,4046,right
63,2,binary,21,1,trial,5622844.0,5624061.0,1217.0,71,L,5622564,5622864,302,980.0,542.1,4357,NA
63,2,binary,21,1,trial,5622844.0,5624061.0,1217.0,71,L,5622906,5623134,230,661.4,601.1,4131,left
63,2,binary,21,1,trial,5622844.0,5624061.0,1217.0,71,L,5623194,5623380,188,1463.5,515.5,3790,right
63,2,binary,21,1,trial,5622844.0,5624061.0,1217.0,71,L,5623394,5623612,220,1456.1,476.0,3796,right
63,2,binary,21,1,trial,5622844.0,5624061.0,1217.0,71,L,5623684,5623992,310,481.4,668.9,4071,left
63,2,binary,21,1,postResponse,5622844.0,5624061.0,1217.0,71,L,5624060,5624394,336,1408.7,485.3,3869,right
63,2,binary,22,2,fixationCross,5625477.0,5627044.0,1567.0,72,L,5624498,5624660,164,543.5,877.7,4375,NA
63,2,binary,22,2,fixationCross,5625477.0,5627044.0,1567.0,72,L,5624704,5624960,258,970.3,1134.3,4323,likertHorizontal
63,2,binary,22,2,fixationCross,5625477.0,5627044.0,1567.0,72,L,5625028,5625192,166,834.4,639.1,4117,NA
63,2,binary,22,2,fixationCross,5625477.0,5627044.0,1567.0,72,L,5625216,5625446,232,961.4,549.8,4240,NA
63,2,binary,22,2,trial,5625477.0,5627044.0,1567.0,72,L,5625456,5625626,172,979.9,542.9,4439,NA
63,2,binary,22,2,trial,5625477.0,5627044.0,1567.0,72,L,5625672,5625966,296,546.9,513.0,4321,left
63,2,binary,22,2,trial,5625477.0,5627044.0,1567.0,72,L,5626034,5626504,472,1449.7,564.7,3760,right
63,2,binary,22,2,trial,5625477.0,5627044.0,1567.0,72,L,5626540,5626922,384,1614.5,485.9,3865,right
63,2,binary,22,2,trial,5625477.0,5627044.0,1567.0,72,L,5627004,5627250,248,551.1,521.3,4092,left
63,2,binary,23,2,fixationCross,5628311.0,5630244.0,1933.0,73,L,5627554,5627678,126,1498.7,781.1,4015,NA
63,2,binary,23,2,fixationCross,5628311.0,5630244.0,1933.0,73,L,5627740,5627964,226,988.6,1040.0,4676,likertHorizontal
63,2,binary,23,2,fixationCross,5628311.0,5630244.0,1933.0,73,L,5628024,5628206,184,1020.2,612.1,4273,NA
63,2,binary,23,2,trial,5628311.0,5630244.0,1933.0,73,L,5628230,5628470,242,920.4,528.5,4186,NA
63,2,binary,23,2,trial,5628311.0,5630244.0,1933.0,73,L,5628514,5628672,160,515.1,548.6,4400,left
63,2,binary,23,2,trial,5628311.0,5630244.0,1933.0,73,L,5628740,5628904,166,1451.8,551.3,4127,right
63,2,binary,23,2,trial,5628311.0,5630244.0,1933.0,73,L,5628924,5629244,322,1530.0,547.2,3999,right
63,2,binary,23,2,trial,5628311.0,5630244.0,1933.0,73,L,5629320,5629496,178,547.9,644.5,4041,left
63,2,binary,23,2,trial,5628311.0,5630244.0,1933.0,73,L,5629514,5629756,244,512.3,663.4,4069,left
63,2,binary,23,2,trial,5628311.0,5630244.0,1933.0,73,L,5629814,5630166,354,1117.0,927.9,4056,likertHorizontal
63,2,binary,23,2,trial,5628311.0,5630244.0,1933.0,73,L,5630208,5630478,272,1488.0,947.3,4115,NA
63,2,binary,23,2,postResponse,5628311.0,5630244.0,1933.0,73,L,5630532,5630576,46,950.8,925.0,4309,likertHorizontal
63,2,binary,24,2,fixationCross,5631361.0,5634594.0,3233.0,74,L,5630650,5630824,176,948.1,932.4,4385,likertHorizontal
63,2,binary,24,2,trial,5631361.0,5634594.0,3233.0,74,L,5631070,5631504,436,1006.3,570.6,4421,NA
63,2,binary,24,2,trial,5631361.0,5634594.0,3233.0,74,L,5631548,5631814,268,601.1,546.7,4064,left
63,2,binary,24,2,trial,5631361.0,5634594.0,3233.0,74,L,5631876,5632054,180,1428.2,559.4,3709,right
63,2,binary,24,2,trial,5631361.0,5634594.0,3233.0,74,L,5632070,5632320,252,1490.2,541.4,3687,right
63,2,binary,24,2,trial,5631361.0,5634594.0,3233.0,74,L,5632336,5632468,134,1463.4,577.8,3786,right
63,2,binary,24,2,trial,5631361.0,5634594.0,3233.0,74,L,5632530,5632810,282,708.1,600.5,4020,left
63,2,binary,24,2,trial,5631361.0,5634594.0,3233.0,74,L,5632838,5632936,100,589.1,609.8,4038,left
63,2,binary,24,2,trial,5631361.0,5634594.0,3233.0,74,L,5633002,5633342,342,1450.8,586.1,3832,right
63,2,binary,24,2,trial,5631361.0,5634594.0,3233.0,74,L,5633354,5633690,338,1444.9,549.3,3808,right
63,2,binary,24,2,trial,5631361.0,5634594.0,3233.0,74,L,5633766,5634324,560,560.4,660.5,3992,left
63,2,binary,24,2,trial,5631361.0,5634594.0,3233.0,74,L,5634392,5634550,160,1401.3,787.2,3833,NA
63,2,binary,24,2,postResponse,5631361.0,5634594.0,3233.0,74,L,5634588,5634928,342,1452.1,561.5,3974,right
63,2,binary,25,1,fixationCross,5635628.0,5637977.0,2349.0,75,L,5635002,5635086,86,1443.1,570.7,4148,right
63,2,binary,25,1,fixationCross,5635628.0,5637977.0,2349.0,75,L,5635358,5635482,126,1017.4,562.8,4148,NA
63,2,binary,25,1,trial,5635628.0,5637977.0,2349.0,75,L,5635500,5635804,306,972.7,543.2,4455,NA
63,2,binary,25,1,trial,5635628.0,5637977.0,2349.0,75,L,5635852,5636082,232,521.4,549.2,4050,left
63,2,binary,25,1,trial,5635628.0,5637977.0,2349.0,75,L,5636094,5636284,192,549.6,529.6,3784,left
63,2,binary,25,1,trial,5635628.0,5637977.0,2349.0,75,L,5636356,5636872,518,1497.7,566.7,3487,right
63,2,binary,25,1,trial,5635628.0,5637977.0,2349.0,75,L,5636892,5637080,190,1553.6,616.2,3661,right
63,2,binary,25,1,trial,5635628.0,5637977.0,2349.0,75,L,5637108,5637332,226,1390.8,641.3,3811,right
63,2,binary,25,1,trial,5635628.0,5637977.0,2349.0,75,L,5637364,5637466,104,1539.4,531.9,3805,right
63,2,binary,25,1,trial,5635628.0,5637977.0,2349.0,75,L,5637542,5637928,388,548.8,565.2,4009,left
63,2,binary,25,1,postResponse,5635628.0,5637977.0,2349.0,75,L,5637942,5638310,370,560.0,532.6,4033,left
63,2,binary,26,1,fixationCross,5658527.0,5660178.0,1651.0,76,L,5657842,5658086,246,172.1,19.5,3767,NA
63,2,binary,26,1,fixationCross,5658527.0,5660178.0,1651.0,76,L,5658276,5658362,88,959.1,543.1,3561,NA
63,2,binary,26,1,trial,5658527.0,5660178.0,1651.0,76,L,5658376,5658804,430,994.1,546.7,3905,NA
63,2,binary,26,1,trial,5658527.0,5660178.0,1651.0,76,L,5658848,5658906,60,1356.0,631.4,3792,right
63,2,binary,26,1,trial,5658527.0,5660178.0,1651.0,76,L,5658932,5659116,186,1481.6,573.2,3654,right
63,2,binary,26,1,trial,5658527.0,5660178.0,1651.0,76,L,5659128,5659318,192,1440.8,551.3,3682,right
63,2,binary,26,1,trial,5658527.0,5660178.0,1651.0,76,L,5659390,5659778,390,496.3,567.6,3759,left
63,2,binary,26,1,trial,5658527.0,5660178.0,1651.0,76,L,5659906,5660100,196,1037.0,934.1,3734,likertHorizontal
63,2,binary,26,1,trial,5658527.0,5660178.0,1651.0,76,L,5660154,5660486,334,1345.5,511.9,3926,right
63,2,binary,27,2,fixationCross,5661245.0,5662278.0,1033.0,77,L,5660712,5660934,224,536.5,657.1,4241,left
63,2,binary,27,2,fixationCross,5661245.0,5662278.0,1033.0,77,L,5660980,5661134,156,1014.0,540.1,4363,NA
63,2,binary,27,2,trial,5661245.0,5662278.0,1033.0,77,L,5661152,5661420,270,992.8,547.4,4078,NA
63,2,binary,27,2,trial,5661245.0,5662278.0,1033.0,77,L,5661464,5661796,334,604.0,518.8,3941,left
