participantNo,block,task,blockTrial,response,trialStage,trialStartTime,trialFinishTime,rt,trial,eye,fixStart,fixEnd,fixLength,fixPosX,fixPosY,dilation,aoi
15,1,continuous,1,1,fixationCross,20222976.0,20224643.0,1667.0,1,L,20212670,20213102,434,734.3,664.1,4952,left
15,1,continuous,1,1,fixationCross,20222976.0,20224643.0,1667.0,1,L,20213144,20213288,146,952.0,537.4,4668,NA
15,1,continuous,1,1,fixationCross,20222976.0,20224643.0,1667.0,1,L,20213460,20213660,202,906.7,506.2,4892,NA
15,1,continuous,1,1,fixationCross,20222976.0,20224643.0,1667.0,1,L,20213682,20214082,402,937.4,537.9,5105,NA
15,1,continuous,1,1,fixationCross,20222976.0,20224643.0,1667.0,1,L,20214420,20214718,300,906.6,556.3,4877,NA
15,1,continuous,1,1,fixationCross,20222976.0,20224643.0,1667.0,1,L,20214738,20214874,138,936.9,544.9,5078,NA
15,1,continuous,1,1,fixationCross,20222976.0,20224643.0,1667.0,1,L,20215014,20215042,30,929.2,530.7,4757,NA
15,1,continuous,1,1,fixationCross,20222976.0,20224643.0,1667.0,1,L,20215190,20215238,50,965.0,540.3,4734,NA
15,1,continuous,1,1,fixationCross,20222976.0,20224643.0,1667.0,1,L,20215386,20215540,156,890.7,532.2,4960,NA
15,1,continuous,1,1,fixationCross,20222976.0,20224643.0,1667.0,1,L,20215562,20216466,906,931.3,541.3,4808,NA
15,1,continuous,1,1,fixationCross,20222976.0,20224643.0,1667.0,1,L,20216534,20216736,204,943.2,1833.4,4926,likertHorizontal
15,1,continuous,1,1,fixationCross,20222976.0,20224643.0,1667.0,1,L,20216758,20216978,222,872.3,1779.9,5094,likertHorizontal
15,1,continuous,1,1,fixationCross,20222976.0,20224643.0,1667.0,1,L,20217032,20217332,302,1520.5,1686.1,5388,NA
15,1,continuous,1,1,fixationCross,20222976.0,20224643.0,1667.0,1,L,20217660,20217852,194,1436.2,1856.0,6257,NA
15,1,continuous,1,1,fixationCross,20222976.0,20224643.0,1667.0,1,L,20218574,20218752,180,923.9,521.8,5397,NA
15,1,continuous,1,1,fixationCross,20222976.0,20224643.0,1667.0,1,L,20218766,20219016,252,943.0,561.7,5429,NA
15,1,continuous,1,1,fixationCross,20222976.0,20224643.0,1667.0,1,L,20219846,20219908,64,833.2,1921.1,6585,likertHorizontal
15,1,continuous,1,1,fixationCross,20222976.0,20224643.0,1667.0,1,L,20220156,20220316,162,886.5,482.7,5117,NA
15,1,continuous,1,1,fixationCross,20222976.0,20224643.0,1667.0,1,L,20220342,20220804,464,936.4,524.4,5054,NA
15,1,continuous,1,1,fixationCross,20222976.0,20224643.0,1667.0,1,L,20220968,20221128,162,904.0,528.2,4876,NA
15,1,continuous,1,1,fixationCross,20222976.0,20224643.0,1667.0,1,L,20221146,20221514,370,929.4,535.9,4962,NA
15,1,continuous,1,1,fixationCross,20222976.0,20224643.0,1667.0,1,L,20221680,20221816,138,960.0,510.4,4731,NA
15,1,continuous,1,1,fixationCross,20222976.0,20224643.0,1667.0,1,L,20221828,20222150,324,941.5,537.4,4839,NA
15,1,continuous,1,1,fixationCross,20222976.0,20224643.0,1667.0,1,L,20222510,20222642,134,869.8,489.2,4931,NA
15,1,continuous,1,1,trial,20222976.0,20224643.0,1667.0,1,L,20222666,20223170,506,928.6,524.2,4927,NA
15,1,continuous,1,1,trial,20222976.0,20224643.0,1667.0,1,L,20223218,20223558,342,481.4,468.7,4448,left
15,1,continuous,1,1,trial,20222976.0,20224643.0,1667.0,1,L,20223582,20224046,466,427.3,533.5,4169,left
15,1,continuous,1,1,trial,20222976.0,20224643.0,1667.0,1,L,20224064,20224708,646,400.7,482.8,4119,left
15,1,continuous,1,1,postResponse,20222976.0,20224643.0,1667.0,1,L,20224728,20225016,290,508.3,445.7,4089,left
15,1,continuous,2,1,fixationCross,20235392.0,20238692.0,3300.0,2,L,20225116,20226696,1582,506.0,457.4,4560,left
15,1,continuous,2,1,fixationCross,20235392.0,20238692.0,3300.0,2,L,20226752,20226880,130,1005.3,513.6,4571,NA
15,1,continuous,2,1,fixationCross,20235392.0,20238692.0,3300.0,2,L,20226902,20227178,278,946.8,528.9,4630,NA
15,1,continuous,2,1,fixationCross,20235392.0,20238692.0,3300.0,2,L,20227386,20229208,1824,949.1,529.3,4636,NA
15,1,continuous,2,1,fixationCross,20235392.0,20238692.0,3300.0,2,L,20229396,20230276,882,962.5,542.3,4680,NA
15,1,continuous,2,1,fixationCross,20235392.0,20238692.0,3300.0,2,L,20230488,20230764,278,901.4,565.0,4697,NA
15,1,continuous,2,1,fixationCross,20235392.0,20238692.0,3300.0,2,L,20230784,20231226,444,955.2,528.0,4720,NA
15,1,continuous,2,1,fixationCross,20235392.0,20238692.0,3300.0,2,L,20231436,20231646,212,974.1,539.7,4522,NA
15,1,continuous,2,1,fixationCross,20235392.0,20238692.0,3300.0,2,L,20231664,20232852,1190,954.4,536.0,4578,NA
15,1,continuous,2,1,fixationCross,20235392.0,20238692.0,3300.0,2,L,20233070,20233318,250,953.4,551.6,4726,NA
15,1,continuous,2,1,fixationCross,20235392.0,20238692.0,3300.0,2,L,20233336,20233828,494,955.4,533.1,4724,NA
15,1,continuous,2,1,fixationCross,20235392.0,20238692.0,3300.0,2,L,20234004,20234524,522,931.6,573.1,4813,NA
15,1,continuous,2,1,fixationCross,20235392.0,20238692.0,3300.0,2,L,20234714,20235194,482,975.6,530.1,4803,NA
15,1,continuous,2,1,trial,20235392.0,20238692.0,3300.0,2,L,20235340,20235570,232,880.4,640.3,4890,NA
15,1,continuous,2,1,trial,20235392.0,20238692.0,3300.0,2,L,20235610,20235964,356,563.2,555.1,4679,left
15,1,continuous,2,1,trial,20235392.0,20238692.0,3300.0,2,L,20236024,20236280,258,1002.5,1000.6,4165,likertHorizontal
15,1,continuous,2,1,trial,20235392.0,20238692.0,3300.0,2,L,20236336,20236668,334,1437.9,515.1,4190,right
15,1,continuous,2,1,trial,20235392.0,20238692.0,3300.0,2,L,20236728,20236930,204,1486.7,989.1,4590,NA
15,1,continuous,2,1,trial,20235392.0,20238692.0,3300.0,2,L,20236952,20237036,86,1441.5,1011.8,4718,NA
15,1,continuous,2,1,trial,20235392.0,20238692.0,3300.0,2,L,20237154,20237484,332,501.8,590.3,4880,left
15,1,continuous,2,1,trial,20235392.0,20238692.0,3300.0,2,L,20237544,20237682,140,420.6,974.4,4748,NA
15,1,continuous,2,1,trial,20235392.0,20238692.0,3300.0,2,L,20237704,20237936,234,472.4,990.1,4642,NA
15,1,continuous,2,1,trial,20235392.0,20238692.0,3300.0,2,L,20237986,20238462,478,549.2,571.8,4491,left
15,1,continuous,2,1,trial,20235392.0,20238692.0,3300.0,2,L,20238530,20238796,268,1437.6,470.2,4197,right
15,1,continuous,2,1,postResponse,20235392.0,20238692.0,3300.0,2,L,20238810,20239042,234,1404.3,499.1,4225,right
15,1,continuous,3,99,fixationCross,20249409.0,20253459.0,4050.0,3,L,20239188,20239330,144,750.8,388.2,4578,NA
15,1,continuous,3,99,fixationCross,20249409.0,20253459.0,4050.0,3,L,20239494,20239634,142,601.1,539.2,4912,left
15,1,continuous,3,99,fixationCross,20249409.0,20253459.0,4050.0,3,L,20239686,20239998,314,927.2,528.0,4989,NA
15,1,continuous,3,99,fixationCross,20249409.0,20253459.0,4050.0,3,L,20240152,20240236,86,984.2,486.3,4938,NA
15,1,continuous,3,99,fixationCross,20249409.0,20253459.0,4050.0,3,L,20240406,20240852,448,926.4,517.1,5033,NA
15,1,continuous,3,99,fixationCross,20249409.0,20253459.0,4050.0,3,L,20241014,20241480,468,942.0,532.2,4713,NA
15,1,continuous,3,99,fixationCross,20249409.0,20253459.0,4050.0,3,L,20241630,20241904,276,940.8,537.8,4654,NA
15,1,continuous,3,99,fixationCross,20249409.0,20253459.0,4050.0,3,L,20242086,20242648,564,950.6,531.8,4621,NA
15,1,continuous,3,99,fixationCross,20249409.0,20253459.0,4050.0,3,L,20242810,20242942,134,976.6,538.7,4451,NA
15,1,continuous,3,99,fixationCross,20249409.0,20253459.0,4050.0,3,L,20242962,20243382,422,949.3,533.4,4661,NA
15,1,continuous,3,99,fixationCross,20249409.0,20253459.0,4050.0,3,L,20243556,20244882,1328,956.0,535.4,4641,NA
15,1,continuous,3,99,fixationCross,20249409.0,20253459.0,4050.0,3,L,20245056,20246006,952,966.5,532.6,4825,NA
15,1,continuous,3,99,fixationCross,20249409.0,20253459.0,4050.0,3,L,20246018,20247086,1070,933.8,543.2,4668,NA
15,1,continuous,3,99,fixationCross,20249409.0,20253459.0,4050.0,3,L,20247104,20248022,920,952.1,533.7,4714,NA
15,1,continuous,3,99,fixationCross,20249409.0,20253459.0,4050.0,3,L,20248198,20249248,1052,953.8,516.4,4800,NA
15,1,continuous,3,99,trial,20249409.0,20253459.0,4050.0,3,L,20249436,20249622,188,960.8,581.1,4817,NA
15,1,continuous,3,99,trial,20249409.0,20253459.0,4050.0,3,L,20249678,20249868,192,478.6,484.8,4871,left
15,1,continuous,3,99,trial,20249409.0,20253459.0,4050.0,3,L,20249892,20250248,358,371.5,557.1,4337,left
15,1,continuous,3,99,trial,20249409.0,20253459.0,4050.0,3,L,20250268,20250460,194,394.5,583.4,4085,left
15,1,continuous,3,99,trial,20249409.0,20253459.0,4050.0,3,L,20250534,20250780,248,1470.3,497.7,3967,right
15,1,continuous,3,99,trial,20249409.0,20253459.0,4050.0,3,L,20250800,20250982,184,1567.6,483.2,3965,right
15,1,continuous,3,99,trial,20249409.0,20253459.0,4050.0,3,L,20251010,20251494,486,1557.7,670.5,4069,right
15,1,continuous,3,99,trial,20249409.0,20253459.0,4050.0,3,L,20251532,20251666,136,1469.7,473.9,4091,right
15,1,continuous,3,99,trial,20249409.0,20253459.0,4050.0,3,L,20251692,20252038,348,1341.0,449.4,4223,right
15,1,continuous,3,99,trial,20249409.0,20253459.0,4050.0,3,L,20252120,20252256,138,312.7,592.0,4347,left
15,1,continuous,3,99,trial,20249409.0,20253459.0,4050.0,3,L,20252280,20253050,772,395.7,569.3,4142,left
15,1,continuous,3,99,trial,20249409.0,20253459.0,4050.0,3,L,20253108,20253336,230,1038.5,853.3,4083,likertHorizontal
15,1,continuous,3,99,trial,20249409.0,20253459.0,4050.0,3,L,20253392,20253540,150,1420.0,939.4,4199,NA
15,1,continuous,3,99,trial,20249409.0,20253459.0,4050.0,3,L,20253610,20253688,80,1464.7,483.0,4284,right
15,1,continuous,4,1,fixationCross,20264127.0,20266943.0,2816.0,4,L,20253874,20253976,104,408.3,218.5,4374,NA
15,1,continuous,4,1,fixationCross,20264127.0,20266943.0,2816.0,4,L,20254022,20254304,284,134.6,-83.6,4383,NA
15,1,continuous,4,1,fixationCross,20264127.0,20266943.0,2816.0,4,L,20254324,20254436,114,71.4,-61.2,4186,NA
15,1,continuous,4,1,fixationCross,20264127.0,20266943.0,2816.0,4,L,20254790,20255262,474,960.0,531.0,4509,NA
15,1,continuous,4,1,fixationCross,20264127.0,20266943.0,2816.0,4,L,20255472,20256102,632,949.9,525.4,4671,NA
15,1,continuous,4,1,fixationCross,20264127.0,20266943.0,2816.0,4,L,20256292,20256720,430,974.6,557.6,4751,NA
15,1,continuous,4,1,fixationCross,20264127.0,20266943.0,2816.0,4,L,20256898,20257258,362,703.1,517.8,4865,left
15,1,continuous,4,1,fixationCross,20264127.0,20266943.0,2816.0,4,L,20257450,20257572,124,615.4,442.1,4899,left
15,1,continuous,4,1,fixationCross,20264127.0,20266943.0,2816.0,4,L,20257626,20257836,212,947.3,533.3,4992,NA
15,1,continuous,4,1,fixationCross,20264127.0,20266943.0,2816.0,4,L,20258226,20258364,140,918.2,523.0,5214,NA
15,1,continuous,4,1,fixationCross,20264127.0,20266943.0,2816.0,4,L,20258384,20258876,494,938.0,530.1,5191,NA
15,1,continuous,4,1,fixationCross,20264127.0,20266943.0,2816.0,4,L,20259048,20259158,112,776.3,500.8,4879,NA
15,1,continuous,4,1,fixationCross,20264127.0,20266943.0,2816.0,4,L,20259188,20260718,1532,943.0,540.6,4909,NA
15,1,continuous,4,1,fixationCross,20264127.0,20266943.0,2816.0,4,L,20260906,20261092,188,962.3,562.1,4819,NA
15,1,continuous,4,1,fixationCross,20264127.0,20266943.0,2816.0,4,L,20261112,20261672,562,938.0,545.1,4906,NA
15,1,continuous,4,1,fixationCross,20264127.0,20266943.0,2816.0,4,L,20261850,20263490,1642,952.2,529.9,4802,NA
15,1,continuous,4,1,trial,20264127.0,20266943.0,2816.0,4,L,20263692,20264128,438,905.9,663.7,5107,NA
15,1,continuous,4,1,trial,20264127.0,20266943.0,2816.0,4,L,20264182,20264460,280,421.2,488.5,4955,left
15,1,continuous,4,1,trial,20264127.0,20266943.0,2816.0,4,L,20264478,20264648,172,495.9,493.6,4581,left
15,1,continuous,4,1,trial,20264127.0,20266943.0,2816.0,4,L,20264714,20265114,402,1392.7,546.0,4231,right
15,1,continuous,4,1,trial,20264127.0,20266943.0,2816.0,4,L,20265152,20265296,146,1463.5,473.8,4257,right
15,1,continuous,4,1,trial,20264127.0,20266943.0,2816.0,4,L,20265374,20265740,368,379.3,526.4,4298,left
15,1,continuous,4,1,trial,20264127.0,20266943.0,2816.0,4,L,20265750,20265914,166,384.3,549.3,4154,left
15,1,continuous,4,1,trial,20264127.0,20266943.0,2816.0,4,L,20265954,20267236,1284,565.9,452.4,4179,left
15,1,continuous,5,1,fixationCross,20277677.0,20280010.0,2333.0,5,L,20267400,20267450,52,210.8,383.8,4425,NA
15,1,continuous,5,1,fixationCross,20277677.0,20280010.0,2333.0,5,L,20267638,20267754,118,38.3,305.5,4473,NA
15,1,continuous,5,1,fixationCross,20277677.0,20280010.0,2333.0,5,L,20267934,20268324,392,862.3,1155.9,4746,likertHorizontal
15,1,continuous,5,1,fixationCross,20277677.0,20280010.0,2333.0,5,L,20268490,20268678,190,587.2,451.3,4891,left
15,1,continuous,5,1,fixationCross,20277677.0,20280010.0,2333.0,5,L,20268726,20268866,142,882.0,515.9,4894,NA
15,1,continuous,5,1,fixationCross,20277677.0,20280010.0,2333.0,5,L,20268892,20269396,506,944.2,532.6,4746,NA
15,1,continuous,5,1,fixationCross,20277677.0,20280010.0,2333.0,5,L,20269590,20270406,818,925.2,527.9,4945,NA
15,1,continuous,5,1,fixationCross,20277677.0,20280010.0,2333.0,5,L,20270590,20270924,336,955.6,533.8,4971,NA
15,1,continuous,5,1,fixationCross,20277677.0,20280010.0,2333.0,5,L,20271936,20272050,116,775.4,459.0,4744,NA
15,1,continuous,5,1,fixationCross,20277677.0,20280010.0,2333.0,5,L,20272090,20272662,574,934.9,526.9,4953,NA
15,1,continuous,5,1,fixationCross,20277677.0,20280010.0,2333.0,5,L,20272824,20273254,432,897.7,610.2,5094,NA
15,1,continuous,5,1,fixationCross,20277677.0,20280010.0,2333.0,5,L,20273424,20273528,106,839.1,526.3,5155,NA
15,1,continuous,5,1,fixationCross,20277677.0,20280010.0,2333.0,5,L,20273554,20273996,444,927.1,535.7,5213,NA
15,1,continuous,5,1,fixationCross,20277677.0,20280010.0,2333.0,5,L,20274176,20274292,118,871.8,495.2,5096,NA
15,1,continuous,5,1,fixationCross,20277677.0,20280010.0,2333.0,5,L,20274322,20274850,530,933.2,535.8,5190,NA
15,1,continuous,5,1,fixationCross,20277677.0,20280010.0,2333.0,5,L,20275038,20275212,176,889.7,523.4,4968,NA
15,1,continuous,5,1,fixationCross,20277677.0,20280010.0,2333.0,5,L,20275236,20276622,1388,931.0,537.1,5018,NA
15,1,continuous,5,1,fixationCross,20277677.0,20280010.0,2333.0,5,L,20276804,20276922,120,814.5,564.2,4965,NA
15,1,continuous,5,1,trial,20277677.0,20280010.0,2333.0,5,L,20276946,20277852,908,934.8,537.9,4956,NA
15,1,continuous,5,1,trial,20277677.0,20280010.0,2333.0,5,L,20277900,20278158,260,505.8,481.9,4753,left
15,1,continuous,5,1,trial,20277677.0,20280010.0,2333.0,5,L,20278180,20278424,246,387.7,542.6,4358,left
15,1,continuous,5,1,trial,20277677.0,20280010.0,2333.0,5,L,20278494,20278792,300,1355.7,495.6,4025,right
15,1,continuous,5,1,trial,20277677.0,20280010.0,2333.0,5,L,20278832,20279084,254,1629.9,536.5,4077,right
15,1,continuous,5,1,trial,20277677.0,20280010.0,2333.0,5,L,20279118,20279378,262,1304.4,410.8,4096,right
15,1,continuous,5,1,trial,20277677.0,20280010.0,2333.0,5,L,20279446,20279762,318,376.9,542.6,4028,left
15,1,continuous,5,1,trial,20277677.0,20280010.0,2333.0,5,L,20279782,20280088,308,470.1,541.9,3927,left
15,1,continuous,5,1,trial,20277677.0,20280010.0,2333.0,5,L,20280106,20280310,206,538.5,502.5,3879,left
15,1,continuous,6,100,fixationCross,20280710.0,20284226.0,3516.0,6,L,20280450,20280522,74,22.9,279.3,3925,NA
15,1,continuous,6,100,trial,20280710.0,20284226.0,3516.0,6,L,20280566,20280798,234,124.4,-93.4,3943,NA
15,1,continuous,6,100,trial,20280710.0,20284226.0,3516.0,6,L,20281146,20281436,292,1448.3,518.6,4142,right
15,1,continuous,6,100,trial,20280710.0,20284226.0,3516.0,6,L,20281460,20281570,112,1357.1,525.9,4397,right
15,1,continuous,6,100,trial,20280710.0,20284226.0,3516.0,6,L,20281642,20281898,258,433.6,526.6,4495,left
15,1,continuous,6,100,trial,20280710.0,20284226.0,3516.0,6,L,20281966,20282048,84,1033.9,514.4,4265,NA
15,1,continuous,6,100,trial,20280710.0,20284226.0,3516.0,6,L,20282104,20282286,184,1454.6,507.2,4057,right
15,1,continuous,6,100,trial,20280710.0,20284226.0,3516.0,6,L,20282352,20282626,276,430.8,554.9,4426,left
15,1,continuous,6,100,trial,20280710.0,20284226.0,3516.0,6,L,20282646,20282928,284,500.1,536.0,4269,left
15,1,continuous,6,100,trial,20280710.0,20284226.0,3516.0,6,L,20283000,20283326,328,1513.7,494.4,3834,right
15,1,continuous,6,100,trial,20280710.0,20284226.0,3516.0,6,L,20283348,20283526,180,1426.3,527.1,4033,right
15,1,continuous,6,100,trial,20280710.0,20284226.0,3516.0,6,L,20283550,20284410,862,1374.0,561.1,4591,right
15,1,continuous,7,100,fixationCross,20284910.0,20286793.0,1883.0,7,L,20284646,20284772,128,159.4,305.5,4790,NA
15,1,continuous,7,100,trial,20284910.0,20286793.0,1883.0,7,L,20284950,20285066,118,89.8,-3.2,4625,NA
15,1,continuous,7,100,trial,20284910.0,20286793.0,1883.0,7,L,20285130,20285296,168,486.3,526.2,4428,left
15,1,continuous,7,100,trial,20284910.0,20286793.0,1883.0,7,L,20285318,20285552,236,411.1,539.8,4224,left
15,1,continuous,7,100,trial,20284910.0,20286793.0,1883.0,7,L,20285622,20286004,384,1484.3,520.5,4082,right
15,1,continuous,7,100,trial,20284910.0,20286793.0,1883.0,7,L,20286024,20286280,258,1453.4,580.8,4139,right
15,1,continuous,7,100,trial,20284910.0,20286793.0,1883.0,7,L,20286304,20286762,460,1357.4,644.7,4174,right
15,1,continuous,7,100,trial,20284910.0,20286793.0,1883.0,7,L,20286838,20287028,192,412.1,510.7,4238,left
15,1,continuous,8,1,fixationCross,20287476.0,20288643.0,1167.0,8,L,20287206,20287344,140,214.1,150.0,4165,NA
15,1,continuous,8,1,trial,20287476.0,20288643.0,1167.0,8,L,20287378,20287624,248,137.6,-88.2,4216,NA
15,1,continuous,8,1,trial,20287476.0,20288643.0,1167.0,8,L,20287692,20287954,264,624.0,576.6,4159,left
15,1,continuous,8,1,trial,20287476.0,20288643.0,1167.0,8,L,20287994,20288170,178,377.3,524.3,4111,left
15,1,continuous,8,1,trial,20287476.0,20288643.0,1167.0,8,L,20288240,20288500,262,1407.6,500.2,3964,right
15,1,continuous,8,1,trial,20287476.0,20288643.0,1167.0,8,L,20288520,20288872,354,1379.5,530.6,4132,right
15,1,continuous,9,3,trial,20289343.0,20290376.0,1033.0,9,L,20289058,20289422,366,1050.5,296.0,4418,NA
15,1,continuous,9,3,trial,20289343.0,20290376.0,1033.0,9,L,20289470,20289668,200,671.3,551.3,4606,left
15,1,continuous,9,3,trial,20289343.0,20290376.0,1033.0,9,L,20289708,20289968,262,446.9,511.6,4398,left
15,1,continuous,9,3,trial,20289343.0,20290376.0,1033.0,9,L,20290034,20290470,438,1383.8,540.0,4163,right
15,1,continuous,9,3,trial,20289343.0,20290376.0,1033.0,9,L,20290494,20290642,150,1480.2,532.7,4306,right
15,1,continuous,10,1,trial,20291077.0,20292943.0,1866.0,10,L,20290812,20291214,404,896.7,409.4,4677,NA
15,1,continuous,10,1,trial,20291077.0,20292943.0,1866.0,10,L,20291258,20291588,332,498.3,484.9,4663,left
15,1,continuous,10,1,trial,20291077.0,20292943.0,1866.0,10,L,20291652,20291900,250,1391.0,495.3,4214,right
15,1,continuous,10,1,trial,20291077.0,20292943.0,1866.0,10,L,20291926,20292110,186,1256.9,488.5,4215,right
15,1,continuous,10,1,trial,20291077.0,20292943.0,1866.0,10,L,20292136,20292358,224,1455.7,520.8,4256,right
15,1,continuous,10,1,trial,20291077.0,20292943.0,1866.0,10,L,20292396,20292560,166,1663.8,546.0,4144,right
15,1,continuous,10,1,trial,20291077.0,20292943.0,1866.0,10,L,20292632,20292764,134,517.1,544.8,4119,left
15,1,continuous,10,1,trial,20291077.0,20292943.0,1866.0,10,L,20292786,20293164,380,481.1,481.8,4085,left
15,1,continuous,11,100,trial,20293610.0,20297560.0,3950.0,11,L,20293366,20293740,376,404.4,317.4,4393,NA
15,1,continuous,11,100,trial,20293610.0,20297560.0,3950.0,11,L,20293796,20293886,92,895.0,454.9,4556,NA
15,1,continuous,11,100,trial,20293610.0,20297560.0,3950.0,11,L,20293928,20294184,258,472.3,528.5,4464,left
15,1,continuous,11,100,trial,20293610.0,20297560.0,3950.0,11,L,20294252,20294400,150,1422.3,528.4,4370,right
15,1,continuous,11,100,trial,20293610.0,20297560.0,3950.0,11,L,20294430,20294774,346,1471.4,557.9,4177,right
15,1,continuous,11,100,trial,20293610.0,20297560.0,3950.0,11,L,20294850,20295240,392,487.7,553.1,4198,left
15,1,continuous,11,100,trial,20293610.0,20297560.0,3950.0,11,L,20295266,20295534,270,467.4,451.1,4088,left
15,1,continuous,11,100,trial,20293610.0,20297560.0,3950.0,11,L,20295608,20295810,204,1509.9,569.5,3993,right
15,1,continuous,11,100,trial,20293610.0,20297560.0,3950.0,11,L,20295832,20296188,358,1476.0,558.9,3957,right
15,1,continuous,11,100,trial,20293610.0,20297560.0,3950.0,11,L,20296284,20296470,188,366.3,552.9,4034,left
15,1,continuous,11,100,trial,20293610.0,20297560.0,3950.0,11,L,20296494,20296794,302,487.5,550.4,4044,left
15,1,continuous,11,100,trial,20293610.0,20297560.0,3950.0,11,L,20296812,20297286,476,568.2,544.5,4029,left
15,1,continuous,11,100,trial,20293610.0,20297560.0,3950.0,11,L,20297310,20297742,434,477.3,439.5,4003,left
15,1,continuous,12,100,fixationCross,20298260.0,20301209.0,2949.0,12,L,20297994,20298188,196,403.3,372.8,4086,left
15,1,continuous,12,100,trial,20298260.0,20301209.0,2949.0,12,L,20298338,20298438,102,1380.5,1244.8,4386,NA
15,1,continuous,12,100,trial,20298260.0,20301209.0,2949.0,12,L,20298516,20298804,290,464.0,548.8,4359,left
15,1,continuous,12,100,trial,20298260.0,20301209.0,2949.0,12,L,20298834,20298984,152,435.5,486.5,4113,left
15,1,continuous,12,100,trial,20298260.0,20301209.0,2949.0,12,L,20299056,20299336,282,1576.4,530.6,3937,right
15,1,continuous,12,100,trial,20298260.0,20301209.0,2949.0,12,L,20299358,20299568,212,1654.8,456.9,4034,right
15,1,continuous,12,100,trial,20298260.0,20301209.0,2949.0,12,L,20299594,20299778,186,1415.2,407.6,4130,right
15,1,continuous,12,100,trial,20298260.0,20301209.0,2949.0,12,L,20299826,20300124,300,1309.3,617.8,4221,right
15,1,continuous,12,100,trial,20298260.0,20301209.0,2949.0,12,L,20300188,20300374,188,458.9,462.3,4197,left
15,1,continuous,12,100,trial,20298260.0,20301209.0,2949.0,12,L,20300392,20300638,248,471.4,508.6,4077,left
15,1,continuous,12,100,trial,20298260.0,20301209.0,2949.0,12,L,20300656,20301032,378,502.7,474.0,4161,left
15,1,continuous,12,100,trial,20298260.0,20301209.0,2949.0,12,L,20301052,20301398,348,423.6,495.1,4357,left
15,1,continuous,13,100,fixationCross,20301927.0,20303660.0,1733.0,13,L,20301642,20301724,84,441.3,411.7,4348,left
15,1,continuous,13,100,trial,20301927.0,20303660.0,1733.0,13,L,20301904,20302076,174,1209.0,928.7,4491,NA
15,1,continuous,13,100,trial,20301927.0,20303660.0,1733.0,13,L,20302142,20302294,154,535.0,449.3,4523,left
15,1,continuous,13,100,trial,20301927.0,20303660.0,1733.0,13,L,20302318,20302726,410,615.5,373.6,4299,left
15,1,continuous,13,100,trial,20301927.0,20303660.0,1733.0,13,L,20302738,20302932,196,643.2,383.4,4325,left
15,1,continuous,13,100,trial,20301927.0,20303660.0,1733.0,13,L,20303006,20303272,268,1484.2,521.1,4391,right
15,1,continuous,13,100,trial,20301927.0,20303660.0,1733.0,13,L,20303346,20303646,302,579.8,466.6,4309,left
15,1,continuous,13,100,trial,20301927.0,20303660.0,1733.0,13,L,20303666,20303888,224,628.4,393.4,4140,left
15,1,continuous,14,93,fixationCross,20304343.0,20305927.0,1584.0,14,L,20304072,20304230,160,170.4,117.7,4481,NA
15,1,continuous,14,93,trial,20304343.0,20305927.0,1584.0,14,L,20304260,20304454,196,109.8,-67.8,4448,NA
15,1,continuous,14,93,trial,20304343.0,20305927.0,1584.0,14,L,20304520,20304752,234,656.3,514.5,4300,left
15,1,continuous,14,93,trial,20304343.0,20305927.0,1584.0,14,L,20304790,20304956,168,428.0,510.4,4289,left
15,1,continuous,14,93,trial,20304343.0,20305927.0,1584.0,14,L,20305024,20305306,284,1404.1,502.8,4255,right
15,1,continuous,14,93,trial,20304343.0,20305927.0,1584.0,14,L,20305372,20305688,318,463.7,502.2,4552,left
15,1,continuous,14,93,trial,20304343.0,20305927.0,1584.0,14,L,20305714,20306154,442,575.6,573.2,4396,left
15,1,continuous,15,100,trial,20306644.0,20310660.0,4016.0,15,L,20306362,20306724,364,1388.9,875.3,4460,NA
15,1,continuous,15,100,trial,20306644.0,20310660.0,4016.0,15,L,20306784,20306904,122,803.6,636.1,4936,NA
15,1,continuous,15,100,trial,20306644.0,20310660.0,4016.0,15,L,20306934,20307124,192,583.2,469.0,4653,left
15,1,continuous,15,100,trial,20306644.0,20310660.0,4016.0,15,L,20307148,20307544,398,647.1,474.3,4288,left
15,1,continuous,15,100,trial,20306644.0,20310660.0,4016.0,15,L,20307614,20307868,256,1579.0,468.8,4083,right
15,1,continuous,15,100,trial,20306644.0,20310660.0,4016.0,15,L,20307898,20308184,288,1502.8,508.2,4121,right
15,1,continuous,15,100,trial,20306644.0,20310660.0,4016.0,15,L,20308344,20308618,276,1570.1,477.7,4081,right
15,1,continuous,15,100,trial,20306644.0,20310660.0,4016.0,15,L,20308638,20309032,396,1542.0,505.5,4136,right
15,1,continuous,15,100,trial,20306644.0,20310660.0,4016.0,15,L,20309052,20309140,90,1626.0,496.4,3980,right
15,1,continuous,15,100,trial,20306644.0,20310660.0,4016.0,15,L,20309218,20309348,132,524.3,495.3,4045,left
15,1,continuous,15,100,trial,20306644.0,20310660.0,4016.0,15,L,20309372,20309866,496,639.7,464.3,3985,left
15,1,continuous,15,100,trial,20306644.0,20310660.0,4016.0,15,L,20309936,20310092,158,1548.6,578.4,3957,right
15,1,continuous,15,100,trial,20306644.0,20310660.0,4016.0,15,L,20310120,20310534,416,1307.2,597.6,4083,right
15,1,continuous,15,100,trial,20306644.0,20310660.0,4016.0,15,L,20310586,20310866,282,1571.2,451.4,3972,right
15,1,continuous,16,1,trial,20311327.0,20313043.0,1716.0,16,L,20311068,20311494,428,808.5,400.2,4212,NA
15,1,continuous,16,1,trial,20311327.0,20313043.0,1716.0,16,L,20311540,20311790,252,514.2,526.8,4423,left
15,1,continuous,16,1,trial,20311327.0,20313043.0,1716.0,16,L,20311814,20312006,194,525.3,434.9,4278,left
15,1,continuous,16,1,trial,20311327.0,20313043.0,1716.0,16,L,20312070,20312266,198,1409.0,439.4,4120,right
15,1,continuous,16,1,trial,20311327.0,20313043.0,1716.0,16,L,20312288,20312532,246,1366.1,428.0,4032,right
15,1,continuous,16,1,trial,20311327.0,20313043.0,1716.0,16,L,20312594,20313020,428,512.7,487.9,4128,left
15,1,continuous,16,1,trial,20311327.0,20313043.0,1716.0,16,L,20313042,20313264,224,521.9,420.2,4119,left
15,1,continuous,17,21,fixationCross,20313726.0,20315093.0,1367.0,17,L,20313452,20313532,82,497.9,447.0,4208,left
15,1,continuous,17,21,trial,20313726.0,20315093.0,1367.0,17,L,20313712,20313890,180,626.3,775.4,4572,NA
15,1,continuous,17,21,trial,20313726.0,20315093.0,1367.0,17,L,20313946,20314204,260,443.0,512.4,4554,left
15,1,continuous,17,21,trial,20313726.0,20315093.0,1367.0,17,L,20314274,20314624,352,1475.6,498.7,4028,right
15,1,continuous,17,21,trial,20313726.0,20315093.0,1367.0,17,L,20314650,20314886,238,1658.5,513.0,3958,right
15,1,continuous,17,21,postResponse,20313726.0,20315093.0,1367.0,17,L,20314966,20315426,462,488.0,533.8,4305,left
15,1,continuous,18,100,trial,20315810.0,20318161.0,2351.0,18,L,20315684,20315968,286,691.8,720.8,4729,left
15,1,continuous,18,100,trial,20315810.0,20318161.0,2351.0,18,L,20316000,20316152,154,516.0,491.9,4832,left
15,1,continuous,18,100,trial,20315810.0,20318161.0,2351.0,18,L,20316178,20316516,340,610.4,407.0,4372,left
15,1,continuous,18,100,trial,20315810.0,20318161.0,2351.0,18,L,20316544,20316830,288,425.3,558.9,4349,left
15,1,continuous,18,100,trial,20315810.0,20318161.0,2351.0,18,L,20316902,20317114,214,1462.5,535.4,4202,right
15,1,continuous,18,100,trial,20315810.0,20318161.0,2351.0,18,L,20317140,20317468,330,1375.4,620.7,4095,right
15,1,continuous,18,100,trial,20315810.0,20318161.0,2351.0,18,L,20317494,20317670,178,1536.5,588.9,4095,right
15,1,continuous,18,100,trial,20315810.0,20318161.0,2351.0,18,L,20317734,20318078,346,552.4,465.1,4079,left
15,1,continuous,18,100,trial,20315810.0,20318161.0,2351.0,18,L,20318098,20318342,246,614.9,408.8,4031,left
15,1,continuous,19,99,trial,20318860.0,20320643.0,1783.0,19,L,20318578,20319044,468,482.5,380.3,4362,left
15,1,continuous,19,99,trial,20318860.0,20320643.0,1783.0,19,L,20319066,20319390,326,494.2,465.6,4274,left
15,1,continuous,19,99,trial,20318860.0,20320643.0,1783.0,19,L,20319414,20319630,218,568.8,509.2,4114,left
15,1,continuous,19,99,trial,20318860.0,20320643.0,1783.0,19,L,20319652,20319826,176,610.7,522.2,4080,left
15,1,continuous,19,99,trial,20318860.0,20320643.0,1783.0,19,L,20319894,20320150,258,1525.3,471.1,4009,right
15,1,continuous,19,99,trial,20318860.0,20320643.0,1783.0,19,L,20320174,20320666,494,1590.3,427.7,3994,right
15,1,continuous,19,99,trial,20318860.0,20320643.0,1783.0,19,L,20320752,20320890,140,434.9,472.1,4276,left
15,1,continuous,20,1,trial,20321360.0,20323760.0,2400.0,20,L,20321078,20321406,330,1294.6,869.4,4526,NA
15,1,continuous,20,1,trial,20321360.0,20323760.0,2400.0,20,L,20321466,20321580,116,817.4,490.4,4785,NA
15,1,continuous,20,1,trial,20321360.0,20323760.0,2400.0,20,L,20321610,20321856,248,588.1,446.9,4561,left
15,1,continuous,20,1,trial,20321360.0,20323760.0,2400.0,20,L,20321884,20322064,182,375.0,543.8,4290,left
15,1,continuous,20,1,trial,20321360.0,20323760.0,2400.0,20,L,20322084,20322452,370,396.6,567.3,4271,left
15,1,continuous,20,1,trial,20321360.0,20323760.0,2400.0,20,L,20322492,20322692,202,559.2,451.5,4223,left
15,1,continuous,20,1,trial,20321360.0,20323760.0,2400.0,20,L,20322766,20323004,240,1421.8,497.3,4204,right
15,1,continuous,20,1,trial,20321360.0,20323760.0,2400.0,20,L,20323034,20323242,210,1362.0,513.9,4331,right
15,1,continuous,20,1,trial,20321360.0,20323760.0,2400.0,20,L,20323318,20323488,172,399.3,513.6,4451,left
15,1,continuous,20,1,trial,20321360.0,20323760.0,2400.0,20,L,20323512,20323764,254,378.9,565.3,4309,left
15,1,continuous,20,1,trial,20321360.0,20323760.0,2400.0,20,L,20323806,20323976,172,581.8,430.3,4299,left
15,1,continuous,21,1,trial,20324444.0,20325860.0,1416.0,21,L,20324170,20324634,466,649.5,482.0,4450,left
15,1,continuous,21,1,trial,20324444.0,20325860.0,1416.0,21,L,20324662,20324906,246,465.0,542.4,4416,left
15,1,continuous,21,1,trial,20324444.0,20325860.0,1416.0,21,L,20324976,20325270,296,1447.0,488.1,3969,right
15,1,continuous,21,1,trial,20324444.0,20325860.0,1416.0,21,L,20325296,20325566,272,1565.0,548.4,4018,right
15,1,continuous,21,1,trial,20324444.0,20325860.0,1416.0,21,L,20325592,20326070,480,1431.9,421.3,4132,right
15,1,continuous,22,100,trial,20326560.0,20329127.0,2567.0,22,L,20326274,20326596,324,1438.4,476.7,4180,right
15,1,continuous,22,100,trial,20326560.0,20329127.0,2567.0,22,L,20326650,20326768,120,960.2,523.4,4506,NA
15,1,continuous,22,100,trial,20326560.0,20329127.0,2567.0,22,L,20326808,20327020,214,588.5,506.4,4376,left
15,1,continuous,22,100,trial,20326560.0,20329127.0,2567.0,22,L,20327036,20327422,388,580.6,539.9,4132,left
15,1,continuous,22,100,trial,20326560.0,20329127.0,2567.0,22,L,20327462,20327752,292,440.6,451.2,3982,left
15,1,continuous,22,100,trial,20326560.0,20329127.0,2567.0,22,L,20327822,20328020,200,1418.8,504.4,3922,right
15,1,continuous,22,100,trial,20326560.0,20329127.0,2567.0,22,L,20328040,20328320,282,1401.8,458.9,3962,right
15,1,continuous,22,100,trial,20326560.0,20329127.0,2567.0,22,L,20328342,20328512,172,1402.9,504.5,4128,right
15,1,continuous,22,100,trial,20326560.0,20329127.0,2567.0,22,L,20328576,20328756,182,640.3,582.1,4180,left
15,1,continuous,22,100,trial,20326560.0,20329127.0,2567.0,22,L,20328780,20329044,266,587.3,559.9,4065,left
15,1,continuous,22,100,trial,20326560.0,20329127.0,2567.0,22,L,20329064,20329340,278,508.0,536.8,4035,left
15,1,continuous,23,1,trial,20329827.0,20331044.0,1217.0,23,L,20329548,20329878,332,531.6,550.5,4377,left
15,1,continuous,23,1,trial,20329827.0,20331044.0,1217.0,23,L,20329932,20330052,122,950.9,523.2,4370,NA
15,1,continuous,23,1,trial,20329827.0,20331044.0,1217.0,23,L,20330104,20330286,184,507.2,482.6,4187,left
15,1,continuous,23,1,trial,20329827.0,20331044.0,1217.0,23,L,20330312,20330520,210,430.1,645.7,4113,left
15,1,continuous,23,1,trial,20329827.0,20331044.0,1217.0,23,L,20330596,20330834,240,1520.2,502.5,3959,right
15,1,continuous,23,1,trial,20329827.0,20331044.0,1217.0,23,L,20330860,20331254,396,1425.2,399.2,4056,right
15,1,continuous,24,100,trial,20331727.0,20335793.0,4066.0,24,L,20331456,20331924,470,1245.3,376.7,4462,right
15,1,continuous,24,100,trial,20331727.0,20335793.0,4066.0,24,L,20331984,20332176,194,477.0,544.2,4427,left
15,1,continuous,24,100,trial,20331727.0,20335793.0,4066.0,24,L,20332202,20332656,456,590.6,570.0,4223,left
15,1,continuous,24,100,trial,20331727.0,20335793.0,4066.0,24,L,20332726,20333018,294,1483.9,473.0,4028,right
15,1,continuous,24,100,trial,20331727.0,20335793.0,4066.0,24,L,20333042,20333308,268,1347.3,486.6,4119,right
15,1,continuous,24,100,trial,20331727.0,20335793.0,4066.0,24,L,20333368,20333642,276,572.5,563.1,4192,left
15,1,continuous,24,100,trial,20331727.0,20335793.0,4066.0,24,L,20333662,20333882,222,623.9,562.5,4068,left
15,1,continuous,24,100,trial,20331727.0,20335793.0,4066.0,24,L,20333952,20334246,296,1522.0,495.4,3939,right
15,1,continuous,24,100,trial,20331727.0,20335793.0,4066.0,24,L,20334274,20334590,318,1335.2,486.5,4088,right
15,1,continuous,24,100,trial,20331727.0,20335793.0,4066.0,24,L,20334628,20334976,350,1515.7,522.0,4145,right
15,1,continuous,24,100,trial,20331727.0,20335793.0,4066.0,24,L,20335046,20335562,518,542.3,539.1,4186,left
15,1,continuous,24,100,trial,20331727.0,20335793.0,4066.0,24,L,20335582,20335732,152,608.9,564.0,4104,left
15,1,continuous,24,100,trial,20331727.0,20335793.0,4066.0,24,L,20335894,20336098,206,578.9,514.6,4120,left
15,1,continuous,25,1,trial,20336493.0,20339077.0,2584.0,25,L,20336258,20336564,308,376.8,379.1,4345,left
15,1,continuous,25,1,trial,20336493.0,20339077.0,2584.0,25,L,20336618,20336740,124,814.5,463.3,4270,NA
15,1,continuous,25,1,trial,20336493.0,20339077.0,2584.0,25,L,20336776,20336964,190,489.1,498.8,4141,left
15,1,continuous,25,1,trial,20336493.0,20339077.0,2584.0,25,L,20336974,20337128,156,462.3,504.5,4137,left
15,1,continuous,25,1,trial,20336493.0,20339077.0,2584.0,25,L,20337152,20337322,172,589.6,526.4,4147,left
15,1,continuous,25,1,trial,20336493.0,20339077.0,2584.0,25,L,20337390,20337680,292,1527.4,543.7,4091,right
15,1,continuous,25,1,trial,20336493.0,20339077.0,2584.0,25,L,20337704,20337888,186,1459.8,563.6,4181,right
15,1,continuous,25,1,trial,20336493.0,20339077.0,2584.0,25,L,20337928,20338106,180,1317.1,415.6,4185,right
15,1,continuous,25,1,trial,20336493.0,20339077.0,2584.0,25,L,20338164,20338364,202,522.0,517.9,4189,left
15,1,continuous,25,1,trial,20336493.0,20339077.0,2584.0,25,L,20338384,20338660,278,454.3,503.7,4123,left
15,1,continuous,25,1,trial,20336493.0,20339077.0,2584.0,25,L,20338682,20338824,144,529.0,489.3,4093,left
15,1,continuous,25,1,trial,20336493.0,20339077.0,2584.0,25,L,20338848,20339274,428,577.5,518.4,4211,left
15,1,continuous,26,10,trial,20362194.0,20364077.0,1883.0,26,L,20361963,20362237,276,394.1,3.4,3798,NA
15,1,continuous,26,10,trial,20362194.0,20364077.0,1883.0,26,L,20362299,20362419,122,876.3,406.0,4034,NA
15,1,continuous,26,10,trial,20362194.0,20364077.0,1883.0,26,L,20362459,20362801,344,506.1,438.0,4081,left
15,1,continuous,26,10,trial,20362194.0,20364077.0,1883.0,26,L,20362845,20362927,84,708.4,487.6,4089,left
15,1,continuous,26,10,trial,20362194.0,20364077.0,1883.0,26,L,20362993,20363353,362,1390.4,486.4,3982,right
15,1,continuous,26,10,trial,20362194.0,20364077.0,1883.0,26,L,20363421,20363581,162,550.9,490.4,4112,left
15,1,continuous,26,10,trial,20362194.0,20364077.0,1883.0,26,L,20363605,20363821,218,656.1,537.4,3987,left
15,1,continuous,26,10,trial,20362194.0,20364077.0,1883.0,26,L,20363833,20364055,224,639.3,554.6,3976,left
15,1,continuous,26,10,trial,20362194.0,20364077.0,1883.0,26,L,20364117,20364301,186,1430.0,493.4,3938,right
15,1,continuous,27,100,fixationCross,20364794.0,20366594.0,1800.0,27,L,20364513,20364539,28,895.7,558.9,4096,NA
15,1,continuous,27,100,trial,20364794.0,20366594.0,1800.0,27,L,20364713,20364957,246,828.7,623.4,4580,NA
15,1,continuous,27,100,trial,20364794.0,20366594.0,1800.0,27,L,20365003,20365345,344,508.8,562.9,4592,left
15,1,continuous,27,100,trial,20364794.0,20366594.0,1800.0,27,L,20365407,20365567,162,1369.6,526.5,4047,right
15,1,continuous,27,100,trial,20364794.0,20366594.0,1800.0,27,L,20365593,20365869,278,1523.6,524.8,3946,right
15,1,continuous,27,100,trial,20364794.0,20366594.0,1800.0,27,L,20365909,20366293,386,1589.4,393.9,4014,right
15,1,continuous,27,100,trial,20364794.0,20366594.0,1800.0,27,L,20366323,20366601,280,1344.5,502.1,4157,right
15,1,continuous,27,100,trial,20364794.0,20366594.0,1800.0,27,L,20366667,20366849,184,561.3,487.1,4305,left
15,1,continuous,28,1,trial,20367278.0,20368961.0,1683.0,28,L,20367025,20367409,386,360.5,354.9,4429,left
15,1,continuous,28,1,trial,20367278.0,20368961.0,1683.0,28,L,20367465,20367587,124,844.2,452.5,4452,NA
15,1,continuous,28,1,trial,20367278.0,20368961.0,1683.0,28,L,20367627,20367847,222,546.4,533.8,4259,left
15,1,continuous,28,1,trial,20367278.0,20368961.0,1683.0,28,L,20367879,20367955,78,568.9,604.3,4257,left
15,1,continuous,28,1,trial,20367278.0,20368961.0,1683.0,28,L,20368019,20368371,354,1484.7,532.4,4180,right
15,1,continuous,28,1,trial,20367278.0,20368961.0,1683.0,28,L,20368393,20368719,328,1397.8,581.2,4048,right
15,1,continuous,28,1,trial,20367278.0,20368961.0,1683.0,28,L,20368775,20368883,110,708.7,780.1,4112,NA
15,1,continuous,28,1,trial,20367278.0,20368961.0,1683.0,28,L,20368915,20369151,238,520.3,538.5,4139,left
15,1,continuous,29,100,trial,20369644.0,20370860.0,1216.0,29,L,20369371,20369693,324,507.3,437.8,4404,left
15,1,continuous,29,100,trial,20369644.0,20370860.0,1216.0,29,L,20369749,20369893,146,962.9,548.6,4471,NA
15,1,continuous,29,100,trial,20369644.0,20370860.0,1216.0,29,L,20369945,20370137,194,489.9,502.7,4274,left
15,1,continuous,29,100,trial,20369644.0,20370860.0,1216.0,29,L,20370205,20371043,840,1429.3,519.6,4061,right
15,1,continuous,30,100,trial,20371544.0,20373227.0,1683.0,30,L,20371273,20371617,346,1172.3,421.9,4364,NA
15,1,continuous,30,100,trial,20371544.0,20373227.0,1683.0,30,L,20371655,20371781,128,879.8,525.8,4686,NA
15,1,continuous,30,100,trial,20371544.0,20373227.0,1683.0,30,L,20371821,20372091,272,569.3,534.8,4496,left
15,1,continuous,30,100,trial,20371544.0,20373227.0,1683.0,30,L,20372119,20372227,110,382.6,428.3,4273,left
15,1,continuous,30,100,trial,20371544.0,20373227.0,1683.0,30,L,20372305,20372559,256,1459.1,528.8,4089,right
15,1,continuous,30,100,trial,20371544.0,20373227.0,1683.0,30,L,20372591,20372743,154,1347.0,489.5,4058,right
15,1,continuous,30,100,trial,20371544.0,20373227.0,1683.0,30,L,20372807,20373179,374,421.0,462.3,4062,left
15,1,continuous,30,100,trial,20371544.0,20373227.0,1683.0,30,L,20373203,20373411,210,593.2,504.3,4152,left
15,1,continuous,31,1,trial,20373944.0,20374811.0,867.0,31,L,20373663,20374183,522,596.9,465.3,4412,left
15,1,continuous,31,1,trial,20373944.0,20374811.0,867.0,31,L,20374211,20374383,174,440.3,618.7,4395,left
15,1,continuous,31,1,trial,20373944.0,20374811.0,867.0,31,L,20374451,20374819,370,1405.8,510.5,4052,right
15,1,continuous,31,1,trial,20373944.0,20374811.0,867.0,31,L,20374845,20375027,184,1357.1,471.8,4151,right
15,1,continuous,32,1,trial,20375494.0,20377695.0,2201.0,32,L,20375227,20375621,396,1092.4,416.8,4584,NA
15,1,continuous,32,1,trial,20375494.0,20377695.0,2201.0,32,L,20375673,20375977,306,522.3,500.3,4628,left
15,1,continuous,32,1,trial,20375494.0,20377695.0,2201.0,32,L,20376001,20376139,140,459.4,573.8,4412,left
15,1,continuous,32,1,trial,20375494.0,20377695.0,2201.0,32,L,20376205,20376693,490,1438.0,571.9,4172,right
15,1,continuous,32,1,trial,20375494.0,20377695.0,2201.0,32,L,20376721,20377061,342,1368.5,425.9,4234,right
15,1,continuous,32,1,trial,20375494.0,20377695.0,2201.0,32,L,20377125,20377397,274,470.8,517.0,4391,left
15,1,continuous,32,1,trial,20375494.0,20377695.0,2201.0,32,L,20377421,20377751,332,460.8,573.5,4265,left
15,1,continuous,32,1,trial,20375494.0,20377695.0,2201.0,32,L,20377905,20377967,64,1176.3,443.3,4099,NA
15,1,continuous,33,11,trial,20378394.0,20380444.0,2050.0,33,L,20378135,20378567,434,1084.3,471.3,4409,NA
15,1,continuous,33,11,trial,20378394.0,20380444.0,2050.0,33,L,20378629,20378883,256,411.3,522.3,4425,left
15,1,continuous,33,11,trial,20378394.0,20380444.0,2050.0,33,L,20378955,20379153,200,1467.2,496.2,3964,right
15,1,continuous,33,11,trial,20378394.0,20380444.0,2050.0,33,L,20379181,20379363,184,1680.7,526.7,3775,right
15,1,continuous,33,11,trial,20378394.0,20380444.0,2050.0,33,L,20379373,20379487,116,1662.1,547.0,3854,right
15,1,continuous,33,11,trial,20378394.0,20380444.0,2050.0,33,L,20379529,20379697,170,1388.0,439.9,4000,right
15,1,continuous,33,11,trial,20378394.0,20380444.0,2050.0,33,L,20379721,20379883,164,1419.2,438.4,4020,right
15,1,continuous,33,11,trial,20378394.0,20380444.0,2050.0,33,L,20379959,20380283,326,430.9,529.0,4141,left
15,1,continuous,33,11,trial,20378394.0,20380444.0,2050.0,33,L,20380303,20380543,242,450.4,569.5,4000,left
15,1,continuous,33,11,postResponse,20378394.0,20380444.0,2050.0,33,L,20380723,20380783,62,544.0,482.2,3913,left
15,1,continuous,34,1,trial,20381128.0,20383094.0,1966.0,34,L,20380991,20381353,364,630.7,507.0,4336,left
15,1,continuous,34,1,trial,20381128.0,20383094.0,1966.0,34,L,20381381,20381601,222,441.0,541.1,4265,left
15,1,continuous,34,1,trial,20381128.0,20383094.0,1966.0,34,L,20381669,20382233,566,1358.6,536.8,3890,right
15,1,continuous,34,1,trial,20381128.0,20383094.0,1966.0,34,L,20382297,20382765,470,480.4,506.1,3960,left
15,1,continuous,34,1,trial,20381128.0,20383094.0,1966.0,34,L,20382785,20383281,498,471.1,572.8,4085,left
15,1,continuous,35,100,trial,20383761.0,20385511.0,1750.0,35,L,20383519,20383779,262,735.3,405.8,4289,left
15,1,continuous,35,100,trial,20383761.0,20385511.0,1750.0,35,L,20383957,20384067,112,1198.4,525.9,4407,right
15,1,continuous,35,100,trial,20383761.0,20385511.0,1750.0,35,L,20384129,20384447,320,517.8,523.4,4494,left
15,1,continuous,35,100,trial,20383761.0,20385511.0,1750.0,35,L,20384471,20384709,240,456.1,405.4,4135,left
15,1,continuous,35,100,trial,20383761.0,20385511.0,1750.0,35,L,20384779,20384999,222,1492.0,447.0,3934,right
15,1,continuous,35,100,trial,20383761.0,20385511.0,1750.0,35,L,20385023,20385427,406,1327.7,393.2,3996,right
15,1,continuous,35,100,trial,20383761.0,20385511.0,1750.0,35,L,20385469,20385733,266,1576.3,456.2,4127,right
15,1,continuous,36,2,trial,20386194.0,20387845.0,1651.0,36,L,20385921,20386349,430,849.8,453.8,4403,NA
15,1,continuous,36,2,trial,20386194.0,20387845.0,1651.0,36,L,20386387,20386559,174,551.3,449.8,4546,left
15,1,continuous,36,2,trial,20386194.0,20387845.0,1651.0,36,L,20386585,20387037,454,545.7,513.6,4259,left
15,1,continuous,36,2,trial,20386194.0,20387845.0,1651.0,36,L,20387103,20387391,290,1380.1,457.2,4184,right
15,1,continuous,36,2,trial,20386194.0,20387845.0,1651.0,36,L,20387451,20387689,240,554.3,484.2,4233,left
15,1,continuous,36,2,trial,20386194.0,20387845.0,1651.0,36,L,20387701,20387891,192,530.7,505.7,4249,left
15,1,continuous,36,2,trial,20386194.0,20387845.0,1651.0,36,L,20387915,20388061,148,641.5,495.5,4278,left
15,1,continuous,37,50,trial,20388528.0,20390245.0,1717.0,37,L,20388253,20388539,288,693.2,460.2,4402,left
15,1,continuous,37,50,trial,20388528.0,20390245.0,1717.0,37,L,20388721,20388841,122,997.9,522.4,4426,NA
15,1,continuous,37,50,trial,20388528.0,20390245.0,1717.0,37,L,20388887,20389257,372,522.2,499.5,4425,left
15,1,continuous,37,50,trial,20388528.0,20390245.0,1717.0,37,L,20389281,20389519,240,411.6,441.3,4043,left
15,1,continuous,37,50,trial,20388528.0,20390245.0,1717.0,37,L,20389587,20389879,294,1416.6,497.0,3834,right
15,1,continuous,37,50,trial,20388528.0,20390245.0,1717.0,37,L,20389903,20390087,186,1528.3,522.1,3820,right
15,1,continuous,37,50,postResponse,20388528.0,20390245.0,1717.0,37,L,20390157,20390577,422,465.3,577.1,4014,left
15,1,continuous,38,1,fixationCross,20390961.0,20393361.0,2400.0,38,L,20390677,20390753,78,462.3,579.9,4395,left
15,1,continuous,38,1,trial,20390961.0,20393361.0,2400.0,38,L,20390905,20391093,190,869.7,457.0,4633,NA
15,1,continuous,38,1,trial,20390961.0,20393361.0,2400.0,38,L,20391133,20391353,222,545.0,446.2,4773,left
15,1,continuous,38,1,trial,20390961.0,20393361.0,2400.0,38,L,20391377,20391647,272,490.2,532.5,4497,left
15,1,continuous,38,1,trial,20390961.0,20393361.0,2400.0,38,L,20391667,20392183,518,457.8,586.9,4261,left
15,1,continuous,38,1,trial,20390961.0,20393361.0,2400.0,38,L,20392207,20392399,194,628.8,563.8,4212,left
15,1,continuous,38,1,trial,20390961.0,20393361.0,2400.0,38,L,20392517,20392903,388,1498.4,513.7,4216,right
15,1,continuous,38,1,trial,20390961.0,20393361.0,2400.0,38,L,20392981,20393385,406,438.7,597.9,4512,left
15,1,continuous,38,1,trial,20390961.0,20393361.0,2400.0,38,L,20393409,20393563,156,629.8,516.8,4204,left
15,1,continuous,39,97,fixationCross,20394044.0,20396028.0,1984.0,39,L,20393771,20394031,262,664.1,514.5,4254,left
15,1,continuous,39,97,trial,20394044.0,20396028.0,1984.0,39,L,20394099,20394195,98,1164.9,978.8,4574,likertHorizontal
15,1,continuous,39,97,trial,20394044.0,20396028.0,1984.0,39,L,20394265,20394523,260,442.3,461.6,4457,left
15,1,continuous,39,97,trial,20394044.0,20396028.0,1984.0,39,L,20394549,20394701,154,360.0,397.8,4260,left
15,1,continuous,39,97,trial,20394044.0,20396028.0,1984.0,39,L,20394773,20395025,254,1462.8,469.1,4077,right
15,1,continuous,39,97,trial,20394044.0,20396028.0,1984.0,39,L,20395049,20395301,254,1550.6,400.9,4066,right
15,1,continuous,39,97,trial,20394044.0,20396028.0,1984.0,39,L,20395329,20395453,126,1490.1,583.3,4220,right
15,1,continuous,39,97,trial,20394044.0,20396028.0,1984.0,39,L,20395523,20395915,394,558.8,486.4,4417,left
15,1,continuous,39,97,trial,20394044.0,20396028.0,1984.0,39,L,20395939,20396221,284,365.2,402.3,4274,left
15,1,continuous,40,1,fixationCross,20396694.0,20398328.0,1634.0,40,L,20396437,20396651,216,405.7,399.7,4423,left
15,1,continuous,40,1,trial,20396694.0,20398328.0,1634.0,40,L,20396735,20396841,108,1035.1,901.3,4643,likertHorizontal
15,1,continuous,40,1,trial,20396694.0,20398328.0,1634.0,40,L,20396903,20397027,126,387.9,493.5,4490,left
15,1,continuous,40,1,trial,20396694.0,20398328.0,1634.0,40,L,20397059,20397239,182,474.7,524.7,4404,left
15,1,continuous,40,1,trial,20396694.0,20398328.0,1634.0,40,L,20397307,20397409,104,1091.5,489.2,4283,NA
15,1,continuous,40,1,trial,20396694.0,20398328.0,1634.0,40,L,20397465,20397755,292,1492.2,502.8,4146,right
15,1,continuous,40,1,trial,20396694.0,20398328.0,1634.0,40,L,20397781,20397883,104,1298.1,540.5,4080,right
15,1,continuous,40,1,trial,20396694.0,20398328.0,1634.0,40,L,20397939,20398229,292,525.8,532.4,4056,left
15,1,continuous,40,1,trial,20396694.0,20398328.0,1634.0,40,L,20398247,20398525,280,463.3,507.5,4205,left
15,1,continuous,41,1,trial,20398995.0,20400377.0,1382.0,41,L,20398733,20399009,278,605.7,475.4,4463,left
15,1,continuous,41,1,trial,20398995.0,20400377.0,1382.0,41,L,20399071,20399201,132,1068.5,612.8,4687,NA
15,1,continuous,41,1,trial,20398995.0,20400377.0,1382.0,41,L,20399261,20399445,186,477.4,514.0,4548,left
15,1,continuous,41,1,trial,20398995.0,20400377.0,1382.0,41,L,20399469,20399747,280,515.8,489.2,4369,left
15,1,continuous,41,1,trial,20398995.0,20400377.0,1382.0,41,L,20399819,20400235,418,1564.4,467.3,4105,right
15,1,continuous,41,1,trial,20398995.0,20400377.0,1382.0,41,L,20400259,20400571,314,1475.8,548.4,4197,right
15,1,continuous,42,100,fixationCross,20401061.0,20402694.0,1633.0,42,L,20400783,20400807,26,1260.5,472.3,4279,right
15,1,continuous,42,100,trial,20401061.0,20402694.0,1633.0,42,L,20400969,20401191,224,1029.8,562.4,4536,NA
15,1,continuous,42,100,trial,20401061.0,20402694.0,1633.0,42,L,20401249,20401485,238,509.1,473.4,4719,left
15,1,continuous,42,100,trial,20401061.0,20402694.0,1633.0,42,L,20401511,20401657,148,359.6,556.9,4490,left
15,1,continuous,42,100,trial,20401061.0,20402694.0,1633.0,42,L,20401729,20401971,244,1438.4,509.3,4180,right
15,1,continuous,42,100,trial,20401061.0,20402694.0,1633.0,42,L,20401993,20402279,288,1433.8,554.7,4084,right
15,1,continuous,42,100,trial,20401061.0,20402694.0,1633.0,42,L,20402345,20402679,336,469.4,549.1,4157,left
15,1,continuous,42,100,trial,20401061.0,20402694.0,1633.0,42,L,20402705,20402889,186,656.2,524.5,4160,left
15,1,continuous,43,25,trial,20403411.0,20410311.0,6900.0,43,L,20403133,20403457,326,1271.1,644.5,4712,right
15,1,continuous,43,25,trial,20403411.0,20410311.0,6900.0,43,L,20403507,20403655,150,931.1,540.2,4947,NA
15,1,continuous,43,25,trial,20403411.0,20410311.0,6900.0,43,L,20403701,20403905,206,501.9,478.6,4736,left
15,1,continuous,43,25,trial,20403411.0,20410311.0,6900.0,43,L,20403927,20404185,260,366.8,479.6,4449,left
15,1,continuous,43,25,trial,20403411.0,20410311.0,6900.0,43,L,20404311,20404909,600,1364.5,415.7,4444,right
15,1,continuous,43,25,trial,20403411.0,20410311.0,6900.0,43,L,20404977,20405347,372,382.2,500.5,4400,left
15,1,continuous,43,25,trial,20403411.0,20410311.0,6900.0,43,L,20405513,20405735,224,705.2,605.1,4246,left
15,1,continuous,43,25,trial,20403411.0,20410311.0,6900.0,43,L,20405803,20405927,126,1046.5,997.8,4590,likertHorizontal
15,1,continuous,43,25,trial,20403411.0,20410311.0,6900.0,43,L,20405951,20406165,216,974.2,989.4,4659,likertHorizontal
15,1,continuous,43,25,trial,20403411.0,20410311.0,6900.0,43,L,20406225,20406433,210,1440.0,1004.6,4646,NA
15,1,continuous,43,25,trial,20403411.0,20410311.0,6900.0,43,L,20406565,20406687,124,1292.9,425.5,4575,right
15,1,continuous,43,25,trial,20403411.0,20410311.0,6900.0,43,L,20406719,20406947,230,1354.5,462.7,4642,right
15,1,continuous,43,25,trial,20403411.0,20410311.0,6900.0,43,L,20407021,20407639,620,392.8,513.6,4511,left
15,1,continuous,43,25,trial,20403411.0,20410311.0,6900.0,43,L,20407813,20407957,146,1329.3,482.6,4093,right
15,1,continuous,43,25,trial,20403411.0,20410311.0,6900.0,43,L,20407981,20408699,720,1361.8,449.6,4393,right
15,1,continuous,43,25,trial,20403411.0,20410311.0,6900.0,43,L,20408775,20408959,186,364.1,479.8,4355,left
15,1,continuous,43,25,trial,20403411.0,20410311.0,6900.0,43,L,20408979,20409573,596,388.1,488.7,4212,left
15,1,continuous,43,25,trial,20403411.0,20410311.0,6900.0,43,L,20409615,20409847,234,617.3,614.7,4128,left
15,1,continuous,43,25,trial,20403411.0,20410311.0,6900.0,43,L,20409909,20410089,182,1382.9,465.3,3956,right
15,1,continuous,43,25,trial,20403411.0,20410311.0,6900.0,43,L,20410157,20410387,232,648.6,1050.8,4126,NA
15,1,continuous,43,25,trial,20403411.0,20410311.0,6900.0,43,L,20410449,20410545,98,444.3,498.4,4275,left
15,1,continuous,44,85,fixationCross,20411028.0,20413794.0,2766.0,44,L,20410749,20410997,250,540.1,384.0,4432,left
15,1,continuous,44,85,trial,20411028.0,20413794.0,2766.0,44,L,20411061,20411221,162,881.8,610.6,4588,NA
15,1,continuous,44,85,trial,20411028.0,20413794.0,2766.0,44,L,20411273,20411531,260,482.8,552.8,4480,left
15,1,continuous,44,85,trial,20411028.0,20413794.0,2766.0,44,L,20411599,20411779,182,1419.0,500.7,4209,right
15,1,continuous,44,85,trial,20411028.0,20413794.0,2766.0,44,L,20411805,20412279,476,1358.1,474.1,4089,right
15,1,continuous,44,85,trial,20411028.0,20413794.0,2766.0,44,L,20412345,20412629,286,434.0,526.3,4145,left
15,1,continuous,44,85,trial,20411028.0,20413794.0,2766.0,44,L,20412785,20412955,172,510.6,537.5,4112,left
15,1,continuous,44,85,trial,20411028.0,20413794.0,2766.0,44,L,20413019,20414043,1026,1374.4,472.2,4123,right
15,1,continuous,45,82,trial,20414478.0,20416845.0,2367.0,45,L,20414215,20414669,456,430.7,569.5,4609,left
15,1,continuous,45,82,trial,20414478.0,20416845.0,2367.0,45,L,20414711,20414979,270,579.2,471.4,4366,left
15,1,continuous,45,82,trial,20414478.0,20416845.0,2367.0,45,L,20415053,20415193,142,1449.4,439.8,4215,right
15,1,continuous,45,82,trial,20414478.0,20416845.0,2367.0,45,L,20415219,20415409,192,1361.8,398.5,4207,right
15,1,continuous,45,82,trial,20414478.0,20416845.0,2367.0,45,L,20415445,20415733,290,1422.9,516.8,4352,right
15,1,continuous,45,82,trial,20414478.0,20416845.0,2367.0,45,L,20415745,20417059,1316,1406.8,491.2,4588,right
15,1,continuous,46,74,trial,20417561.0,20419494.0,1933.0,46,L,20417293,20417701,410,926.3,480.3,4850,NA
15,1,continuous,46,74,trial,20417561.0,20419494.0,1933.0,46,L,20417747,20418121,376,508.0,471.9,4499,left
15,1,continuous,46,74,trial,20417561.0,20419494.0,1933.0,46,L,20418187,20418335,150,1380.7,504.0,4035,right
15,1,continuous,46,74,trial,20417561.0,20419494.0,1933.0,46,L,20418359,20418931,574,1421.7,525.9,3985,right
15,1,continuous,46,74,trial,20417561.0,20419494.0,1933.0,46,L,20418995,20419683,690,536.0,502.9,4041,left
15,1,continuous,47,7,trial,20420178.0,20423178.0,3000.0,47,L,20419903,20420225,324,451.7,362.8,4215,left
15,1,continuous,47,7,trial,20420178.0,20423178.0,3000.0,47,L,20420281,20420397,118,880.0,512.4,4417,NA
15,1,continuous,47,7,trial,20420178.0,20423178.0,3000.0,47,L,20420439,20420793,356,504.8,546.3,4316,left
15,1,continuous,47,7,trial,20420178.0,20423178.0,3000.0,47,L,20420867,20421251,386,1393.6,446.4,4119,right
15,1,continuous,47,7,trial,20420178.0,20423178.0,3000.0,47,L,20421277,20421523,248,1433.9,546.2,4086,right
15,1,continuous,47,7,trial,20420178.0,20423178.0,3000.0,47,L,20421599,20421863,266,453.5,592.8,4132,left
15,1,continuous,47,7,trial,20420178.0,20423178.0,3000.0,47,L,20421885,20422135,252,563.2,566.7,4002,left
15,1,continuous,47,7,trial,20420178.0,20423178.0,3000.0,47,L,20422161,20422633,474,368.3,569.1,4080,left
15,1,continuous,47,7,trial,20420178.0,20423178.0,3000.0,47,L,20422677,20422913,238,628.4,500.6,4013,left
15,1,continuous,47,7,trial,20420178.0,20423178.0,3000.0,47,L,20422971,20423221,252,1325.1,463.5,4006,right
15,1,continuous,47,7,trial,20420178.0,20423178.0,3000.0,47,L,20423243,20423383,142,1419.8,430.2,4105,right
15,1,continuous,48,87,trial,20423928.0,20425162.0,1234.0,48,L,20423759,20424079,322,909.4,448.8,4427,NA
15,1,continuous,48,87,trial,20423928.0,20425162.0,1234.0,48,L,20424121,20424457,338,528.5,472.0,4287,left
15,1,continuous,48,87,trial,20423928.0,20425162.0,1234.0,48,L,20424521,20424749,230,1395.0,520.3,3884,right
15,1,continuous,48,87,trial,20423928.0,20425162.0,1234.0,48,L,20424787,20425439,654,1624.2,480.5,3798,right
15,1,continuous,49,84,trial,20425844.0,20428411.0,2567.0,49,L,20425603,20426011,410,1094.6,448.9,4148,NA
15,1,continuous,49,84,trial,20425844.0,20428411.0,2567.0,49,L,20426077,20426259,184,421.8,528.2,4500,left
15,1,continuous,49,84,trial,20425844.0,20428411.0,2567.0,49,L,20426291,20426517,228,505.9,555.2,4284,left
15,1,continuous,49,84,trial,20425844.0,20428411.0,2567.0,49,L,20426533,20426691,160,516.6,540.3,4132,left
15,1,continuous,49,84,trial,20425844.0,20428411.0,2567.0,49,L,20426761,20427121,362,1509.2,441.4,3865,right
15,1,continuous,49,84,trial,20425844.0,20428411.0,2567.0,49,L,20427145,20427381,238,1443.0,504.2,3889,right
15,1,continuous,49,84,trial,20425844.0,20428411.0,2567.0,49,L,20427439,20427603,166,576.9,579.3,4044,left
15,1,continuous,49,84,trial,20425844.0,20428411.0,2567.0,49,L,20427623,20427821,200,513.2,551.8,4026,left
15,1,continuous,49,84,trial,20425844.0,20428411.0,2567.0,49,L,20427831,20428229,400,516.7,531.5,3957,left
15,1,continuous,49,84,trial,20425844.0,20428411.0,2567.0,49,L,20428297,20428503,208,1398.2,425.1,3808,right
15,1,continuous,49,84,postResponse,20425844.0,20428411.0,2567.0,49,L,20428635,20428755,122,1347.8,402.1,3858,right
15,1,continuous,50,21,trial,20429128.0,20431528.0,2400.0,50,L,20428989,20429257,270,964.7,670.6,4415,NA
15,1,continuous,50,21,trial,20429128.0,20431528.0,2400.0,50,L,20429311,20429505,196,447.8,482.5,4393,left
15,1,continuous,50,21,trial,20429128.0,20431528.0,2400.0,50,L,20429529,20429821,294,516.3,537.2,4101,left
15,1,continuous,50,21,trial,20429128.0,20431528.0,2400.0,50,L,20429889,20430307,420,1428.4,456.3,3849,right
15,1,continuous,50,21,trial,20429128.0,20431528.0,2400.0,50,L,20430333,20430553,222,1490.5,571.8,3876,right
15,1,continuous,50,21,trial,20429128.0,20431528.0,2400.0,50,L,20430593,20430727,136,1397.9,429.8,3857,right
15,1,continuous,50,21,trial,20429128.0,20431528.0,2400.0,50,L,20430735,20431169,436,1381.3,437.9,3878,right
15,1,continuous,50,21,trial,20429128.0,20431528.0,2400.0,50,L,20431229,20431727,500,559.3,483.2,4066,left
15,2,binary,1,1,fixationCross,20498595.0,20500963.0,2368.0,51,L,20498322,20498378,58,807.1,559.9,4708,NA
15,2,binary,1,1,trial,20498595.0,20500963.0,2368.0,51,L,20498430,20498722,294,1083.4,533.0,4751,NA
15,2,binary,1,1,trial,20498595.0,20500963.0,2368.0,51,L,20498770,20499016,248,582.8,493.1,4895,left
15,2,binary,1,1,trial,20498595.0,20500963.0,2368.0,51,L,20499038,20499162,126,464.0,543.0,4723,left
15,2,binary,1,1,trial,20498595.0,20500963.0,2368.0,51,L,20499306,20499442,138,432.6,555.1,4522,left
15,2,binary,1,1,trial,20498595.0,20500963.0,2368.0,51,L,20499516,20499918,404,1440.7,425.9,4353,right
15,2,binary,1,1,trial,20498595.0,20500963.0,2368.0,51,L,20499984,20500172,190,434.1,942.7,4429,NA
15,2,binary,1,1,trial,20498595.0,20500963.0,2368.0,51,L,20500196,20500880,686,489.0,975.0,4669,NA
15,2,binary,1,1,postResponse,20498595.0,20500963.0,2368.0,51,L,20501034,20501302,270,533.5,410.4,4820,left
15,2,binary,2,2,trial,20501663.0,20503512.0,1849.0,52,L,20501470,20501670,202,1058.4,739.5,4808,likertHorizontal
15,2,binary,2,2,trial,20501663.0,20503512.0,1849.0,52,L,20501816,20501962,148,921.5,453.4,4893,NA
15,2,binary,2,2,trial,20501663.0,20503512.0,1849.0,52,L,20502016,20502300,286,523.0,488.8,5064,left
15,2,binary,2,2,trial,20501663.0,20503512.0,1849.0,52,L,20502330,20502538,210,538.0,547.6,4689,left
15,2,binary,2,2,trial,20501663.0,20503512.0,1849.0,52,L,20502600,20502828,230,1343.5,543.0,4361,right
15,2,binary,2,2,trial,20501663.0,20503512.0,1849.0,52,L,20502850,20503112,264,1422.5,532.3,4257,right
15,2,binary,2,2,trial,20501663.0,20503512.0,1849.0,52,L,20503136,20503376,242,1261.1,436.4,4218,right
15,2,binary,2,2,trial,20501663.0,20503512.0,1849.0,52,L,20503434,20503740,308,508.2,519.2,4286,left
15,2,binary,3,2,trial,20504212.0,20506129.0,1917.0,53,L,20503936,20504226,292,390.1,362.5,4268,left
15,2,binary,3,2,trial,20504212.0,20506129.0,1917.0,53,L,20504372,20504502,132,912.9,474.7,4205,NA
15,2,binary,3,2,trial,20504212.0,20506129.0,1917.0,53,L,20504552,20504804,254,489.9,495.2,4296,left
15,2,binary,3,2,trial,20504212.0,20506129.0,1917.0,53,L,20504852,20504974,124,626.1,556.7,4239,left
15,2,binary,3,2,trial,20504212.0,20506129.0,1917.0,53,L,20505038,20505474,438,1431.7,505.5,3988,right
15,2,binary,3,2,trial,20504212.0,20506129.0,1917.0,53,L,20505536,20505998,464,548.8,529.0,3946,left
15,2,binary,3,2,trial,20504212.0,20506129.0,1917.0,53,L,20506022,20506328,308,461.3,623.7,4175,left
15,2,binary,4,2,trial,20506829.0,20509029.0,2200.0,54,L,20506560,20506876,318,596.9,466.7,4423,left
15,2,binary,4,2,trial,20506829.0,20509029.0,2200.0,54,L,20506930,20507026,98,968.4,507.2,4500,NA
15,2,binary,4,2,trial,20506829.0,20509029.0,2200.0,54,L,20507070,20507276,208,569.2,493.8,4459,left
15,2,binary,4,2,trial,20506829.0,20509029.0,2200.0,54,L,20507342,20507534,194,1435.3,415.1,4268,right
15,2,binary,4,2,trial,20506829.0,20509029.0,2200.0,54,L,20507558,20508042,486,1458.8,386.0,4149,right
15,2,binary,4,2,trial,20506829.0,20509029.0,2200.0,54,L,20508106,20508344,240,533.6,465.5,4264,left
15,2,binary,4,2,trial,20506829.0,20509029.0,2200.0,54,L,20508364,20508482,120,571.0,478.5,4217,left
15,2,binary,4,2,trial,20506829.0,20509029.0,2200.0,54,L,20508548,20508852,306,1450.1,418.7,4019,right
15,2,binary,4,2,trial,20506829.0,20509029.0,2200.0,54,L,20508872,20509026,156,1493.3,385.4,4074,right
15,2,binary,4,2,trial,20506829.0,20509029.0,2200.0,54,L,20509046,20509232,188,1515.2,397.5,4146,right
15,2,binary,5,1,trial,20509729.0,20511745.0,2016.0,55,L,20509462,20509754,294,1020.5,365.3,4359,NA
15,2,binary,5,1,trial,20509729.0,20511745.0,2016.0,55,L,20509812,20509892,82,895.1,740.4,4534,likertHorizontal
15,2,binary,5,1,trial,20509729.0,20511745.0,2016.0,55,L,20509940,20510130,192,446.9,496.7,4418,left
15,2,binary,5,1,trial,20509729.0,20511745.0,2016.0,55,L,20510154,20510452,300,478.1,529.8,4085,left
15,2,binary,5,1,trial,20509729.0,20511745.0,2016.0,55,L,20510522,20510886,366,1475.7,547.2,3822,right
15,2,binary,5,1,trial,20509729.0,20511745.0,2016.0,55,L,20510912,20511104,194,1322.4,484.1,3925,right
15,2,binary,5,1,trial,20509729.0,20511745.0,2016.0,55,L,20511170,20511316,148,392.9,544.2,4056,left
15,2,binary,5,1,trial,20509729.0,20511745.0,2016.0,55,L,20511340,20511990,652,461.2,518.7,3952,left
15,2,binary,6,2,trial,20512429.0,20513929.0,1500.0,56,L,20512170,20512632,464,738.0,390.6,4382,NA
15,2,binary,6,2,trial,20512429.0,20513929.0,1500.0,56,L,20512670,20513034,366,443.2,504.0,4462,left
15,2,binary,6,2,trial,20512429.0,20513929.0,1500.0,56,L,20513104,20513408,306,1443.2,465.5,4089,right
15,2,binary,6,2,trial,20512429.0,20513929.0,1500.0,56,L,20513440,20513656,218,1449.4,525.0,4084,right
15,2,binary,6,2,trial,20512429.0,20513929.0,1500.0,56,L,20513726,20513914,190,405.9,421.0,4023,left
15,2,binary,6,2,trial,20512429.0,20513929.0,1500.0,56,L,20513934,20514206,274,430.2,390.8,3938,left
15,2,binary,7,1,trial,20514612.0,20517796.0,3184.0,57,L,20514370,20514688,320,601.0,446.3,4145,left
15,2,binary,7,1,trial,20514612.0,20517796.0,3184.0,57,L,20514736,20514836,102,1004.4,502.7,4386,NA
15,2,binary,7,1,trial,20514612.0,20517796.0,3184.0,57,L,20514882,20515084,204,536.1,484.8,4232,left
15,2,binary,7,1,trial,20514612.0,20517796.0,3184.0,57,L,20515150,20515542,394,1447.7,470.1,3915,right
15,2,binary,7,1,trial,20514612.0,20517796.0,3184.0,57,L,20515566,20515728,164,1307.1,432.8,3837,right
15,2,binary,7,1,trial,20514612.0,20517796.0,3184.0,57,L,20515790,20516114,326,467.9,480.5,3953,left
15,2,binary,7,1,trial,20514612.0,20517796.0,3184.0,57,L,20516134,20516504,372,468.0,535.9,3971,left
15,2,binary,7,1,trial,20514612.0,20517796.0,3184.0,57,L,20516580,20516872,294,1453.9,444.2,3845,right
15,2,binary,7,1,trial,20514612.0,20517796.0,3184.0,57,L,20516896,20517118,224,1281.7,460.6,3888,right
15,2,binary,7,1,trial,20514612.0,20517796.0,3184.0,57,L,20517188,20517478,292,490.2,473.6,4187,left
15,2,binary,7,1,trial,20514612.0,20517796.0,3184.0,57,L,20517532,20517686,156,457.2,904.2,4394,NA
15,2,binary,7,1,trial,20514612.0,20517796.0,3184.0,57,L,20517712,20517832,122,484.9,968.1,4411,NA
15,2,binary,7,1,trial,20514612.0,20517796.0,3184.0,57,L,20517902,20518008,108,630.2,496.9,4388,left
15,2,binary,8,1,trial,20518479.0,20520129.0,1650.0,58,L,20518204,20518638,436,786.0,438.1,4493,NA
15,2,binary,8,1,trial,20518479.0,20520129.0,1650.0,58,L,20518674,20518902,230,465.0,536.5,4411,left
15,2,binary,8,1,trial,20518479.0,20520129.0,1650.0,58,L,20518922,20519328,408,434.8,575.3,4001,left
15,2,binary,8,1,trial,20518479.0,20520129.0,1650.0,58,L,20519398,20519982,586,1402.5,493.6,3802,right
15,2,binary,8,1,trial,20518479.0,20520129.0,1650.0,58,L,20520004,20520338,336,1328.8,449.3,3826,right
15,2,binary,9,2,trial,20520813.0,20522629.0,1816.0,59,L,20520538,20520874,338,1275.6,416.9,4135,right
15,2,binary,9,2,trial,20520813.0,20522629.0,1816.0,59,L,20520922,20521038,118,927.2,492.7,4476,NA
15,2,binary,9,2,trial,20520813.0,20522629.0,1816.0,59,L,20521080,20521458,380,547.5,471.5,4280,left
15,2,binary,9,2,trial,20520813.0,20522629.0,1816.0,59,L,20521524,20521742,220,1413.1,452.8,3932,right
15,2,binary,9,2,trial,20520813.0,20522629.0,1816.0,59,L,20521764,20521974,212,1407.5,394.0,3876,right
15,2,binary,9,2,trial,20520813.0,20522629.0,1816.0,59,L,20522038,20522318,282,515.5,482.1,3944,left
15,2,binary,9,2,trial,20520813.0,20522629.0,1816.0,59,L,20522382,20522586,206,1301.6,746.5,4013,NA
15,2,binary,9,2,trial,20520813.0,20522629.0,1816.0,59,L,20522618,20522800,184,1476.7,942.0,4117,NA
15,2,binary,10,2,trial,20523296.0,20525563.0,2267.0,60,L,20523038,20523464,428,622.0,522.5,4519,left
15,2,binary,10,2,trial,20523296.0,20525563.0,2267.0,60,L,20523492,20523870,380,562.7,431.5,4353,left
15,2,binary,10,2,trial,20523296.0,20525563.0,2267.0,60,L,20523938,20524256,320,1433.6,480.5,4129,right
15,2,binary,10,2,trial,20523296.0,20525563.0,2267.0,60,L,20524282,20524648,368,1624.6,504.7,3961,right
15,2,binary,10,2,trial,20523296.0,20525563.0,2267.0,60,L,20524688,20524910,224,1413.8,470.0,3782,right
15,2,binary,10,2,trial,20523296.0,20525563.0,2267.0,60,L,20524970,20525154,186,993.3,841.5,3904,likertHorizontal
15,2,binary,10,2,trial,20523296.0,20525563.0,2267.0,60,L,20525212,20525538,328,559.6,476.0,4068,left
15,2,binary,10,2,trial,20523296.0,20525563.0,2267.0,60,L,20525560,20525806,248,544.6,437.2,4275,left
15,2,binary,11,2,trial,20526229.0,20528713.0,2484.0,61,L,20525970,20526290,322,440.3,334.9,4329,NA
15,2,binary,11,2,trial,20526229.0,20528713.0,2484.0,61,L,20526346,20526454,110,869.9,476.2,4382,NA
15,2,binary,11,2,trial,20526229.0,20528713.0,2484.0,61,L,20526498,20526792,296,461.0,433.9,4189,left
15,2,binary,11,2,trial,20526229.0,20528713.0,2484.0,61,L,20526874,20527180,308,1500.3,536.2,4012,right
15,2,binary,11,2,trial,20526229.0,20528713.0,2484.0,61,L,20527210,20527374,166,1369.1,528.8,4091,right
15,2,binary,11,2,trial,20526229.0,20528713.0,2484.0,61,L,20527400,20527596,198,1334.5,580.4,4177,right
15,2,binary,11,2,trial,20526229.0,20528713.0,2484.0,61,L,20527662,20527962,302,452.8,456.3,4195,left
15,2,binary,11,2,trial,20526229.0,20528713.0,2484.0,61,L,20527982,20528086,106,495.0,388.0,4047,left
15,2,binary,11,2,trial,20526229.0,20528713.0,2484.0,61,L,20528158,20528528,372,1488.9,499.7,3985,right
15,2,binary,11,2,postResponse,20526229.0,20528713.0,2484.0,61,L,20528698,20529046,350,1421.2,394.8,4180,right
15,2,binary,12,1,trial,20529429.0,20531496.0,2067.0,62,L,20529146,20529466,322,1410.8,405.2,4284,right
15,2,binary,12,1,trial,20529429.0,20531496.0,2067.0,62,L,20529522,20529662,142,910.3,513.7,4330,NA
15,2,binary,12,1,trial,20529429.0,20531496.0,2067.0,62,L,20529708,20529920,214,505.4,480.6,4271,left
15,2,binary,12,1,trial,20529429.0,20531496.0,2067.0,62,L,20529946,20530116,172,486.0,363.6,4074,left
15,2,binary,12,1,trial,20529429.0,20531496.0,2067.0,62,L,20530188,20530466,280,1547.7,435.6,3815,right
15,2,binary,12,1,trial,20529429.0,20531496.0,2067.0,62,L,20530490,20530692,204,1455.1,443.0,3922,right
15,2,binary,12,1,trial,20529429.0,20531496.0,2067.0,62,L,20530704,20530818,116,1457.5,467.7,4027,right
15,2,binary,12,1,trial,20529429.0,20531496.0,2067.0,62,L,20530892,20531186,296,507.4,444.4,4135,left
15,2,binary,12,1,trial,20529429.0,20531496.0,2067.0,62,L,20531208,20531668,462,501.1,358.7,3944,left
15,2,binary,13,1,fixationCross,20532179.0,20533713.0,1534.0,63,L,20531908,20532050,144,603.8,389.1,4020,left
15,2,binary,13,1,trial,20532179.0,20533713.0,1534.0,63,L,20532116,20532364,250,1232.0,588.3,4180,right
15,2,binary,13,1,trial,20532179.0,20533713.0,1534.0,63,L,20532430,20532710,282,454.5,447.4,4213,left
15,2,binary,13,1,trial,20532179.0,20533713.0,1534.0,63,L,20532734,20533022,290,594.1,486.8,4031,left
15,2,binary,13,1,trial,20532179.0,20533713.0,1534.0,63,L,20533048,20533342,296,585.4,619.5,4031,left
15,2,binary,13,1,trial,20532179.0,20533713.0,1534.0,63,L,20533412,20533604,194,1462.6,476.1,4001,right
15,2,binary,13,1,trial,20532179.0,20533713.0,1534.0,63,L,20533630,20533950,322,1408.5,539.8,4088,right
15,2,binary,14,1,trial,20534446.0,20536729.0,2283.0,64,L,20534148,20534460,314,1337.4,482.6,4285,right
15,2,binary,14,1,trial,20534446.0,20536729.0,2283.0,64,L,20534510,20534640,132,820.2,508.1,4464,NA
15,2,binary,14,1,trial,20534446.0,20536729.0,2283.0,64,L,20534668,20534952,286,550.6,481.8,4307,left
15,2,binary,14,1,trial,20534446.0,20536729.0,2283.0,64,L,20534978,20535104,128,417.2,510.6,4048,left
15,2,binary,14,1,trial,20534446.0,20536729.0,2283.0,64,L,20535174,20535542,370,1497.1,501.0,3754,right
15,2,binary,14,1,trial,20534446.0,20536729.0,2283.0,64,L,20535570,20535960,392,1513.7,533.2,4069,right
15,2,binary,14,1,trial,20534446.0,20536729.0,2283.0,64,L,20535978,20536172,196,1486.8,529.0,4275,right
15,2,binary,14,1,trial,20534446.0,20536729.0,2283.0,64,L,20536256,20536704,450,422.1,502.0,4254,left
15,2,binary,14,1,trial,20534446.0,20536729.0,2283.0,64,L,20536724,20536926,204,522.2,516.3,3894,left
15,2,binary,15,1,trial,20537413.0,20539962.0,2549.0,65,L,20537138,20537544,408,947.6,453.4,4106,NA
15,2,binary,15,1,trial,20537413.0,20539962.0,2549.0,65,L,20537590,20537886,298,526.5,485.1,4408,left
15,2,binary,15,1,trial,20537413.0,20539962.0,2549.0,65,L,20537934,20538062,130,756.3,434.9,4202,NA
15,2,binary,15,1,trial,20537413.0,20539962.0,2549.0,65,L,20538090,20538512,424,506.7,402.3,4252,left
15,2,binary,15,1,trial,20537413.0,20539962.0,2549.0,65,L,20538536,20538820,286,532.9,479.6,4349,left
15,2,binary,15,1,trial,20537413.0,20539962.0,2549.0,65,L,20538902,20539112,212,1556.5,481.7,4262,right
15,2,binary,15,1,trial,20537413.0,20539962.0,2549.0,65,L,20539134,20539462,330,1520.3,480.9,4298,right
15,2,binary,15,1,trial,20537413.0,20539962.0,2549.0,65,L,20539532,20539756,226,512.9,467.3,4293,left
15,2,binary,15,1,trial,20537413.0,20539962.0,2549.0,65,L,20539782,20540154,374,508.4,401.4,4253,left
15,2,binary,16,1,trial,20540679.0,20542030.0,1351.0,66,L,20540406,20540740,336,618.2,390.0,4359,left
15,2,binary,16,1,trial,20540679.0,20542030.0,1351.0,66,L,20540792,20540902,112,961.6,494.3,4366,NA
15,2,binary,16,1,trial,20540679.0,20542030.0,1351.0,66,L,20540946,20541260,316,515.4,502.5,4254,left
15,2,binary,16,1,trial,20540679.0,20542030.0,1351.0,66,L,20541282,20541394,114,620.1,543.7,4074,left
15,2,binary,16,1,trial,20540679.0,20542030.0,1351.0,66,L,20541458,20541694,238,1478.5,489.9,3818,right
15,2,binary,16,1,trial,20540679.0,20542030.0,1351.0,66,L,20541720,20541874,156,1467.6,596.1,3899,right
15,2,binary,16,1,trial,20540679.0,20542030.0,1351.0,66,L,20541890,20542240,352,1466.9,640.4,4058,right
15,2,binary,17,2,trial,20542696.0,20543730.0,1034.0,67,L,20542434,20542766,334,1198.4,449.0,4273,right
15,2,binary,17,2,trial,20542696.0,20543730.0,1034.0,67,L,20542812,20542958,148,904.3,496.6,4421,NA
15,2,binary,17,2,trial,20542696.0,20543730.0,1034.0,67,L,20543002,20543116,116,546.8,491.6,4285,left
15,2,binary,17,2,trial,20542696.0,20543730.0,1034.0,67,L,20543178,20543638,462,1373.3,476.9,3954,right
15,2,binary,17,2,trial,20542696.0,20543730.0,1034.0,67,L,20543712,20543964,254,483.8,514.4,4325,left
15,2,binary,18,2,trial,20544412.0,20546013.0,1601.0,68,L,20544162,20544476,316,479.7,392.9,4391,left
15,2,binary,18,2,trial,20544412.0,20546013.0,1601.0,68,L,20544526,20544656,132,869.1,497.8,4436,NA
15,2,binary,18,2,trial,20544412.0,20546013.0,1601.0,68,L,20544688,20544896,210,637.2,486.0,4308,left
15,2,binary,18,2,trial,20544412.0,20546013.0,1601.0,68,L,20544972,20545184,214,1511.3,503.7,4207,right
15,2,binary,18,2,trial,20544412.0,20546013.0,1601.0,68,L,20545222,20545648,428,1505.3,352.5,4159,right
15,2,binary,18,2,trial,20544412.0,20546013.0,1601.0,68,L,20545668,20546212,546,1514.6,427.3,4216,right
15,2,binary,19,1,trial,20546696.0,20547746.0,1050.0,69,L,20546434,20546850,418,673.8,473.1,4377,left
15,2,binary,19,1,trial,20546696.0,20547746.0,1050.0,69,L,20546876,20547128,254,450.9,458.1,4229,left
15,2,binary,19,1,trial,20546696.0,20547746.0,1050.0,69,L,20547154,20547460,308,493.7,595.5,3972,left
15,2,binary,19,1,trial,20546696.0,20547746.0,1050.0,69,L,20547528,20547716,190,1421.7,426.6,3837,right
15,2,binary,19,1,trial,20546696.0,20547746.0,1050.0,69,L,20547740,20548020,282,1455.1,378.7,3789,right
15,2,binary,20,1,trial,20548396.0,20549563.0,1167.0,70,L,20548174,20548532,360,1253.3,413.2,4083,right
15,2,binary,20,1,trial,20548396.0,20549563.0,1167.0,70,L,20548598,20548882,286,534.0,479.8,4318,left
15,2,binary,20,1,trial,20548396.0,20549563.0,1167.0,70,L,20548900,20549038,140,476.4,512.1,4080,left
15,2,binary,20,1,trial,20548396.0,20549563.0,1167.0,70,L,20549064,20549160,98,668.6,437.4,3954,left
15,2,binary,20,1,trial,20548396.0,20549563.0,1167.0,70,L,20549222,20549566,346,1465.4,471.7,3926,right
15,2,binary,20,1,trial,20548396.0,20549563.0,1167.0,70,L,20549588,20549768,182,1486.3,464.9,4167,right
15,2,binary,21,2,trial,20550246.0,20551613.0,1367.0,71,L,20549972,20550290,320,1320.4,379.3,4284,right
15,2,binary,21,2,trial,20550246.0,20551613.0,1367.0,71,L,20550334,20550446,114,861.5,537.4,4536,NA
15,2,binary,21,2,trial,20550246.0,20551613.0,1367.0,71,L,20550496,20550670,176,484.8,493.3,4394,left
15,2,binary,21,2,trial,20550246.0,20551613.0,1367.0,71,L,20550690,20550854,166,420.8,455.5,4109,left
15,2,binary,21,2,trial,20550246.0,20551613.0,1367.0,71,L,20550924,20551158,236,1488.3,470.7,3835,right
15,2,binary,21,2,trial,20550246.0,20551613.0,1367.0,71,L,20551182,20551604,424,1622.5,445.8,3953,right
15,2,binary,21,2,trial,20550246.0,20551613.0,1367.0,71,L,20551630,20551832,204,1442.4,466.4,4078,right
15,2,binary,22,1,trial,20552330.0,20553930.0,1600.0,72,L,20552060,20552386,328,438.5,467.7,4390,left
15,2,binary,22,1,trial,20552330.0,20553930.0,1600.0,72,L,20552442,20552558,118,935.3,474.3,4306,NA
15,2,binary,22,1,trial,20552330.0,20553930.0,1600.0,72,L,20552600,20552854,256,543.3,493.8,4163,left
15,2,binary,22,1,trial,20552330.0,20553930.0,1600.0,72,L,20552878,20552956,80,532.1,594.2,4118,left
15,2,binary,22,1,trial,20552330.0,20553930.0,1600.0,72,L,20553024,20553372,350,1468.7,431.1,3846,right
15,2,binary,22,1,trial,20552330.0,20553930.0,1600.0,72,L,20553444,20553660,218,500.3,662.8,4047,left
15,2,binary,22,1,trial,20552330.0,20553930.0,1600.0,72,L,20553682,20553826,146,491.5,589.6,4078,left
15,2,binary,22,1,trial,20552330.0,20553930.0,1600.0,72,L,20553848,20554136,290,521.3,606.0,4050,left
15,2,binary,23,1,trial,20554613.0,20556546.0,1933.0,73,L,20554336,20554656,322,551.7,456.3,4161,left
15,2,binary,23,1,trial,20554613.0,20556546.0,1933.0,73,L,20554710,20554856,148,941.8,484.9,4228,NA
15,2,binary,23,1,trial,20554613.0,20556546.0,1933.0,73,L,20554902,20555222,322,443.5,557.0,4105,left
15,2,binary,23,1,trial,20554613.0,20556546.0,1933.0,73,L,20555244,20555388,146,471.3,612.1,3999,left
15,2,binary,23,1,trial,20554613.0,20556546.0,1933.0,73,L,20555458,20555860,404,1422.6,490.4,3783,right
15,2,binary,23,1,trial,20554613.0,20556546.0,1933.0,73,L,20555880,20556040,162,1397.7,462.0,3879,right
15,2,binary,23,1,trial,20554613.0,20556546.0,1933.0,73,L,20556104,20556568,466,489.0,615.4,4045,left
15,2,binary,23,1,trial,20554613.0,20556546.0,1933.0,73,L,20556594,20556740,148,426.7,508.6,3951,left
15,2,binary,24,1,trial,20557246.0,20562280.0,5034.0,74,L,20556978,20557390,414,1048.2,379.9,4115,NA
15,2,binary,24,1,trial,20557246.0,20562280.0,5034.0,74,L,20557446,20557674,230,493.2,470.1,4328,left
15,2,binary,24,1,trial,20557246.0,20562280.0,5034.0,74,L,20557690,20558038,350,514.0,434.5,4077,left
15,2,binary,24,1,trial,20557246.0,20562280.0,5034.0,74,L,20558108,20558312,206,1414.5,465.4,3944,right
15,2,binary,24,1,trial,20557246.0,20562280.0,5034.0,74,L,20558336,20558748,414,1328.9,441.8,3989,right
15,2,binary,24,1,trial,20557246.0,20562280.0,5034.0,74,L,20558906,20559208,304,1258.9,400.0,4090,right
15,2,binary,24,1,trial,20557246.0,20562280.0,5034.0,74,L,20559268,20559698,432,507.4,434.4,4100,left
15,2,binary,24,1,trial,20557246.0,20562280.0,5034.0,74,L,20559770,20559926,158,1445.0,434.8,3953,right
15,2,binary,24,1,trial,20557246.0,20562280.0,5034.0,74,L,20559958,20560120,164,1311.0,433.2,3975,right
15,2,binary,24,1,trial,20557246.0,20562280.0,5034.0,74,L,20560184,20560622,440,514.3,448.9,4137,left
15,2,binary,24,1,trial,20557246.0,20562280.0,5034.0,74,L,20560674,20560776,104,518.3,658.5,4138,left
15,2,binary,24,1,trial,20557246.0,20562280.0,5034.0,74,L,20560848,20561016,170,1502.5,438.6,4045,right
15,2,binary,24,1,trial,20557246.0,20562280.0,5034.0,74,L,20561050,20561676,628,1308.0,437.3,4077,right
15,2,binary,24,1,trial,20557246.0,20562280.0,5034.0,74,L,20561736,20561910,176,453.0,435.1,4081,left
15,2,binary,24,1,trial,20557246.0,20562280.0,5034.0,74,L,20561932,20562476,546,487.0,443.3,4163,left
15,2,binary,25,1,trial,20562963.0,20564197.0,1234.0,75,L,20562694,20563158,466,704.3,527.2,4499,left
15,2,binary,25,1,trial,20562963.0,20564197.0,1234.0,75,L,20563182,20563334,154,580.3,457.4,4533,left
15,2,binary,25,1,trial,20562963.0,20564197.0,1234.0,75,L,20563356,20563598,244,610.6,463.4,4288,left
15,2,binary,25,1,trial,20562963.0,20564197.0,1234.0,75,L,20563664,20564050,388,1469.1,465.5,4142,right
15,2,binary,25,1,trial,20562963.0,20564197.0,1234.0,75,L,20564070,20564164,96,1464.0,444.5,4143,right
15,2,binary,25,1,postResponse,20562963.0,20564197.0,1234.0,75,L,20564224,20564530,308,633.3,451.6,4240,left
15,2,binary,26,2,trial,20589146.0,20591713.0,2567.0,76,L,20589065,20589281,218,1059.5,866.5,4150,likertHorizontal
15,2,binary,26,2,trial,20589146.0,20591713.0,2567.0,76,L,20589343,20589537,196,504.9,416.3,4515,left
15,2,binary,26,2,trial,20589146.0,20591713.0,2567.0,76,L,20589561,20589713,154,497.4,461.8,4551,left
15,2,binary,26,2,trial,20589146.0,20591713.0,2567.0,76,L,20589829,20590105,278,1445.6,470.4,4191,right
15,2,binary,26,2,trial,20589146.0,20591713.0,2567.0,76,L,20590121,20590267,148,1438.9,440.0,4280,right
15,2,binary,26,2,trial,20589146.0,20591713.0,2567.0,76,L,20590427,20590671,246,418.6,501.9,4353,left
15,2,binary,26,2,trial,20589146.0,20591713.0,2567.0,76,L,20590691,20590889,200,494.2,462.9,4429,left
15,2,binary,26,2,trial,20589146.0,20591713.0,2567.0,76,L,20590917,20591145,230,639.1,572.3,4301,left
15,2,binary,26,2,trial,20589146.0,20591713.0,2567.0,76,L,20591209,20591529,322,1429.7,502.6,4134,right
15,2,binary,26,2,trial,20589146.0,20591713.0,2567.0,76,L,20591551,20591881,332,1446.1,420.8,4126,right
15,2,binary,27,2,fixationCross,20592413.0,20593713.0,1300.0,77,L,20592147,20592319,174,724.2,351.5,4251,left
15,2,binary,27,2,trial,20592413.0,20593713.0,1300.0,77,L,20592375,20592545,172,170.7,389.0,4370,NA
15,2,binary,27,2,trial,20592413.0,20593713.0,1300.0,77,L,20592591,20592693,104,656.8,463.1,4334,left
15,2,binary,27,2,trial,20592413.0,20593713.0,1300.0,77,L,20592729,20592925,198,484.8,470.5,4135,left
15,2,binary,27,2,trial,20592413.0,20593713.0,1300.0,77,L,20592995,20593175,182,1452.2,543.1,3941,right
15,2,binary,27,2,trial,20592413.0,20593713.0,1300.0,77,L,20593201,20593897,698,1351.2,550.7,3886,right
15,2,binary,28,2,trial,20594397.0,20596480.0,2083.0,78,L,20594123,20594659,538,695.6,460.3,4301,left
15,2,binary,28,2,trial,20594397.0,20596480.0,2083.0,78,L,20594685,20594897,214,527.3,500.1,4239,left
15,2,binary,28,2,trial,20594397.0,20596480.0,2083.0,78,L,20594929,20595149,222,502.6,638.6,4066,left
15,2,binary,28,2,trial,20594397.0,20596480.0,2083.0,78,L,20595217,20595577,362,1393.7,401.5,3841,right
15,2,binary,28,2,trial,20594397.0,20596480.0,2083.0,78,L,20595599,20595925,328,1315.9,428.1,3942,right
15,2,binary,28,2,trial,20594397.0,20596480.0,2083.0,78,L,20595955,20596245,292,1433.5,610.8,4061,right
15,2,binary,28,2,trial,20594397.0,20596480.0,2083.0,78,L,20596291,20596421,132,1614.8,410.7,4071,right
15,2,binary,28,2,trial,20594397.0,20596480.0,2083.0,78,L,20596499,20596703,206,525.8,500.1,4419,left
15,2,binary,29,2,fixationCross,20597147.0,20599163.0,2016.0,79,L,20596889,20597043,156,533.5,397.2,4276,left
15,2,binary,29,2,trial,20597147.0,20599163.0,2016.0,79,L,20597211,20597395,186,594.6,514.8,4410,left
15,2,binary,29,2,trial,20597147.0,20599163.0,2016.0,79,L,20597423,20597663,242,523.0,391.4,4365,left
15,2,binary,29,2,trial,20597147.0,20599163.0,2016.0,79,L,20597689,20597843,156,419.8,478.5,4204,left
15,2,binary,29,2,trial,20597147.0,20599163.0,2016.0,79,L,20597913,20598281,370,1408.0,508.1,4097,right
15,2,binary,29,2,trial,20597147.0,20599163.0,2016.0,79,L,20598305,20598565,262,1530.4,549.7,4137,right
15,2,binary,29,2,trial,20597147.0,20599163.0,2016.0,79,L,20598633,20599331,700,492.6,496.9,4219,left
15,2,binary,30,1,fixationCross,20599847.0,20601247.0,1400.0,80,L,20599575,20599721,148,540.9,445.1,4234,left
15,2,binary,30,1,trial,20599847.0,20601247.0,1400.0,80,L,20599795,20599981,188,1167.6,535.3,4484,NA
15,2,binary,30,1,trial,20599847.0,20601247.0,1400.0,80,L,20600045,20600455,412,469.7,432.9,4378,left
15,2,binary,30,1,trial,20599847.0,20601247.0,1400.0,80,L,20600503,20600611,110,898.1,489.3,4128,NA
15,2,binary,30,1,trial,20599847.0,20601247.0,1400.0,80,L,20600665,20601415,752,1460.2,447.2,4073,right
15,2,binary,31,2,trial,20601963.0,20603230.0,1267.0,81,L,20601681,20601989,310,1475.7,381.5,4322,right
15,2,binary,31,2,trial,20601963.0,20603230.0,1267.0,81,L,20602049,20602161,114,871.6,506.9,4504,NA
15,2,binary,31,2,trial,20601963.0,20603230.0,1267.0,81,L,20602205,20602489,286,492.3,459.7,4273,left
15,2,binary,31,2,trial,20601963.0,20603230.0,1267.0,81,L,20602559,20602903,346,1498.3,455.1,3850,right
15,2,binary,31,2,trial,20601963.0,20603230.0,1267.0,81,L,20602923,20603057,136,1464.6,436.2,3904,right
15,2,binary,31,2,trial,20601963.0,20603230.0,1267.0,81,L,20603083,20603247,166,1368.2,536.4,3982,right
15,2,binary,31,2,trial,20601963.0,20603230.0,1267.0,81,L,20603309,20603457,150,502.2,494.4,4088,left
15,2,binary,32,1,trial,20603914.0,20605347.0,1433.0,82,L,20603669,20604079,412,697.2,414.9,4290,left
15,2,binary,32,1,trial,20603914.0,20605347.0,1433.0,82,L,20604105,20604411,308,546.5,553.6,4302,left
15,2,binary,32,1,trial,20603914.0,20605347.0,1433.0,82,L,20604481,20604885,406,1506.1,559.3,3857,right
15,2,binary,32,1,trial,20603914.0,20605347.0,1433.0,82,L,20604925,20605175,252,1530.0,416.6,3940,right
15,2,binary,32,1,trial,20603914.0,20605347.0,1433.0,82,L,20605315,20605559,246,580.6,483.6,4078,left
15,2,binary,33,1,trial,20606064.0,20607997.0,1933.0,83,L,20605757,20606073,318,626.2,480.2,4117,left
15,2,binary,33,1,trial,20606064.0,20607997.0,1933.0,83,L,20606209,20606311,104,1000.8,512.6,4274,NA
15,2,binary,33,1,trial,20606064.0,20607997.0,1933.0,83,L,20606365,20606519,156,524.6,485.3,4324,left
15,2,binary,33,1,trial,20606064.0,20607997.0,1933.0,83,L,20606543,20606685,144,489.6,551.4,4322,left
15,2,binary,33,1,trial,20606064.0,20607997.0,1933.0,83,L,20606709,20606879,172,513.5,587.6,4192,left
15,2,binary,33,1,trial,20606064.0,20607997.0,1933.0,83,L,20606951,20607311,362,1532.2,460.4,4000,right
15,2,binary,33,1,trial,20606064.0,20607997.0,1933.0,83,L,20607339,20607511,174,1574.6,358.0,3972,right
15,2,binary,33,1,trial,20606064.0,20607997.0,1933.0,83,L,20607579,20607823,246,536.6,470.0,4123,left
15,2,binary,33,1,trial,20606064.0,20607997.0,1933.0,83,L,20607847,20608095,250,511.3,568.1,4114,left
15,2,binary,33,1,trial,20606064.0,20607997.0,1933.0,83,L,20608113,20608207,96,534.3,595.2,4121,left
15,2,binary,34,1,fixationCross,20608680.0,20611547.0,2867.0,84,L,20608409,20608439,32,647.4,436.9,4200,left
15,2,binary,34,1,trial,20608680.0,20611547.0,2867.0,84,L,20608619,20608913,296,684.5,492.3,4544,left
15,2,binary,34,1,trial,20608680.0,20611547.0,2867.0,84,L,20608939,20609117,180,537.6,553.3,4517,left
15,2,binary,34,1,trial,20608680.0,20611547.0,2867.0,84,L,20609139,20609457,320,577.3,572.3,4171,left
15,2,binary,34,1,trial,20608680.0,20611547.0,2867.0,84,L,20609481,20609729,250,445.0,458.3,4057,left
15,2,binary,34,1,trial,20608680.0,20611547.0,2867.0,84,L,20609751,20609885,136,543.3,437.5,4038,left
15,2,binary,34,1,trial,20608680.0,20611547.0,2867.0,84,L,20609955,20610143,190,1528.5,492.7,3895,right
15,2,binary,34,1,trial,20608680.0,20611547.0,2867.0,84,L,20610169,20610459,292,1589.9,512.1,3912,right
15,2,binary,34,1,trial,20608680.0,20611547.0,2867.0,84,L,20610551,20610803,254,487.3,464.5,4055,left
15,2,binary,34,1,trial,20608680.0,20611547.0,2867.0,84,L,20610945,20611091,148,946.7,828.5,4029,likertHorizontal
15,2,binary,34,1,trial,20608680.0,20611547.0,2867.0,84,L,20611149,20611483,336,543.4,464.3,4293,left
15,2,binary,34,1,trial,20608680.0,20611547.0,2867.0,84,L,20611505,20611735,232,579.5,435.0,4417,left
15,2,binary,35,2,trial,20612231.0,20614730.0,2499.0,85,L,20611959,20612281,324,683.8,716.7,4543,left
15,2,binary,35,2,trial,20612231.0,20614730.0,2499.0,85,L,20612337,20612431,96,957.8,480.8,4730,NA
15,2,binary,35,2,trial,20612231.0,20614730.0,2499.0,85,L,20612487,20612793,308,456.9,437.3,4568,left
15,2,binary,35,2,trial,20612231.0,20614730.0,2499.0,85,L,20612863,20613215,354,1411.9,398.1,4273,right
15,2,binary,35,2,trial,20612231.0,20614730.0,2499.0,85,L,20613241,20613539,300,1359.5,473.9,4327,right
15,2,binary,35,2,trial,20612231.0,20614730.0,2499.0,85,L,20613603,20613955,354,437.3,456.7,4293,left
15,2,binary,35,2,trial,20612231.0,20614730.0,2499.0,85,L,20613973,20614159,188,411.0,417.3,4049,left
15,2,binary,35,2,trial,20612231.0,20614730.0,2499.0,85,L,20614231,20614457,228,1328.6,761.3,4026,NA
15,2,binary,35,2,trial,20612231.0,20614730.0,2499.0,85,L,20614487,20614621,136,1505.1,954.6,4060,NA
15,2,binary,35,2,trial,20612231.0,20614730.0,2499.0,85,L,20614757,20615019,264,1427.1,395.8,4362,right
15,2,binary,36,1,trial,20615397.0,20617030.0,1633.0,86,L,20615177,20615425,250,879.1,975.3,4688,likertHorizontal
15,2,binary,36,1,trial,20615397.0,20617030.0,1633.0,86,L,20615517,20615593,78,966.0,596.5,4724,NA
15,2,binary,36,1,trial,20615397.0,20617030.0,1633.0,86,L,20615649,20615917,270,523.4,518.5,4643,left
15,2,binary,36,1,trial,20615397.0,20617030.0,1633.0,86,L,20615983,20616163,182,1429.3,427.1,4240,right
15,2,binary,36,1,trial,20615397.0,20617030.0,1633.0,86,L,20616187,20616601,416,1341.9,423.3,4229,right
15,2,binary,36,1,trial,20615397.0,20617030.0,1633.0,86,L,20616639,20616849,212,1537.2,426.2,4374,right
15,2,binary,36,1,trial,20615397.0,20617030.0,1633.0,86,L,20616923,20617201,280,598.0,471.7,4457,left
15,2,binary,37,1,fixationCross,20617697.0,20619397.0,1700.0,87,L,20617437,20617585,150,640.0,483.2,4285,left
15,2,binary,37,1,trial,20617697.0,20619397.0,1700.0,87,L,20617637,20617821,186,1110.4,897.8,4551,likertHorizontal
15,2,binary,37,1,trial,20617697.0,20619397.0,1700.0,87,L,20617889,20618179,292,475.6,478.8,4426,left
15,2,binary,37,1,trial,20617697.0,20619397.0,1700.0,87,L,20618247,20618509,264,1454.8,440.0,3992,right
15,2,binary,37,1,trial,20617697.0,20619397.0,1700.0,87,L,20618571,20618821,252,538.7,523.4,4042,left
15,2,binary,37,1,trial,20617697.0,20619397.0,1700.0,87,L,20618843,20619359,518,474.4,603.5,3963,left
15,2,binary,37,1,trial,20617697.0,20619397.0,1700.0,87,L,20619373,20619559,188,457.0,546.5,3998,left
15,2,binary,38,2,trial,20620097.0,20622081.0,1984.0,88,L,20619831,20620117,288,1062.4,366.8,4197,NA
15,2,binary,38,2,trial,20620097.0,20622081.0,1984.0,88,L,20620165,20620253,90,1239.1,431.7,4390,right
15,2,binary,38,2,trial,20620097.0,20622081.0,1984.0,88,L,20620317,20620513,198,471.1,468.5,4406,left
15,2,binary,38,2,trial,20620097.0,20622081.0,1984.0,88,L,20620535,20620973,440,530.2,496.5,4123,left
15,2,binary,38,2,trial,20620097.0,20622081.0,1984.0,88,L,20620999,20621163,166,423.9,543.1,4088,left
15,2,binary,38,2,trial,20620097.0,20622081.0,1984.0,88,L,20621177,20621357,182,462.2,529.7,4118,left
15,2,binary,38,2,trial,20620097.0,20622081.0,1984.0,88,L,20621393,20621619,228,457.4,396.6,4051,left
15,2,binary,38,2,trial,20620097.0,20622081.0,1984.0,88,L,20621695,20621955,262,1490.3,500.9,3983,right
15,2,binary,38,2,trial,20620097.0,20622081.0,1984.0,88,L,20621979,20622289,312,1457.8,597.0,4064,right
15,2,binary,39,1,fixationCross,20622764.0,20624347.0,1583.0,89,L,20622489,20622619,132,1291.6,371.9,4134,right
15,2,binary,39,1,trial,20622764.0,20624347.0,1583.0,89,L,20622769,20622885,118,1126.8,374.5,4400,NA
15,2,binary,39,1,trial,20622764.0,20624347.0,1583.0,89,L,20622947,20623109,164,501.0,490.7,4539,left
15,2,binary,39,1,trial,20622764.0,20624347.0,1583.0,89,L,20623135,20623367,234,566.2,526.8,4217,left
15,2,binary,39,1,trial,20622764.0,20624347.0,1583.0,89,L,20623393,20623531,140,498.4,621.0,3972,left
15,2,binary,39,1,trial,20622764.0,20624347.0,1583.0,89,L,20623597,20623879,284,1410.3,461.7,3857,right
15,2,binary,39,1,trial,20622764.0,20624347.0,1583.0,89,L,20623905,20624131,228,1526.9,549.4,3937,right
15,2,binary,39,1,trial,20622764.0,20624347.0,1583.0,89,L,20624207,20624535,330,499.8,482.9,4064,left
15,2,binary,40,1,trial,20625031.0,20626280.0,1249.0,90,L,20624757,20625263,508,647.1,435.6,4232,left
15,2,binary,40,1,trial,20625031.0,20626280.0,1249.0,90,L,20625283,20625521,240,610.3,478.5,4289,left
15,2,binary,40,1,trial,20625031.0,20626280.0,1249.0,90,L,20625541,20625647,108,655.9,460.3,4168,left
15,2,binary,40,1,trial,20625031.0,20626280.0,1249.0,90,L,20625711,20626471,762,1469.9,476.7,3961,right
15,2,binary,41,2,trial,20626964.0,20628531.0,1567.0,91,L,20626697,20627019,324,1283.1,462.3,4216,right
15,2,binary,41,2,trial,20626964.0,20628531.0,1567.0,91,L,20627071,20627175,106,914.2,489.0,4417,NA
15,2,binary,41,2,trial,20626964.0,20628531.0,1567.0,91,L,20627225,20627427,204,563.5,479.1,4293,left
15,2,binary,41,2,trial,20626964.0,20628531.0,1567.0,91,L,20627451,20627715,266,479.7,562.8,4157,left
15,2,binary,41,2,trial,20626964.0,20628531.0,1567.0,91,L,20627785,20628107,324,1475.1,589.1,3954,right
15,2,binary,41,2,trial,20626964.0,20628531.0,1567.0,91,L,20628137,20628461,326,1488.2,449.6,4014,right
15,2,binary,41,2,trial,20626964.0,20628531.0,1567.0,91,L,20628485,20628733,250,1586.1,552.3,4087,right
15,2,binary,42,2,fixationCross,20629230.0,20630681.0,1451.0,92,L,20628945,20629051,108,1397.1,492.0,4122,right
15,2,binary,42,2,trial,20629230.0,20630681.0,1451.0,92,L,20629223,20629383,162,722.2,453.5,4455,left
15,2,binary,42,2,trial,20629230.0,20630681.0,1451.0,92,L,20629413,20629627,216,503.7,463.2,4448,left
15,2,binary,42,2,trial,20629230.0,20630681.0,1451.0,92,L,20629649,20629815,168,587.4,454.4,4128,left
15,2,binary,42,2,trial,20629230.0,20630681.0,1451.0,92,L,20629865,20629889,26,925.4,430.3,3950,NA
15,2,binary,42,2,trial,20629230.0,20630681.0,1451.0,92,L,20629941,20630171,232,1529.2,497.2,3854,right
15,2,binary,42,2,trial,20629230.0,20630681.0,1451.0,92,L,20630195,20630531,338,1489.2,430.5,4069,right
15,2,binary,42,2,trial,20629230.0,20630681.0,1451.0,92,L,20630605,20630899,296,517.5,420.2,4182,left
15,2,binary,43,1,fixationCross,20631380.0,20633281.0,1901.0,93,L,20631115,20631167,54,567.5,396.3,4074,left
15,2,binary,43,1,trial,20631380.0,20633281.0,1901.0,93,L,20631333,20631699,368,577.6,475.3,4468,left
15,2,binary,43,1,trial,20631380.0,20633281.0,1901.0,93,L,20631723,20631965,244,412.7,424.6,4133,left
15,2,binary,43,1,trial,20631380.0,20633281.0,1901.0,93,L,20632037,20632297,262,1445.9,581.1,3833,right
15,2,binary,43,1,trial,20631380.0,20633281.0,1901.0,93,L,20632339,20632529,192,1309.1,398.0,3807,right
15,2,binary,43,1,trial,20631380.0,20633281.0,1901.0,93,L,20632545,20632711,168,1304.5,433.4,3870,right
15,2,binary,43,1,trial,20631380.0,20633281.0,1901.0,93,L,20632771,20633255,486,473.3,449.8,3978,left
15,2,binary,43,1,trial,20631380.0,20633281.0,1901.0,93,L,20633329,20633509,182,1483.3,666.3,3767,right
15,2,binary,44,2,fixationCross,20633981.0,20635581.0,1600.0,94,L,20633717,20633951,236,1300.8,410.9,3938,right
15,2,binary,44,2,trial,20633981.0,20635581.0,1600.0,94,L,20634103,20634231,130,1010.6,491.4,4275,NA
15,2,binary,44,2,trial,20633981.0,20635581.0,1600.0,94,L,20634285,20634555,272,559.5,465.6,4287,left
15,2,binary,44,2,trial,20633981.0,20635581.0,1600.0,94,L,20634577,20634699,124,420.2,458.6,4093,left
15,2,binary,44,2,trial,20633981.0,20635581.0,1600.0,94,L,20634769,20635075,308,1444.6,539.9,3911,right
15,2,binary,44,2,trial,20633981.0,20635581.0,1600.0,94,L,20635101,20635543,444,1392.4,645.6,3897,right
15,2,binary,44,2,trial,20633981.0,20635581.0,1600.0,94,L,20635589,20635773,186,1498.8,465.6,3864,right
15,2,binary,45,1,trial,20636331.0,20637681.0,1350.0,95,L,20636029,20636405,378,1201.4,414.8,4200,right
15,2,binary,45,1,trial,20636331.0,20637681.0,1350.0,95,L,20636455,20636819,366,682.0,492.2,4324,left
15,2,binary,45,1,trial,20636331.0,20637681.0,1350.0,95,L,20636881,20637225,346,1495.6,528.2,3960,right
15,2,binary,45,1,trial,20636331.0,20637681.0,1350.0,95,L,20637297,20637833,538,592.9,472.6,3940,left
15,2,binary,46,2,fixationCross,20638380.0,20639580.0,1200.0,96,L,20638113,20638127,16,687.0,433.5,4065,left
15,2,binary,46,2,trial,20638380.0,20639580.0,1200.0,96,L,20638303,20638543,242,780.0,456.8,4462,NA
15,2,binary,46,2,trial,20638380.0,20639580.0,1200.0,96,L,20638575,20638731,158,513.4,464.5,4657,left
15,2,binary,46,2,trial,20638380.0,20639580.0,1200.0,96,L,20638753,20638871,120,472.8,411.9,4354,left
15,2,binary,46,2,trial,20638380.0,20639580.0,1200.0,96,L,20638941,20639173,234,1486.3,432.6,3870,right
15,2,binary,46,2,trial,20638380.0,20639580.0,1200.0,96,L,20639197,20639765,570,1433.9,418.2,3816,right
15,2,binary,47,1,trial,20640264.0,20641681.0,1417.0,97,L,20640141,20640397,258,891.3,420.5,4273,NA
15,2,binary,47,1,trial,20640264.0,20641681.0,1417.0,97,L,20640439,20640669,232,549.1,440.5,4383,left
15,2,binary,47,1,trial,20640264.0,20641681.0,1417.0,97,L,20640693,20640877,186,509.3,373.6,4109,left
15,2,binary,47,1,trial,20640264.0,20641681.0,1417.0,97,L,20640945,20641093,150,1444.4,448.6,3904,right
15,2,binary,47,1,trial,20640264.0,20641681.0,1417.0,97,L,20641125,20641689,566,1493.4,489.3,4018,right
15,2,binary,47,1,trial,20640264.0,20641681.0,1417.0,97,L,20641755,20641921,168,584.2,411.5,4127,left
15,2,binary,48,2,trial,20642347.0,20643614.0,1267.0,98,L,20642095,20642547,454,730.6,417.8,4256,left
15,2,binary,48,2,trial,20642347.0,20643614.0,1267.0,98,L,20642579,20643037,460,497.1,463.2,4075,left
15,2,binary,48,2,trial,20642347.0,20643614.0,1267.0,98,L,20643063,20643145,84,556.4,574.2,3902,left
15,2,binary,48,2,trial,20642347.0,20643614.0,1267.0,98,L,20643215,20643487,274,1533.8,515.6,3917,right
15,2,binary,48,2,trial,20642347.0,20643614.0,1267.0,98,L,20643511,20643843,334,1434.7,575.1,4126,right
15,2,binary,49,2,trial,20644298.0,20646098.0,1800.0,99,L,20644027,20644343,318,1227.2,422.8,4375,right
15,2,binary,49,2,trial,20644298.0,20646098.0,1800.0,99,L,20644381,20644527,148,900.1,485.9,4587,NA
15,2,binary,49,2,trial,20644298.0,20646098.0,1800.0,99,L,20644571,20644867,298,553.2,405.3,4459,left
15,2,binary,49,2,trial,20644298.0,20646098.0,1800.0,99,L,20644889,20645015,128,504.8,441.6,4295,left
15,2,binary,49,2,trial,20644298.0,20646098.0,1800.0,99,L,20645083,20645315,234,1394.2,501.8,4112,right
15,2,binary,49,2,trial,20644298.0,20646098.0,1800.0,99,L,20645341,20645701,362,1444.9,524.8,4143,right
15,2,binary,49,2,trial,20644298.0,20646098.0,1800.0,99,L,20645739,20646049,312,1608.6,513.8,4086,right
15,2,binary,49,2,trial,20644298.0,20646098.0,1800.0,99,L,20646179,20646317,140,565.3,444.0,4258,left
15,2,binary,50,1,trial,20646781.0,20648230.0,1449.0,100,L,20646509,20646951,444,629.7,408.9,4344,left
15,2,binary,50,1,trial,20646781.0,20648230.0,1449.0,100,L,20646977,20647237,262,494.9,422.2,4167,left
15,2,binary,50,1,trial,20646781.0,20648230.0,1449.0,100,L,20647305,20647907,604,1411.1,469.8,4047,right
15,2,binary,50,1,trial,20646781.0,20648230.0,1449.0,100,L,20647927,20648049,124,1362.4,422.1,4264,right
15,2,binary,50,1,trial,20646781.0,20648230.0,1449.0,100,L,20648121,20648451,332,475.8,436.1,4320,left
15,3,valuation,1,4,fixationCross,20707798.0,20714631.0,6833.0,101,L,20707523,20707769,248,938.3,614.7,4821,NA
15,3,valuation,1,4,trial,20707798.0,20714631.0,6833.0,101,L,20707821,20708011,192,1183.8,596.0,4764,right
15,3,valuation,1,4,trial,20707798.0,20714631.0,6833.0,101,L,20708077,20708233,158,476.2,465.3,4524,likertVertical
15,3,valuation,1,4,trial,20707798.0,20714631.0,6833.0,101,L,20708285,20708463,180,544.9,276.5,4345,likertVertical
15,3,valuation,1,4,trial,20707798.0,20714631.0,6833.0,101,L,20708479,20708729,252,588.7,273.2,4287,likertVertical
15,3,valuation,1,4,trial,20707798.0,20714631.0,6833.0,101,L,20708799,20709091,294,1448.8,512.2,4293,right
15,3,valuation,1,4,trial,20707798.0,20714631.0,6833.0,101,L,20709119,20709313,196,1422.5,580.6,4379,right
15,3,valuation,1,4,trial,20707798.0,20714631.0,6833.0,101,L,20709475,20709669,196,604.6,701.2,4501,likertVertical
15,3,valuation,1,4,trial,20707798.0,20714631.0,6833.0,101,L,20709735,20709965,232,1397.9,543.0,4557,right
15,3,valuation,1,4,trial,20707798.0,20714631.0,6833.0,101,L,20710037,20710189,154,579.8,344.0,4436,likertVertical
15,3,valuation,1,4,trial,20707798.0,20714631.0,6833.0,101,L,20710211,20710413,204,513.4,375.6,4270,likertVertical
15,3,valuation,1,4,trial,20707798.0,20714631.0,6833.0,101,L,20710471,20710597,128,572.1,836.2,4317,likertVertical
15,3,valuation,1,4,trial,20707798.0,20714631.0,6833.0,101,L,20710621,20710797,178,636.1,811.4,4377,likertVertical
15,3,valuation,1,4,trial,20707798.0,20714631.0,6833.0,101,L,20710811,20710923,114,677.5,816.2,4533,likertVertical
15,3,valuation,1,4,trial,20707798.0,20714631.0,6833.0,101,L,20711097,20711703,608,520.9,308.8,4678,likertVertical
15,3,valuation,1,4,trial,20707798.0,20714631.0,6833.0,101,L,20711725,20711853,130,651.1,282.2,4485,likertVertical
15,3,valuation,1,4,trial,20707798.0,20714631.0,6833.0,101,L,20711973,20712251,280,1408.1,474.4,4415,right
15,3,valuation,1,4,trial,20707798.0,20714631.0,6833.0,101,L,20712285,20712541,258,1427.6,524.5,4570,right
15,3,valuation,1,4,trial,20707798.0,20714631.0,6833.0,101,L,20712607,20712741,136,578.8,593.1,4537,likertVertical
15,3,valuation,1,4,trial,20707798.0,20714631.0,6833.0,101,L,20712765,20713095,332,491.1,534.3,4603,likertVertical
15,3,valuation,1,4,trial,20707798.0,20714631.0,6833.0,101,L,20713217,20713351,136,484.2,385.8,4703,likertVertical
15,3,valuation,1,4,trial,20707798.0,20714631.0,6833.0,101,L,20713389,20713665,278,479.5,511.3,4748,likertVertical
15,3,valuation,1,4,trial,20707798.0,20714631.0,6833.0,101,L,20713681,20713873,194,495.5,540.5,4736,likertVertical
15,3,valuation,1,4,trial,20707798.0,20714631.0,6833.0,101,L,20714035,20714233,200,476.0,511.7,4690,likertVertical
15,3,valuation,1,4,trial,20707798.0,20714631.0,6833.0,101,L,20714263,20714591,330,485.8,461.5,4781,likertVertical
15,3,valuation,1,4,trial,20707798.0,20714631.0,6833.0,101,L,20714621,20714929,310,507.6,570.7,4642,likertVertical
15,3,valuation,2,4,trial,20715282.0,20717782.0,2500.0,102,L,20715105,20715355,252,536.9,413.2,4768,likertVertical
15,3,valuation,2,4,trial,20715282.0,20717782.0,2500.0,102,L,20715401,20715591,192,977.8,520.4,4832,NA
15,3,valuation,2,4,trial,20715282.0,20717782.0,2500.0,102,L,20715639,20715881,244,507.3,471.4,4598,likertVertical
15,3,valuation,2,4,trial,20715282.0,20717782.0,2500.0,102,L,20715903,20716149,248,492.7,548.8,4459,likertVertical
15,3,valuation,2,4,trial,20715282.0,20717782.0,2500.0,102,L,20716221,20716431,212,1474.4,517.1,4284,right
15,3,valuation,2,4,trial,20715282.0,20717782.0,2500.0,102,L,20716449,20716807,360,1457.5,559.9,4137,right
15,3,valuation,2,4,trial,20715282.0,20717782.0,2500.0,102,L,20716945,20717079,136,658.2,242.4,3978,likertVertical
15,3,valuation,2,4,trial,20715282.0,20717782.0,2500.0,102,L,20717103,20717421,320,583.1,276.5,3996,likertVertical
15,3,valuation,2,4,trial,20715282.0,20717782.0,2500.0,102,L,20717479,20717585,108,506.2,678.7,4173,likertVertical
15,3,valuation,2,4,trial,20715282.0,20717782.0,2500.0,102,L,20717607,20717775,170,504.7,592.1,4249,likertVertical
15,3,valuation,2,4,trial,20715282.0,20717782.0,2500.0,102,L,20717797,20718017,222,507.8,535.4,4245,likertVertical
15,3,valuation,3,4,trial,20718465.0,20719615.0,1150.0,103,L,20718219,20718649,432,581.5,403.2,4441,likertVertical
15,3,valuation,3,4,trial,20718465.0,20719615.0,1150.0,103,L,20718677,20718887,212,588.8,287.9,4357,likertVertical
15,3,valuation,3,4,trial,20718465.0,20719615.0,1150.0,103,L,20718965,20719191,228,1488.5,478.6,4238,right
15,3,valuation,3,4,trial,20718465.0,20719615.0,1150.0,103,L,20719213,20719347,136,1464.9,445.9,4237,right
15,3,valuation,3,4,trial,20718465.0,20719615.0,1150.0,103,L,20719417,20719547,132,566.2,591.4,4283,likertVertical
15,3,valuation,3,4,trial,20718465.0,20719615.0,1150.0,103,L,20719573,20719829,258,503.4,535.1,4296,likertVertical
15,3,valuation,4,4,trial,20720299.0,20721899.0,1600.0,104,L,20720049,20720511,464,808.6,387.8,4523,NA
15,3,valuation,4,4,trial,20720299.0,20721899.0,1600.0,104,L,20720555,20720703,150,550.5,299.8,4435,likertVertical
15,3,valuation,4,4,trial,20720299.0,20721899.0,1600.0,104,L,20720771,20720977,208,1437.5,518.8,4224,right
15,3,valuation,4,4,trial,20720299.0,20721899.0,1600.0,104,L,20721041,20721309,270,514.7,387.1,4227,likertVertical
15,3,valuation,4,4,trial,20720299.0,20721899.0,1600.0,104,L,20721493,20721647,156,1294.8,432.6,4261,right
