participantNo,block,task,blockTrial,response,trialStage,trialStartTime,trialFinishTime,rt,trial,eye,fixStart,fixEnd,fixLength,fixPosX,fixPosY,dilation,aoi
57,1,continuous,1,100,fixationCross,11762251.0,11766751.0,4500.0,1,R,11761497,11761643,148,1027.4,696.9,4658,NA
57,1,continuous,1,100,fixationCross,11762251.0,11766751.0,4500.0,1,R,11761691,11761911,222,1017.4,380.1,4738,NA
57,1,continuous,1,100,fixationCross,11762251.0,11766751.0,4500.0,1,R,11761943,11762217,276,985.2,574.3,4732,NA
57,1,continuous,1,100,trial,11762251.0,11766751.0,4500.0,1,R,11762425,11762503,80,992.4,528.0,4957,NA
57,1,continuous,1,100,trial,11762251.0,11766751.0,4500.0,1,R,11762547,11762783,238,603.2,476.3,4973,left
57,1,continuous,1,100,trial,11762251.0,11766751.0,4500.0,1,R,11762801,11763123,324,512.0,479.8,4637,left
57,1,continuous,1,100,trial,11762251.0,11766751.0,4500.0,1,R,11763187,11763489,304,1380.1,444.8,4157,right
57,1,continuous,1,100,trial,11762251.0,11766751.0,4500.0,1,R,11763509,11763799,292,1443.5,462.8,4170,right
57,1,continuous,1,100,trial,11762251.0,11766751.0,4500.0,1,R,11763825,11763999,176,1320.9,507.9,4271,right
57,1,continuous,1,100,trial,11762251.0,11766751.0,4500.0,1,R,11764063,11764229,168,1088.1,945.9,4425,likertHorizontal
57,1,continuous,1,100,trial,11762251.0,11766751.0,4500.0,1,R,11764291,11764807,518,1350.6,506.5,4508,right
57,1,continuous,1,100,trial,11762251.0,11766751.0,4500.0,1,R,11764831,11765083,254,1442.4,499.2,4599,right
57,1,continuous,1,100,trial,11762251.0,11766751.0,4500.0,1,R,11765143,11765437,296,1470.4,1011.3,4687,NA
57,1,continuous,1,100,trial,11762251.0,11766751.0,4500.0,1,R,11765495,11765743,250,1392.0,566.5,4650,right
57,1,continuous,1,100,trial,11762251.0,11766751.0,4500.0,1,R,11766007,11766153,148,1311.4,431.0,4729,right
57,1,continuous,1,100,trial,11762251.0,11766751.0,4500.0,1,R,11766165,11766381,218,1280.7,434.6,4759,right
57,1,continuous,1,100,trial,11762251.0,11766751.0,4500.0,1,R,11766409,11766575,168,1424.6,475.5,4545,right
57,1,continuous,1,100,postResponse,11762251.0,11766751.0,4500.0,1,R,11766587,11767087,502,1449.1,482.4,4373,right
57,1,continuous,2,13,fixationCross,11767851.0,11770068.0,2217.0,2,R,11767461,11767473,14,1030.1,353.0,5040,NA
57,1,continuous,2,13,fixationCross,11767851.0,11770068.0,2217.0,2,R,11767501,11767595,96,1018.1,419.0,4950,NA
57,1,continuous,2,13,trial,11767851.0,11770068.0,2217.0,2,R,11767621,11767999,380,994.3,517.2,5127,NA
57,1,continuous,2,13,trial,11767851.0,11770068.0,2217.0,2,R,11768043,11768251,210,613.2,465.5,4908,left
57,1,continuous,2,13,trial,11767851.0,11770068.0,2217.0,2,R,11768279,11768757,480,472.0,579.9,4343,left
57,1,continuous,2,13,trial,11767851.0,11770068.0,2217.0,2,R,11768785,11769531,748,639.7,635.3,4373,left
57,1,continuous,2,13,trial,11767851.0,11770068.0,2217.0,2,R,11769547,11769847,302,592.2,632.5,4550,left
57,1,continuous,2,13,postResponse,11767851.0,11770068.0,2217.0,2,R,11769871,11770415,546,583.4,543.1,4592,left
57,1,continuous,3,88,fixationCross,11771135.0,11773551.0,2416.0,3,R,11770489,11770797,310,579.4,548.3,4587,left
57,1,continuous,3,88,fixationCross,11771135.0,11773551.0,2416.0,3,R,11770839,11770981,144,917.9,565.1,4699,NA
57,1,continuous,3,88,trial,11771135.0,11773551.0,2416.0,3,R,11770997,11771291,296,975.1,572.5,4741,NA
57,1,continuous,3,88,trial,11771135.0,11773551.0,2416.0,3,R,11771335,11771487,154,1370.4,577.5,4680,right
57,1,continuous,3,88,trial,11771135.0,11773551.0,2416.0,3,R,11771505,11771529,26,1424.8,570.9,4540,right
57,1,continuous,3,88,trial,11771135.0,11773551.0,2416.0,3,R,11771593,11771811,220,488.4,522.0,4554,left
57,1,continuous,3,88,trial,11771135.0,11773551.0,2416.0,3,R,11771827,11772073,248,454.9,495.9,4433,left
57,1,continuous,3,88,trial,11771135.0,11773551.0,2416.0,3,R,11772139,11772267,130,1339.4,579.1,4209,right
57,1,continuous,3,88,trial,11771135.0,11773551.0,2416.0,3,R,11772291,11772731,442,1448.2,555.9,4148,right
57,1,continuous,3,88,trial,11771135.0,11773551.0,2416.0,3,R,11772783,11772927,146,1282.6,900.6,4195,NA
57,1,continuous,3,88,trial,11771135.0,11773551.0,2416.0,3,R,11772997,11773159,164,593.4,607.1,4330,left
57,1,continuous,3,88,trial,11771135.0,11773551.0,2416.0,3,R,11773193,11773439,248,491.5,494.8,4387,left
57,1,continuous,3,88,postResponse,11771135.0,11773551.0,2416.0,3,R,11773497,11773889,394,1204.1,628.7,4240,right
57,1,continuous,4,83,fixationCross,11774502.0,11778252.0,3750.0,4,R,11773965,11774173,210,1204.4,641.2,4371,right
57,1,continuous,4,83,fixationCross,11774502.0,11778252.0,3750.0,4,R,11774235,11774281,48,900.6,524.8,4675,NA
57,1,continuous,4,83,fixationCross,11774502.0,11778252.0,3750.0,4,R,11774293,11774447,156,877.7,570.6,4649,NA
57,1,continuous,4,83,trial,11774502.0,11778252.0,3750.0,4,R,11774469,11774649,182,959.4,575.4,4703,NA
57,1,continuous,4,83,trial,11774502.0,11778252.0,3750.0,4,R,11774689,11774837,150,578.2,506.1,4812,left
57,1,continuous,4,83,trial,11774502.0,11778252.0,3750.0,4,R,11774861,11775123,264,480.8,501.7,4565,left
57,1,continuous,4,83,trial,11774502.0,11778252.0,3750.0,4,R,11775141,11775235,96,410.5,516.3,4409,left
57,1,continuous,4,83,trial,11774502.0,11778252.0,3750.0,4,R,11775307,11775475,170,1487.7,584.5,4212,right
57,1,continuous,4,83,trial,11774502.0,11778252.0,3750.0,4,R,11775499,11776061,564,1582.5,578.7,4238,right
57,1,continuous,4,83,trial,11774502.0,11778252.0,3750.0,4,R,11776327,11776519,194,1370.9,616.4,4462,right
57,1,continuous,4,83,trial,11774502.0,11778252.0,3750.0,4,R,11776535,11776937,404,1325.1,654.5,4568,right
57,1,continuous,4,83,trial,11774502.0,11778252.0,3750.0,4,R,11776955,11777157,204,1343.5,605.0,4455,right
57,1,continuous,4,83,trial,11774502.0,11778252.0,3750.0,4,R,11777465,11777543,80,1346.4,565.3,4615,right
57,1,continuous,4,83,trial,11774502.0,11778252.0,3750.0,4,R,11777551,11777737,188,1320.7,591.1,4583,right
57,1,continuous,4,83,trial,11774502.0,11778252.0,3750.0,4,R,11777759,11778123,366,1363.7,659.3,4521,right
57,1,continuous,5,14,fixationCross,11779452.0,11782469.0,3017.0,5,R,11778723,11778925,204,1112.1,570.6,4397,NA
57,1,continuous,5,14,fixationCross,11779452.0,11782469.0,3017.0,5,R,11779117,11779203,88,778.5,498.6,4817,NA
57,1,continuous,5,14,trial,11779452.0,11782469.0,3017.0,5,R,11779231,11779495,266,947.7,560.8,4826,NA
57,1,continuous,5,14,trial,11779452.0,11782469.0,3017.0,5,R,11779585,11779607,24,977.2,569.4,4702,NA
57,1,continuous,5,14,trial,11779452.0,11782469.0,3017.0,5,R,11779649,11779797,150,558.4,517.2,4673,left
57,1,continuous,5,14,trial,11779452.0,11782469.0,3017.0,5,R,11779813,11780083,272,489.4,514.4,4370,left
57,1,continuous,5,14,trial,11779452.0,11782469.0,3017.0,5,R,11780107,11780443,338,588.7,527.0,4184,left
57,1,continuous,5,14,trial,11779452.0,11782469.0,3017.0,5,R,11780505,11780803,300,1386.9,560.5,4076,right
57,1,continuous,5,14,trial,11779452.0,11782469.0,3017.0,5,R,11780869,11781041,174,517.4,515.0,4214,left
57,1,continuous,5,14,trial,11779452.0,11782469.0,3017.0,5,R,11781063,11781365,304,596.7,526.7,4135,left
57,1,continuous,5,14,trial,11779452.0,11782469.0,3017.0,5,R,11781399,11781657,260,537.1,407.7,4154,left
57,1,continuous,5,14,trial,11779452.0,11782469.0,3017.0,5,R,11781689,11781825,138,509.5,536.7,4198,left
57,1,continuous,5,14,trial,11779452.0,11782469.0,3017.0,5,R,11781837,11782057,222,476.4,514.8,4193,left
57,1,continuous,5,14,trial,11779452.0,11782469.0,3017.0,5,R,11782065,11782505,442,468.3,493.0,4133,left
57,1,continuous,5,14,postResponse,11779452.0,11782469.0,3017.0,5,R,11782529,11782805,278,580.2,530.5,4157,left
57,1,continuous,6,87,fixationCross,11784385.0,11787302.0,2917.0,6,R,11782879,11783089,212,583.6,526.6,4196,left
57,1,continuous,6,87,fixationCross,11784385.0,11787302.0,2917.0,6,R,11783237,11784075,840,652.9,531.0,4473,left
57,1,continuous,6,87,fixationCross,11784385.0,11787302.0,2917.0,6,R,11784107,11784227,122,869.1,550.0,4439,NA
57,1,continuous,6,87,fixationCross,11784385.0,11787302.0,2917.0,6,R,11784249,11784317,70,962.1,569.0,4451,NA
57,1,continuous,6,87,trial,11784385.0,11787302.0,2917.0,6,R,11784561,11784913,354,638.9,495.9,4401,left
57,1,continuous,6,87,trial,11784385.0,11787302.0,2917.0,6,R,11784971,11785293,324,1395.7,555.8,3982,right
57,1,continuous,6,87,trial,11784385.0,11787302.0,2917.0,6,R,11785309,11785553,246,1451.2,556.2,3927,right
57,1,continuous,6,87,trial,11784385.0,11787302.0,2917.0,6,R,11785577,11785769,194,1519.5,431.8,3890,right
57,1,continuous,6,87,trial,11784385.0,11787302.0,2917.0,6,R,11785795,11785973,180,1454.4,569.2,3914,right
57,1,continuous,6,87,trial,11784385.0,11787302.0,2917.0,6,R,11786249,11786941,694,1310.1,682.5,4119,right
57,1,continuous,6,87,trial,11784385.0,11787302.0,2917.0,6,R,11786967,11787275,310,1275.6,622.3,4071,right
57,1,continuous,6,87,trial,11784385.0,11787302.0,2917.0,6,R,11787325,11787577,254,1448.8,966.9,4127,NA
57,1,continuous,7,17,fixationCross,11788202.0,11790968.0,2766.0,7,R,11787715,11788029,316,1043.0,540.2,4337,NA
57,1,continuous,7,17,trial,11788202.0,11790968.0,2766.0,7,R,11788399,11788545,148,584.3,521.2,4318,left
57,1,continuous,7,17,trial,11788202.0,11790968.0,2766.0,7,R,11788569,11788709,142,549.9,592.9,4226,left
57,1,continuous,7,17,trial,11788202.0,11790968.0,2766.0,7,R,11788729,11788877,150,620.1,600.7,4190,left
57,1,continuous,7,17,trial,11788202.0,11790968.0,2766.0,7,R,11789645,11789901,258,654.3,585.4,4157,left
57,1,continuous,7,17,trial,11788202.0,11790968.0,2766.0,7,R,11789925,11790151,228,527.3,584.2,4205,left
57,1,continuous,7,17,trial,11788202.0,11790968.0,2766.0,7,R,11790637,11791033,398,648.6,592.7,4121,left
57,1,continuous,7,17,postResponse,11788202.0,11790968.0,2766.0,7,R,11791045,11791301,258,676.2,584.6,4130,left
57,1,continuous,8,17,fixationCross,11793019.0,11796419.0,3400.0,8,R,11791401,11791721,322,673.6,592.4,4184,left
57,1,continuous,8,17,trial,11793019.0,11796419.0,3400.0,8,R,11793221,11793611,392,462.0,513.5,4179,left
57,1,continuous,8,17,trial,11793019.0,11796419.0,3400.0,8,R,11793769,11793807,40,1385.6,559.1,3808,right
57,1,continuous,8,17,trial,11793019.0,11796419.0,3400.0,8,R,11793867,11793887,22,1383.7,554.8,3807,right
57,1,continuous,8,17,trial,11793019.0,11796419.0,3400.0,8,R,11793911,11794121,212,1453.0,622.7,3809,right
57,1,continuous,8,17,trial,11793019.0,11796419.0,3400.0,8,R,11794737,11794869,134,549.0,566.2,3955,left
57,1,continuous,8,17,trial,11793019.0,11796419.0,3400.0,8,R,11794889,11795139,252,466.6,531.3,3924,left
57,1,continuous,8,17,trial,11793019.0,11796419.0,3400.0,8,R,11795151,11795515,366,495.9,508.4,3879,left
57,1,continuous,8,17,trial,11793019.0,11796419.0,3400.0,8,R,11795541,11795709,170,463.5,380.1,3840,left
57,1,continuous,8,17,trial,11793019.0,11796419.0,3400.0,8,R,11795721,11796031,312,500.4,366.2,3861,left
57,1,continuous,8,17,trial,11793019.0,11796419.0,3400.0,8,R,11796071,11796189,120,465.6,541.7,3922,left
57,1,continuous,8,17,trial,11793019.0,11796419.0,3400.0,8,R,11796203,11796397,196,426.9,529.7,3955,left
57,1,continuous,8,17,trial,11793019.0,11796419.0,3400.0,8,R,11796435,11796705,272,407.1,404.3,3905,left
57,1,continuous,9,82,fixationCross,11798368.0,11801218.0,2850.0,9,R,11796925,11796945,22,708.8,538.2,4024,left
57,1,continuous,9,82,fixationCross,11798368.0,11801218.0,2850.0,9,R,11796983,11797019,38,711.7,486.2,4108,left
57,1,continuous,9,82,fixationCross,11798368.0,11801218.0,2850.0,9,R,11797033,11797153,122,714.6,536.1,4080,left
57,1,continuous,9,82,fixationCross,11798368.0,11801218.0,2850.0,9,R,11798121,11798147,28,945.4,567.9,4267,NA
57,1,continuous,9,82,fixationCross,11798368.0,11801218.0,2850.0,9,R,11798187,11798331,146,947.2,566.9,4300,NA
57,1,continuous,9,82,trial,11798368.0,11801218.0,2850.0,9,R,11798559,11798701,144,587.3,538.3,4305,left
57,1,continuous,9,82,trial,11798368.0,11801218.0,2850.0,9,R,11798723,11798849,128,545.3,452.2,4165,left
57,1,continuous,9,82,trial,11798368.0,11801218.0,2850.0,9,R,11798869,11799029,162,566.2,410.0,4063,left
57,1,continuous,9,82,trial,11798368.0,11801218.0,2850.0,9,R,11799091,11799257,168,1393.9,365.5,3818,right
57,1,continuous,9,82,trial,11798368.0,11801218.0,2850.0,9,R,11799271,11799585,316,1355.8,394.6,3804,right
57,1,continuous,9,82,trial,11798368.0,11801218.0,2850.0,9,R,11799623,11799975,354,1564.5,678.2,3856,right
57,1,continuous,9,82,trial,11798368.0,11801218.0,2850.0,9,R,11800019,11800191,174,1179.0,885.1,4033,likertHorizontal
57,1,continuous,9,82,trial,11798368.0,11801218.0,2850.0,9,R,11800251,11800469,220,1389.7,489.2,3952,right
57,1,continuous,9,82,trial,11798368.0,11801218.0,2850.0,9,R,11800493,11800559,68,1392.1,491.1,3928,right
57,1,continuous,10,77,fixationCross,11802385.0,11805452.0,3067.0,10,R,11801829,11802103,276,961.5,384.8,4346,NA
57,1,continuous,10,77,trial,11802385.0,11805452.0,3067.0,10,R,11802125,11802521,398,948.3,527.9,4316,NA
57,1,continuous,10,77,trial,11802385.0,11805452.0,3067.0,10,R,11802563,11802757,196,533.7,430.3,4253,left
57,1,continuous,10,77,trial,11802385.0,11805452.0,3067.0,10,R,11802779,11802943,166,426.8,404.0,4097,left
57,1,continuous,10,77,trial,11802385.0,11805452.0,3067.0,10,R,11802959,11803147,190,374.5,415.8,4009,left
57,1,continuous,10,77,trial,11802385.0,11805452.0,3067.0,10,R,11803355,11803449,96,1336.5,560.3,3842,right
57,1,continuous,10,77,trial,11802385.0,11805452.0,3067.0,10,R,11803479,11803503,26,1336.3,571.4,3875,right
57,1,continuous,10,77,trial,11802385.0,11805452.0,3067.0,10,R,11803537,11803893,358,1400.7,354.5,3967,right
57,1,continuous,10,77,trial,11802385.0,11805452.0,3067.0,10,R,11803909,11804103,196,1446.7,370.9,4021,right
57,1,continuous,10,77,trial,11802385.0,11805452.0,3067.0,10,R,11804145,11804375,232,1524.7,654.0,4060,right
57,1,continuous,10,77,trial,11802385.0,11805452.0,3067.0,10,R,11804471,11804529,60,1322.6,605.2,4085,right
57,1,continuous,10,77,trial,11802385.0,11805452.0,3067.0,10,R,11804541,11804699,160,1273.3,593.7,4081,right
57,1,continuous,10,77,trial,11802385.0,11805452.0,3067.0,10,R,11804715,11805047,334,1252.4,625.8,4118,right
57,1,continuous,10,77,trial,11802385.0,11805452.0,3067.0,10,R,11805235,11805363,130,1243.9,625.5,4348,right
57,1,continuous,10,77,trial,11802385.0,11805452.0,3067.0,10,R,11805383,11805541,160,1238.1,615.0,4222,right
57,1,continuous,10,77,postResponse,11802385.0,11805452.0,3067.0,10,R,11805555,11805787,234,1212.7,597.4,4140,right
57,1,continuous,11,20,fixationCross,11806535.0,11809469.0,2934.0,11,R,11805861,11806211,352,1215.0,611.9,4229,right
57,1,continuous,11,20,fixationCross,11806535.0,11809469.0,2934.0,11,R,11806239,11806375,138,1008.8,615.8,4501,NA
57,1,continuous,11,20,trial,11806535.0,11809469.0,2934.0,11,R,11806387,11806673,288,967.0,620.3,4528,NA
57,1,continuous,11,20,trial,11806535.0,11809469.0,2934.0,11,R,11806719,11806957,240,528.5,425.5,4439,left
57,1,continuous,11,20,trial,11806535.0,11809469.0,2934.0,11,R,11806969,11807095,128,534.8,402.1,4221,left
57,1,continuous,11,20,trial,11806535.0,11809469.0,2934.0,11,R,11807161,11807291,132,1393.6,563.1,3967,right
57,1,continuous,11,20,trial,11806535.0,11809469.0,2934.0,11,R,11807311,11807747,438,1442.5,612.4,3868,right
57,1,continuous,11,20,trial,11806535.0,11809469.0,2934.0,11,R,11807813,11807981,170,572.4,463.9,3978,left
57,1,continuous,11,20,trial,11806535.0,11809469.0,2934.0,11,R,11808001,11808321,322,521.4,398.2,3990,left
57,1,continuous,11,20,trial,11806535.0,11809469.0,2934.0,11,R,11808387,11808415,30,648.2,968.4,4172,NA
57,1,continuous,11,20,trial,11806535.0,11809469.0,2934.0,11,R,11808427,11808517,92,669.4,886.2,4278,NA
57,1,continuous,11,20,trial,11806535.0,11809469.0,2934.0,11,R,11808529,11808673,146,675.2,955.0,4256,NA
57,1,continuous,11,20,trial,11806535.0,11809469.0,2934.0,11,R,11808859,11808889,32,665.7,672.6,4243,left
57,1,continuous,11,20,trial,11806535.0,11809469.0,2934.0,11,R,11808927,11809055,130,665.2,674.6,4237,left
57,1,continuous,11,20,trial,11806535.0,11809469.0,2934.0,11,R,11809133,11809255,124,665.4,677.4,4280,left
57,1,continuous,11,20,postResponse,11806535.0,11809469.0,2934.0,11,R,11809349,11809799,452,578.4,466.7,4340,left
57,1,continuous,12,15,fixationCross,11810668.0,11813485.0,2817.0,12,R,11810005,11810013,10,711.7,672.0,4152,left
57,1,continuous,12,15,fixationCross,11810668.0,11813485.0,2817.0,12,R,11810045,11810347,304,717.7,450.2,4476,left
57,1,continuous,12,15,trial,11810668.0,11813485.0,2817.0,12,R,11810381,11810831,452,959.9,586.7,4537,NA
57,1,continuous,12,15,trial,11810668.0,11813485.0,2817.0,12,R,11810877,11811071,196,566.6,475.2,4455,left
57,1,continuous,12,15,trial,11810668.0,11813485.0,2817.0,12,R,11811095,11811183,90,469.7,464.8,4254,left
57,1,continuous,12,15,trial,11810668.0,11813485.0,2817.0,12,R,11811245,11811391,148,1369.6,547.9,4004,right
57,1,continuous,12,15,trial,11810668.0,11813485.0,2817.0,12,R,11811413,11811457,46,1438.7,491.5,3961,right
57,1,continuous,12,15,trial,11810668.0,11813485.0,2817.0,12,R,11811477,11811565,90,1435.5,493.3,3949,right
57,1,continuous,12,15,trial,11810668.0,11813485.0,2817.0,12,R,11811583,11811607,26,1457.3,445.1,3931,right
57,1,continuous,12,15,trial,11810668.0,11813485.0,2817.0,12,R,11811633,11811749,118,1543.9,394.7,3896,right
57,1,continuous,12,15,trial,11810668.0,11813485.0,2817.0,12,R,11811757,11811959,204,1518.0,394.8,3848,right
57,1,continuous,12,15,trial,11810668.0,11813485.0,2817.0,12,R,11812031,11812453,424,529.1,497.2,4100,left
57,1,continuous,12,15,trial,11810668.0,11813485.0,2817.0,12,R,11812795,11813333,540,650.7,923.9,4211,NA
57,1,continuous,13,85,fixationCross,11814602.0,11816769.0,2167.0,13,R,11813947,11813967,22,567.8,737.4,3915,NA
57,1,continuous,13,85,fixationCross,11814602.0,11816769.0,2167.0,13,R,11813991,11814277,288,594.5,538.9,4416,left
57,1,continuous,13,85,fixationCross,11814602.0,11816769.0,2167.0,13,R,11814317,11814455,140,885.6,541.0,4423,NA
57,1,continuous,13,85,trial,11814602.0,11816769.0,2167.0,13,R,11814475,11814747,274,970.1,564.0,4342,NA
57,1,continuous,13,85,trial,11814602.0,11816769.0,2167.0,13,R,11814789,11815087,300,581.2,582.5,4380,left
57,1,continuous,13,85,trial,11814602.0,11816769.0,2167.0,13,R,11815117,11815275,160,381.0,528.4,4178,left
57,1,continuous,13,85,trial,11814602.0,11816769.0,2167.0,13,R,11815343,11815493,152,1405.4,432.0,3948,right
57,1,continuous,13,85,trial,11814602.0,11816769.0,2167.0,13,R,11815507,11816243,738,1443.0,444.6,3941,right
57,1,continuous,13,85,trial,11814602.0,11816769.0,2167.0,13,R,11816271,11816535,266,1343.6,619.7,4104,right
57,1,continuous,13,85,trial,11814602.0,11816769.0,2167.0,13,R,11816555,11816817,264,1246.9,608.3,4197,right
57,1,continuous,13,85,postResponse,11814602.0,11816769.0,2167.0,13,R,11816849,11817101,254,1423.1,466.9,4202,right
57,1,continuous,14,1,fixationCross,11817885.0,11820286.0,2401.0,14,R,11817175,11817215,42,1417.2,463.7,4159,right
57,1,continuous,14,1,fixationCross,11817885.0,11820286.0,2401.0,14,R,11817605,11817721,118,987.7,526.8,4593,NA
57,1,continuous,14,1,trial,11817885.0,11820286.0,2401.0,14,R,11817731,11818029,300,969.1,563.5,4504,NA
57,1,continuous,14,1,trial,11817885.0,11820286.0,2401.0,14,R,11818075,11818363,290,540.0,531.6,4292,left
57,1,continuous,14,1,trial,11817885.0,11820286.0,2401.0,14,R,11818387,11818527,142,453.0,433.6,4077,left
57,1,continuous,14,1,trial,11817885.0,11820286.0,2401.0,14,R,11818589,11818983,396,1371.0,397.9,3857,right
57,1,continuous,14,1,trial,11817885.0,11820286.0,2401.0,14,R,11819295,11819579,286,527.9,1003.2,4305,NA
57,1,continuous,14,1,trial,11817885.0,11820286.0,2401.0,14,R,11819817,11820035,220,515.7,927.5,4278,NA
57,1,continuous,14,1,trial,11817885.0,11820286.0,2401.0,14,R,11820057,11820301,246,502.0,992.4,4385,NA
57,1,continuous,15,84,fixationCross,11821169.0,11824486.0,3317.0,15,R,11820871,11821057,188,909.8,509.6,4515,NA
57,1,continuous,15,84,fixationCross,11821169.0,11824486.0,3317.0,15,R,11821077,11821101,26,982.7,526.8,4583,NA
57,1,continuous,15,84,trial,11821169.0,11824486.0,3317.0,15,R,11821423,11821569,148,556.8,521.7,4612,left
57,1,continuous,15,84,trial,11821169.0,11824486.0,3317.0,15,R,11821761,11821799,40,516.7,458.9,4375,left
57,1,continuous,15,84,trial,11821169.0,11824486.0,3317.0,15,R,11821813,11821927,116,520.9,535.6,4139,left
57,1,continuous,15,84,trial,11821169.0,11824486.0,3317.0,15,R,11821937,11822047,112,499.9,539.5,4097,left
57,1,continuous,15,84,trial,11821169.0,11824486.0,3317.0,15,R,11822109,11822443,336,1298.4,584.4,3782,right
57,1,continuous,15,84,trial,11821169.0,11824486.0,3317.0,15,R,11822469,11822841,374,1305.8,442.8,3677,right
57,1,continuous,15,84,trial,11821169.0,11824486.0,3317.0,15,R,11822901,11823355,456,559.4,485.9,3918,left
57,1,continuous,15,84,trial,11821169.0,11824486.0,3317.0,15,R,11823443,11823583,142,1152.2,687.2,3981,NA
57,1,continuous,15,84,trial,11821169.0,11824486.0,3317.0,15,R,11823877,11824065,190,1353.2,638.0,4016,right
57,1,continuous,15,84,trial,11821169.0,11824486.0,3317.0,15,R,11824115,11824259,146,1329.3,913.1,4049,NA
57,1,continuous,15,84,trial,11821169.0,11824486.0,3317.0,15,R,11824279,11824379,102,1308.7,972.7,4064,NA
57,1,continuous,15,84,postResponse,11821169.0,11824486.0,3317.0,15,R,11824425,11824819,396,1600.5,673.9,3889,right
57,1,continuous,16,90,fixationCross,11825635.0,11828586.0,2951.0,16,R,11824919,11825101,184,1591.0,672.0,3896,right
57,1,continuous,16,90,fixationCross,11825635.0,11828586.0,2951.0,16,R,11825273,11825375,104,789.7,471.0,4490,NA
57,1,continuous,16,90,fixationCross,11825635.0,11828586.0,2951.0,16,R,11825403,11825561,160,932.4,501.1,4489,NA
57,1,continuous,16,90,trial,11825635.0,11828586.0,2951.0,16,R,11825569,11825763,196,957.8,526.5,4498,NA
57,1,continuous,16,90,trial,11825635.0,11828586.0,2951.0,16,R,11825807,11825875,70,579.6,505.4,4472,left
57,1,continuous,16,90,trial,11825635.0,11828586.0,2951.0,16,R,11826071,11826257,188,467.1,465.7,4316,left
57,1,continuous,16,90,trial,11825635.0,11828586.0,2951.0,16,R,11826277,11826479,204,424.3,560.9,4174,left
57,1,continuous,16,90,trial,11825635.0,11828586.0,2951.0,16,R,11826545,11826783,240,1351.7,530.6,3863,right
57,1,continuous,16,90,trial,11825635.0,11828586.0,2951.0,16,R,11826827,11827021,196,1428.3,627.4,3824,right
57,1,continuous,16,90,trial,11825635.0,11828586.0,2951.0,16,R,11827049,11827405,358,1578.9,617.4,3885,right
57,1,continuous,16,90,trial,11825635.0,11828586.0,2951.0,16,R,11827431,11827597,168,1423.0,635.2,3946,right
57,1,continuous,16,90,trial,11825635.0,11828586.0,2951.0,16,R,11827647,11827825,180,1192.3,877.5,4171,NA
57,1,continuous,16,90,trial,11825635.0,11828586.0,2951.0,16,R,11827865,11828327,464,1252.7,674.1,4205,right
57,1,continuous,16,90,trial,11825635.0,11828586.0,2951.0,16,R,11828351,11828781,432,1264.2,596.3,4203,right
57,1,continuous,17,86,fixationCross,11829486.0,11832385.0,2899.0,17,R,11829141,11829141,2,1079.3,391.3,4595,NA
57,1,continuous,17,86,fixationCross,11829486.0,11832385.0,2899.0,17,R,11829153,11829355,204,1033.9,528.1,4471,NA
57,1,continuous,17,86,trial,11829486.0,11832385.0,2899.0,17,R,11829371,11829615,246,967.7,538.3,4537,NA
57,1,continuous,17,86,trial,11829486.0,11832385.0,2899.0,17,R,11829659,11829771,114,578.8,512.4,4452,left
57,1,continuous,17,86,trial,11829486.0,11832385.0,2899.0,17,R,11829801,11829927,128,408.2,549.5,4363,left
57,1,continuous,17,86,trial,11829486.0,11832385.0,2899.0,17,R,11829995,11830237,244,1396.5,495.9,4122,right
57,1,continuous,17,86,trial,11829486.0,11832385.0,2899.0,17,R,11830249,11830553,306,1360.5,493.1,4094,right
57,1,continuous,17,86,trial,11829486.0,11832385.0,2899.0,17,R,11830585,11830869,286,1556.4,647.5,4171,right
57,1,continuous,17,86,trial,11829486.0,11832385.0,2899.0,17,R,11830881,11831299,420,1529.5,637.3,4149,right
57,1,continuous,17,86,trial,11829486.0,11832385.0,2899.0,17,R,11831853,11831961,110,1337.3,556.3,4531,right
57,1,continuous,17,86,trial,11829486.0,11832385.0,2899.0,17,R,11832029,11832323,296,397.9,591.5,4582,left
57,1,continuous,17,86,postResponse,11829486.0,11832385.0,2899.0,17,R,11832337,11832719,384,411.1,581.1,4187,left
57,1,continuous,18,9,fixationCross,11833402.0,11836435.0,3033.0,18,R,11833059,11833159,102,866.0,434.4,4216,NA
57,1,continuous,18,9,trial,11833402.0,11836435.0,3033.0,18,R,11833183,11833543,362,963.0,529.0,4304,NA
57,1,continuous,18,9,trial,11833402.0,11836435.0,3033.0,18,R,11833587,11833747,162,527.9,486.5,4333,left
57,1,continuous,18,9,trial,11833402.0,11836435.0,3033.0,18,R,11833767,11833971,206,597.3,452.5,4171,left
57,1,continuous,18,9,trial,11833402.0,11836435.0,3033.0,18,R,11833989,11834057,70,619.4,457.7,4064,left
57,1,continuous,18,9,trial,11833402.0,11836435.0,3033.0,18,R,11834119,11834389,272,1468.4,547.5,3867,right
57,1,continuous,18,9,trial,11833402.0,11836435.0,3033.0,18,R,11834401,11834659,260,1467.0,526.8,3910,right
57,1,continuous,18,9,trial,11833402.0,11836435.0,3033.0,18,R,11834683,11834913,232,1471.2,636.4,3936,right
57,1,continuous,18,9,trial,11833402.0,11836435.0,3033.0,18,R,11834983,11835005,24,575.9,406.1,4324,left
57,1,continuous,18,9,trial,11833402.0,11836435.0,3033.0,18,R,11835021,11835193,174,590.6,486.2,4135,left
57,1,continuous,18,9,trial,11833402.0,11836435.0,3033.0,18,R,11835203,11835481,280,621.9,478.2,4092,left
57,1,continuous,18,9,trial,11833402.0,11836435.0,3033.0,18,R,11835547,11835675,130,613.2,784.0,4180,NA
57,1,continuous,18,9,trial,11833402.0,11836435.0,3033.0,18,R,11835687,11835895,210,616.6,872.5,4097,NA
57,1,continuous,18,9,trial,11833402.0,11836435.0,3033.0,18,R,11835971,11836251,282,561.0,546.7,4154,left
57,1,continuous,18,9,trial,11833402.0,11836435.0,3033.0,18,R,11836273,11836653,382,609.4,489.7,4106,left
57,1,continuous,19,87,fixationCross,11837502.0,11840485.0,2983.0,19,R,11836959,11837177,220,650.7,452.1,4241,left
57,1,continuous,19,87,fixationCross,11837502.0,11840485.0,2983.0,19,R,11837213,11837359,148,906.1,517.1,4320,NA
57,1,continuous,19,87,trial,11837502.0,11840485.0,2983.0,19,R,11837375,11837625,252,958.7,549.5,4244,NA
57,1,continuous,19,87,trial,11837502.0,11840485.0,2983.0,19,R,11837669,11837821,154,550.6,467.2,4313,left
57,1,continuous,19,87,trial,11837502.0,11840485.0,2983.0,19,R,11837835,11837991,158,512.6,476.5,4185,left
57,1,continuous,19,87,trial,11837502.0,11840485.0,2983.0,19,R,11838005,11838185,182,518.5,439.5,4032,left
57,1,continuous,19,87,trial,11837502.0,11840485.0,2983.0,19,R,11838249,11838497,250,1368.4,611.5,3841,right
57,1,continuous,19,87,trial,11837502.0,11840485.0,2983.0,19,R,11838529,11838863,336,1437.1,423.5,3829,right
57,1,continuous,19,87,trial,11837502.0,11840485.0,2983.0,19,R,11839077,11839129,54,515.1,356.0,4191,left
57,1,continuous,19,87,trial,11837502.0,11840485.0,2983.0,19,R,11839147,11839199,54,509.2,451.8,4036,left
57,1,continuous,19,87,trial,11837502.0,11840485.0,2983.0,19,R,11839209,11839585,378,540.0,440.1,4090,left
57,1,continuous,19,87,trial,11837502.0,11840485.0,2983.0,19,R,11839657,11839933,278,1299.9,861.1,3927,NA
57,1,continuous,19,87,postResponse,11837502.0,11840485.0,2983.0,19,R,11839977,11840819,844,1340.5,635.1,4051,right
57,1,continuous,20,9,fixationCross,11841386.0,11844636.0,3250.0,20,R,11840895,11840971,78,1338.3,622.6,3933,right
57,1,continuous,20,9,fixationCross,11841386.0,11844636.0,3250.0,20,R,11841009,11841029,22,1093.9,535.5,4130,NA
57,1,continuous,20,9,fixationCross,11841386.0,11844636.0,3250.0,20,R,11841101,11841283,184,981.0,463.5,4225,NA
57,1,continuous,20,9,trial,11841386.0,11844636.0,3250.0,20,R,11841303,11841513,212,949.9,562.9,4266,NA
57,1,continuous,20,9,trial,11841386.0,11844636.0,3250.0,20,R,11841559,11841697,140,558.1,486.0,4389,left
57,1,continuous,20,9,trial,11841386.0,11844636.0,3250.0,20,R,11841725,11841919,196,405.2,511.1,4154,left
57,1,continuous,20,9,trial,11841386.0,11844636.0,3250.0,20,R,11841987,11842295,310,1342.4,553.1,3759,right
57,1,continuous,20,9,trial,11841386.0,11844636.0,3250.0,20,R,11842315,11842455,142,1427.9,521.0,3702,right
57,1,continuous,20,9,trial,11841386.0,11844636.0,3250.0,20,R,11842485,11842711,228,1553.8,629.5,3733,right
57,1,continuous,20,9,trial,11841386.0,11844636.0,3250.0,20,R,11842879,11842949,72,546.3,406.3,4150,left
57,1,continuous,20,9,trial,11841386.0,11844636.0,3250.0,20,R,11842963,11843073,112,539.5,491.0,4040,left
57,1,continuous,20,9,trial,11841386.0,11844636.0,3250.0,20,R,11843089,11843337,250,513.6,449.4,4093,left
57,1,continuous,20,9,trial,11841386.0,11844636.0,3250.0,20,R,11843377,11843499,124,556.1,733.2,4092,NA
57,1,continuous,20,9,trial,11841386.0,11844636.0,3250.0,20,R,11843541,11843715,176,605.0,946.6,4089,NA
57,1,continuous,20,9,trial,11841386.0,11844636.0,3250.0,20,R,11843783,11843953,172,634.7,493.0,4022,left
57,1,continuous,20,9,trial,11841386.0,11844636.0,3250.0,20,R,11843981,11844177,198,538.8,583.8,4020,left
57,1,continuous,20,9,trial,11841386.0,11844636.0,3250.0,20,R,11844305,11844431,128,561.9,906.4,4281,NA
57,1,continuous,20,9,trial,11841386.0,11844636.0,3250.0,20,R,11844441,11844653,214,568.1,909.9,4312,NA
57,1,continuous,20,9,postResponse,11841386.0,11844636.0,3250.0,20,R,11844715,11844969,256,617.6,477.2,4122,left
57,1,continuous,21,14,fixationCross,11845602.0,11849485.0,3883.0,21,R,11845043,11845277,236,618.9,514.7,4078,left
57,1,continuous,21,14,fixationCross,11845602.0,11849485.0,3883.0,21,R,11845319,11845511,194,878.9,504.1,4124,NA
57,1,continuous,21,14,trial,11845602.0,11849485.0,3883.0,21,R,11845533,11845761,230,963.6,551.1,4196,NA
57,1,continuous,21,14,trial,11845602.0,11849485.0,3883.0,21,R,11845805,11845963,160,586.8,537.0,4315,left
57,1,continuous,21,14,trial,11845602.0,11849485.0,3883.0,21,R,11846131,11846215,86,596.1,412.0,4227,left
57,1,continuous,21,14,trial,11845602.0,11849485.0,3883.0,21,R,11846231,11846599,370,609.2,490.3,4063,left
57,1,continuous,21,14,trial,11845602.0,11849485.0,3883.0,21,R,11846621,11846735,116,515.9,517.5,3964,left
57,1,continuous,21,14,trial,11845602.0,11849485.0,3883.0,21,R,11846763,11846887,126,356.7,512.5,3928,left
57,1,continuous,21,14,trial,11845602.0,11849485.0,3883.0,21,R,11846959,11847221,264,1357.5,494.5,3821,right
57,1,continuous,21,14,trial,11845602.0,11849485.0,3883.0,21,R,11847249,11847493,246,1402.3,315.4,3841,NA
57,1,continuous,21,14,trial,11845602.0,11849485.0,3883.0,21,R,11847525,11847813,290,1335.7,505.8,3826,right
57,1,continuous,21,14,trial,11845602.0,11849485.0,3883.0,21,R,11847847,11847965,120,1512.3,533.5,3807,right
57,1,continuous,21,14,trial,11845602.0,11849485.0,3883.0,21,R,11848165,11848321,158,544.7,448.6,4007,left
57,1,continuous,21,14,trial,11845602.0,11849485.0,3883.0,21,R,11848337,11848567,232,597.0,477.4,4000,left
57,1,continuous,21,14,trial,11845602.0,11849485.0,3883.0,21,R,11848705,11848811,108,638.6,886.7,4219,NA
57,1,continuous,21,14,trial,11845602.0,11849485.0,3883.0,21,R,11849107,11849223,118,736.7,673.3,4209,left
57,1,continuous,21,14,trial,11845602.0,11849485.0,3883.0,21,R,11849261,11849485,226,484.4,640.0,4224,left
57,1,continuous,21,14,trial,11845602.0,11849485.0,3883.0,21,R,11849517,11849791,276,564.0,528.3,4106,left
57,1,continuous,22,89,fixationCross,11850569.0,11853719.0,3150.0,22,R,11850063,11850245,184,663.9,394.0,4178,left
57,1,continuous,22,89,fixationCross,11850569.0,11853719.0,3150.0,22,R,11850273,11850429,158,911.9,483.3,4232,NA
57,1,continuous,22,89,trial,11850569.0,11853719.0,3150.0,22,R,11850443,11850721,280,962.7,522.1,4189,NA
57,1,continuous,22,89,trial,11850569.0,11853719.0,3150.0,22,R,11850773,11850915,144,562.3,436.8,4205,left
57,1,continuous,22,89,trial,11850569.0,11853719.0,3150.0,22,R,11850943,11851079,138,446.3,556.8,4100,left
57,1,continuous,22,89,trial,11850569.0,11853719.0,3150.0,22,R,11851107,11851459,354,586.0,400.2,3973,left
57,1,continuous,22,89,trial,11850569.0,11853719.0,3150.0,22,R,11851517,11851685,170,1301.3,452.7,3772,right
57,1,continuous,22,89,trial,11850569.0,11853719.0,3150.0,22,R,11851709,11851917,210,1291.1,340.5,3807,NA
57,1,continuous,22,89,trial,11850569.0,11853719.0,3150.0,22,R,11852113,11852149,38,1512.4,592.1,4110,right
57,1,continuous,22,89,trial,11850569.0,11853719.0,3150.0,22,R,11852159,11852311,154,1507.9,664.9,3864,right
57,1,continuous,22,89,trial,11850569.0,11853719.0,3150.0,22,R,11852331,11852673,344,1448.2,618.9,3881,right
57,1,continuous,22,89,trial,11850569.0,11853719.0,3150.0,22,R,11852689,11853091,404,1399.7,645.1,3818,right
57,1,continuous,22,89,trial,11850569.0,11853719.0,3150.0,22,R,11853263,11853341,80,1331.9,912.0,4049,NA
57,1,continuous,22,89,trial,11850569.0,11853719.0,3150.0,22,R,11853607,11853683,78,1293.5,502.6,3916,right
57,1,continuous,22,89,postResponse,11850569.0,11853719.0,3150.0,22,R,11853699,11854053,356,1270.5,482.0,3869,right
57,1,continuous,23,9,fixationCross,11854652.0,11858986.0,4334.0,23,R,11854127,11854217,92,1267.6,485.4,3752,right
57,1,continuous,23,9,fixationCross,11854652.0,11858986.0,4334.0,23,R,11854355,11854425,72,984.5,436.1,4073,NA
57,1,continuous,23,9,fixationCross,11854652.0,11858986.0,4334.0,23,R,11854443,11854501,60,982.1,497.7,3976,NA
57,1,continuous,23,9,trial,11854652.0,11858986.0,4334.0,23,R,11854515,11854793,280,953.2,525.2,4159,NA
57,1,continuous,23,9,trial,11854652.0,11858986.0,4334.0,23,R,11854841,11854923,84,534.1,445.1,4344,left
57,1,continuous,23,9,trial,11854652.0,11858986.0,4334.0,23,R,11855091,11855131,42,535.3,340.4,4230,NA
57,1,continuous,23,9,trial,11854652.0,11858986.0,4334.0,23,R,11855155,11855265,112,529.3,430.8,4010,left
57,1,continuous,23,9,trial,11854652.0,11858986.0,4334.0,23,R,11855281,11855587,308,582.0,430.5,4023,left
57,1,continuous,23,9,trial,11854652.0,11858986.0,4334.0,23,R,11855773,11855819,48,514.5,342.1,4057,NA
57,1,continuous,23,9,trial,11854652.0,11858986.0,4334.0,23,R,11855839,11855875,38,510.6,428.8,3888,left
57,1,continuous,23,9,trial,11854652.0,11858986.0,4334.0,23,R,11855897,11856223,328,599.8,415.1,3956,left
57,1,continuous,23,9,trial,11854652.0,11858986.0,4334.0,23,R,11856243,11856297,56,543.9,456.6,3913,left
57,1,continuous,23,9,trial,11854652.0,11858986.0,4334.0,23,R,11856359,11856705,348,1396.7,504.6,3770,right
57,1,continuous,23,9,trial,11854652.0,11858986.0,4334.0,23,R,11856767,11857113,348,596.1,474.0,3900,left
57,1,continuous,23,9,trial,11854652.0,11858986.0,4334.0,23,R,11857121,11857213,94,562.5,482.6,3894,left
57,1,continuous,23,9,trial,11854652.0,11858986.0,4334.0,23,R,11857469,11857599,132,596.2,690.4,4140,left
57,1,continuous,23,9,trial,11854652.0,11858986.0,4334.0,23,R,11857651,11857957,308,578.6,398.4,4124,left
57,1,continuous,23,9,trial,11854652.0,11858986.0,4334.0,23,R,11857971,11858157,188,594.8,441.7,4077,left
57,1,continuous,23,9,trial,11854652.0,11858986.0,4334.0,23,R,11858257,11858291,36,564.0,878.1,4127,NA
57,1,continuous,23,9,trial,11854652.0,11858986.0,4334.0,23,R,11858303,11858445,144,573.2,824.5,4188,NA
57,1,continuous,23,9,postResponse,11854652.0,11858986.0,4334.0,23,R,11858723,11859319,598,589.5,463.7,4148,left
57,1,continuous,24,87,fixationCross,11861219.0,11864169.0,2950.0,24,R,11859395,11859719,326,621.8,388.7,4040,left
57,1,continuous,24,87,fixationCross,11861219.0,11864169.0,2950.0,24,R,11859747,11860261,516,860.2,491.1,4243,NA
57,1,continuous,24,87,fixationCross,11861219.0,11864169.0,2950.0,24,R,11860289,11860707,420,662.3,465.2,4317,left
57,1,continuous,24,87,fixationCross,11861219.0,11864169.0,2950.0,24,R,11860963,11861037,76,929.0,463.1,4337,NA
57,1,continuous,24,87,trial,11861219.0,11864169.0,2950.0,24,R,11861051,11861379,330,968.1,527.7,4352,NA
57,1,continuous,24,87,trial,11861219.0,11864169.0,2950.0,24,R,11861423,11861937,516,549.9,577.0,4146,left
57,1,continuous,24,87,trial,11861219.0,11864169.0,2950.0,24,R,11861999,11862215,218,1362.8,612.0,3965,right
57,1,continuous,24,87,trial,11861219.0,11864169.0,2950.0,24,R,11862243,11862485,244,1329.2,428.0,3912,right
57,1,continuous,24,87,trial,11861219.0,11864169.0,2950.0,24,R,11862515,11862685,172,1506.9,472.9,3807,right
57,1,continuous,24,87,trial,11861219.0,11864169.0,2950.0,24,R,11862707,11863067,362,1563.1,400.4,3826,right
57,1,continuous,24,87,trial,11861219.0,11864169.0,2950.0,24,R,11863439,11863601,164,1304.3,916.4,4137,NA
57,1,continuous,24,87,trial,11861219.0,11864169.0,2950.0,24,R,11863667,11863847,182,1290.6,602.8,4084,right
57,1,continuous,24,87,trial,11861219.0,11864169.0,2950.0,24,R,11863869,11864105,238,1390.9,658.1,3953,right
57,1,continuous,24,87,trial,11861219.0,11864169.0,2950.0,24,R,11864125,11864451,328,1459.6,637.2,3793,right
57,1,continuous,25,88,fixationCross,11865336.0,11869352.0,4016.0,25,R,11864765,11865027,264,925.3,382.7,4169,NA
57,1,continuous,25,88,trial,11865336.0,11869352.0,4016.0,25,R,11865053,11865471,420,967.7,525.6,4218,NA
57,1,continuous,25,88,trial,11865336.0,11869352.0,4016.0,25,R,11865515,11865629,116,579.3,524.3,4247,left
57,1,continuous,25,88,trial,11865336.0,11869352.0,4016.0,25,R,11865665,11865951,288,376.3,441.8,4004,left
57,1,continuous,25,88,trial,11865336.0,11869352.0,4016.0,25,R,11866169,11866241,74,367.0,365.9,3979,left
57,1,continuous,25,88,trial,11865336.0,11869352.0,4016.0,25,R,11866317,11866453,138,1400.1,520.1,3847,right
57,1,continuous,25,88,trial,11865336.0,11869352.0,4016.0,25,R,11866475,11866679,206,1492.8,485.8,3901,right
57,1,continuous,25,88,trial,11865336.0,11869352.0,4016.0,25,R,11866699,11866883,186,1530.6,509.3,3834,right
57,1,continuous,25,88,trial,11865336.0,11869352.0,4016.0,25,R,11866913,11867279,368,1474.8,678.2,3793,right
57,1,continuous,25,88,trial,11865336.0,11869352.0,4016.0,25,R,11867339,11867509,172,697.9,563.8,3926,left
57,1,continuous,25,88,trial,11865336.0,11869352.0,4016.0,25,R,11867519,11867743,226,669.7,575.6,3893,left
57,1,continuous,25,88,trial,11865336.0,11869352.0,4016.0,25,R,11867929,11867971,44,378.4,335.6,4015,NA
57,1,continuous,25,88,trial,11865336.0,11869352.0,4016.0,25,R,11867985,11868107,124,368.6,426.6,3812,left
57,1,continuous,25,88,trial,11865336.0,11869352.0,4016.0,25,R,11868173,11868529,358,1258.0,597.2,3813,right
57,1,continuous,25,88,trial,11865336.0,11869352.0,4016.0,25,R,11868555,11868747,194,1331.2,662.2,3813,right
57,1,continuous,25,88,trial,11865336.0,11869352.0,4016.0,25,R,11868801,11868977,178,1348.6,948.5,3908,NA
57,1,continuous,25,88,trial,11865336.0,11869352.0,4016.0,25,R,11869041,11869529,490,1485.4,476.7,3763,right
57,1,continuous,26,13,fixationCross,11954287.0,11957570.0,3283.0,26,R,11953809,11954009,202,909.8,380.2,3710,NA
57,1,continuous,26,13,trial,11954287.0,11957570.0,3283.0,26,R,11954039,11954529,492,976.4,538.6,4075,NA
57,1,continuous,26,13,trial,11954287.0,11957570.0,3283.0,26,R,11954573,11954739,168,524.9,500.1,4024,left
57,1,continuous,26,13,trial,11954287.0,11957570.0,3283.0,26,R,11954759,11955107,350,512.0,439.0,3891,left
57,1,continuous,26,13,trial,11954287.0,11957570.0,3283.0,26,R,11955287,11955495,210,1299.6,453.6,3792,right
57,1,continuous,26,13,trial,11954287.0,11957570.0,3283.0,26,R,11955507,11955655,150,1314.9,475.4,3877,right
57,1,continuous,26,13,trial,11954287.0,11957570.0,3283.0,26,R,11955713,11955943,232,515.3,471.3,3863,left
57,1,continuous,26,13,trial,11954287.0,11957570.0,3283.0,26,R,11955955,11956167,214,506.8,448.6,3722,left
57,1,continuous,26,13,trial,11954287.0,11957570.0,3283.0,26,R,11956227,11956611,386,1313.3,468.7,3637,right
57,1,continuous,26,13,trial,11954287.0,11957570.0,3283.0,26,R,11956621,11956773,154,1313.0,453.3,3682,right
57,1,continuous,26,13,trial,11954287.0,11957570.0,3283.0,26,R,11956845,11956947,104,606.1,885.0,3804,NA
57,1,continuous,26,13,trial,11954287.0,11957570.0,3283.0,26,R,11956985,11957315,332,462.4,656.6,3867,left
57,1,continuous,26,13,trial,11954287.0,11957570.0,3283.0,26,R,11957491,11957559,70,490.6,718.0,3935,left
57,1,continuous,26,13,postResponse,11954287.0,11957570.0,3283.0,26,R,11957601,11957915,316,540.2,467.8,3919,left
57,1,continuous,27,18,fixationCross,11958687.0,11960803.0,2116.0,27,R,11958135,11958359,226,767.4,579.3,3840,NA
57,1,continuous,27,18,trial,11958687.0,11960803.0,2116.0,27,R,11958389,11958855,468,977.0,573.3,4100,NA
57,1,continuous,27,18,trial,11958687.0,11960803.0,2116.0,27,R,11958869,11958893,26,934.8,548.1,4062,NA
57,1,continuous,27,18,trial,11958687.0,11960803.0,2116.0,27,R,11958933,11959131,200,542.3,620.1,4035,left
57,1,continuous,27,18,trial,11958687.0,11960803.0,2116.0,27,R,11959155,11959409,256,459.2,677.0,3963,left
57,1,continuous,27,18,trial,11958687.0,11960803.0,2116.0,27,R,11959473,11959737,266,1412.5,478.1,3675,right
57,1,continuous,27,18,trial,11958687.0,11960803.0,2116.0,27,R,11959759,11960011,254,1496.2,482.2,3633,right
57,1,continuous,27,18,trial,11958687.0,11960803.0,2116.0,27,R,11960085,11960175,92,597.6,807.9,3869,NA
57,1,continuous,27,18,trial,11958687.0,11960803.0,2116.0,27,R,11960211,11960565,356,471.4,654.0,3878,left
57,1,continuous,27,18,trial,11958687.0,11960803.0,2116.0,27,R,11960611,11960793,184,664.2,955.3,3834,NA
57,1,continuous,27,18,postResponse,11958687.0,11960803.0,2116.0,27,R,11960837,11961137,302,677.8,534.6,3806,left
57,1,continuous,28,4,fixationCross,11961920.0,11964387.0,2467.0,28,R,11961211,11961515,306,680.0,535.7,3863,left
57,1,continuous,28,4,trial,11961920.0,11964387.0,2467.0,28,R,11961647,11962075,430,976.3,570.2,4057,NA
57,1,continuous,28,4,trial,11961920.0,11964387.0,2467.0,28,R,11962123,11962327,206,480.7,549.4,4022,left
57,1,continuous,28,4,trial,11961920.0,11964387.0,2467.0,28,R,11962347,11962805,460,520.0,481.1,3732,left
57,1,continuous,28,4,trial,11961920.0,11964387.0,2467.0,28,R,11962867,11963015,150,1447.5,490.0,3520,right
57,1,continuous,28,4,trial,11961920.0,11964387.0,2467.0,28,R,11963033,11963153,122,1503.2,489.9,3509,right
57,1,continuous,28,4,trial,11961920.0,11964387.0,2467.0,28,R,11963179,11963361,184,1389.6,547.9,3558,right
57,1,continuous,28,4,trial,11961920.0,11964387.0,2467.0,28,R,11963427,11963697,272,438.1,617.5,3796,left
57,1,continuous,28,4,trial,11961920.0,11964387.0,2467.0,28,R,11963719,11963987,270,482.7,560.1,3680,left
57,1,continuous,28,4,trial,11961920.0,11964387.0,2467.0,28,R,11964035,11964201,168,551.3,877.8,3646,NA
57,1,continuous,28,4,trial,11961920.0,11964387.0,2467.0,28,R,11964223,11964599,378,523.4,945.9,3785,NA
57,1,continuous,29,87,fixationCross,11965437.0,11972070.0,6633.0,29,R,11964811,11965139,330,657.8,440.5,3953,left
57,1,continuous,29,87,fixationCross,11965437.0,11972070.0,6633.0,29,R,11965171,11965303,134,945.0,540.4,3993,NA
57,1,continuous,29,87,trial,11965437.0,11972070.0,6633.0,29,R,11965317,11965571,256,966.7,567.7,3951,NA
57,1,continuous,29,87,trial,11965437.0,11972070.0,6633.0,29,R,11965613,11965865,254,540.7,503.4,3903,left
57,1,continuous,29,87,trial,11965437.0,11972070.0,6633.0,29,R,11965885,11966093,210,459.1,503.0,3712,left
57,1,continuous,29,87,trial,11965437.0,11972070.0,6633.0,29,R,11966155,11966365,212,1364.0,456.9,3431,right
57,1,continuous,29,87,trial,11965437.0,11972070.0,6633.0,29,R,11966375,11966781,408,1385.0,441.3,3424,right
57,1,continuous,29,87,trial,11965437.0,11972070.0,6633.0,29,R,11966989,11967171,184,1389.0,413.7,3510,right
57,1,continuous,29,87,trial,11965437.0,11972070.0,6633.0,29,R,11967243,11967487,246,437.9,517.7,3746,left
57,1,continuous,29,87,trial,11965437.0,11972070.0,6633.0,29,R,11967509,11967901,394,504.1,485.1,3506,left
57,1,continuous,29,87,trial,11965437.0,11972070.0,6633.0,29,R,11967967,11968201,236,1388.1,479.2,3283,right
57,1,continuous,29,87,trial,11965437.0,11972070.0,6633.0,29,R,11968223,11968517,296,1366.6,552.2,3499,right
57,1,continuous,29,87,trial,11965437.0,11972070.0,6633.0,29,R,11968799,11969011,214,503.3,692.9,3854,left
57,1,continuous,29,87,trial,11965437.0,11972070.0,6633.0,29,R,11969053,11969253,202,525.7,565.4,3806,left
57,1,continuous,29,87,trial,11965437.0,11972070.0,6633.0,29,R,11969317,11969771,456,1391.3,527.7,3503,right
57,1,continuous,29,87,trial,11965437.0,11972070.0,6633.0,29,R,11969791,11969997,208,1342.5,576.8,3691,right
57,1,continuous,29,87,trial,11965437.0,11972070.0,6633.0,29,R,11970051,11970237,188,1326.4,932.6,3799,NA
57,1,continuous,29,87,trial,11965437.0,11972070.0,6633.0,29,R,11970429,11970815,388,1501.4,402.4,3785,right
57,1,continuous,29,87,trial,11965437.0,11972070.0,6633.0,29,R,11970841,11971197,358,1382.1,439.3,3623,right
57,1,continuous,29,87,trial,11965437.0,11972070.0,6633.0,29,R,11971215,11971721,508,1372.4,484.8,3593,right
57,1,continuous,29,87,trial,11965437.0,11972070.0,6633.0,29,R,11971921,11972351,432,1296.9,935.9,3885,NA
57,1,continuous,30,9,fixationCross,11973187.0,11975337.0,2150.0,30,R,11972709,11972873,166,449.7,499.3,4159,left
57,1,continuous,30,9,trial,11973187.0,11975337.0,2150.0,30,R,11972919,11973325,408,967.4,549.8,4009,NA
57,1,continuous,30,9,trial,11973187.0,11975337.0,2150.0,30,R,11973367,11973529,164,552.3,496.3,3871,left
57,1,continuous,30,9,trial,11973187.0,11975337.0,2150.0,30,R,11973547,11973697,152,506.4,432.2,3760,left
57,1,continuous,30,9,trial,11973187.0,11975337.0,2150.0,30,R,11973723,11973943,222,346.1,430.0,3676,left
57,1,continuous,30,9,trial,11973187.0,11975337.0,2150.0,30,R,11973973,11974105,134,554.7,469.6,3639,left
57,1,continuous,30,9,trial,11973187.0,11975337.0,2150.0,30,R,11974123,11974325,204,584.7,439.2,3670,left
57,1,continuous,30,9,trial,11973187.0,11975337.0,2150.0,30,R,11974387,11974599,214,1454.6,486.7,3606,right
57,1,continuous,30,9,trial,11973187.0,11975337.0,2150.0,30,R,11974627,11974781,156,1337.3,527.6,3645,right
57,1,continuous,30,9,trial,11973187.0,11975337.0,2150.0,30,R,11974939,11975075,138,538.5,926.4,3863,NA
57,1,continuous,30,9,trial,11973187.0,11975337.0,2150.0,30,R,11975139,11975381,244,554.3,516.0,3845,left
57,1,continuous,30,9,postResponse,11973187.0,11975337.0,2150.0,30,R,11975405,11975683,280,578.4,407.8,3709,left
57,1,continuous,31,14,fixationCross,11976403.0,11978554.0,2151.0,31,R,11975759,11976085,328,571.8,416.8,3721,left
57,1,continuous,31,14,fixationCross,11976403.0,11978554.0,2151.0,31,R,11976129,11976261,134,917.1,521.3,3818,NA
57,1,continuous,31,14,trial,11976403.0,11978554.0,2151.0,31,R,11976283,11976531,250,977.9,550.7,3867,NA
57,1,continuous,31,14,trial,11976403.0,11978554.0,2151.0,31,R,11976575,11976681,108,560.1,496.5,3959,left
57,1,continuous,31,14,trial,11976403.0,11978554.0,2151.0,31,R,11976701,11977085,386,466.0,445.5,3742,left
57,1,continuous,31,14,trial,11976403.0,11978554.0,2151.0,31,R,11977147,11977303,158,1331.3,455.7,3485,right
57,1,continuous,31,14,trial,11976403.0,11978554.0,2151.0,31,R,11977325,11977571,248,1394.7,430.3,3465,right
57,1,continuous,31,14,trial,11976403.0,11978554.0,2151.0,31,R,11977639,11977889,252,477.6,479.9,3630,left
57,1,continuous,31,14,trial,11976403.0,11978554.0,2151.0,31,R,11977913,11978083,172,551.0,532.5,3622,left
57,1,continuous,31,14,trial,11976403.0,11978554.0,2151.0,31,R,11978133,11978777,646,645.1,911.6,3776,NA
57,1,continuous,32,92,fixationCross,11979687.0,11983020.0,3333.0,32,R,11978991,11979365,376,880.6,456.3,3972,NA
57,1,continuous,32,92,trial,11979687.0,11983020.0,3333.0,32,R,11979389,11979811,424,968.4,498.2,3904,NA
57,1,continuous,32,92,trial,11979687.0,11983020.0,3333.0,32,R,11979857,11979975,120,541.3,483.9,3893,left
57,1,continuous,32,92,trial,11979687.0,11983020.0,3333.0,32,R,11979997,11980167,172,459.8,438.1,3775,left
57,1,continuous,32,92,trial,11979687.0,11983020.0,3333.0,32,R,11980175,11980427,254,461.1,421.0,3656,left
57,1,continuous,32,92,trial,11979687.0,11983020.0,3333.0,32,R,11980497,11980711,216,1434.6,424.6,3496,right
57,1,continuous,32,92,trial,11979687.0,11983020.0,3333.0,32,R,11980739,11980937,200,1568.7,514.0,3533,right
57,1,continuous,32,92,trial,11979687.0,11983020.0,3333.0,32,R,11980947,11981065,120,1552.0,500.0,3589,right
57,1,continuous,32,92,trial,11979687.0,11983020.0,3333.0,32,R,11981085,11981313,230,1474.1,486.9,3577,right
57,1,continuous,32,92,trial,11979687.0,11983020.0,3333.0,32,R,11981337,11981545,210,1399.2,398.9,3578,right
57,1,continuous,32,92,trial,11979687.0,11983020.0,3333.0,32,R,11981609,11981855,248,514.5,441.4,3704,left
57,1,continuous,32,92,trial,11979687.0,11983020.0,3333.0,32,R,11981871,11982081,212,458.1,435.3,3665,left
57,1,continuous,32,92,trial,11979687.0,11983020.0,3333.0,32,R,11982103,11982257,156,554.7,476.2,3643,left
57,1,continuous,32,92,trial,11979687.0,11983020.0,3333.0,32,R,11982269,11982587,320,570.4,451.1,3700,left
57,1,continuous,32,92,trial,11979687.0,11983020.0,3333.0,32,R,11982689,11982823,136,1313.7,907.9,3818,NA
57,1,continuous,32,92,postResponse,11979687.0,11983020.0,3333.0,32,R,11983049,11983353,306,1477.2,464.9,3856,right
57,1,continuous,33,1,fixationCross,11984104.0,11986120.0,2016.0,33,R,11983429,11983769,342,1467.5,471.6,3770,right
57,1,continuous,33,1,fixationCross,11984104.0,11986120.0,2016.0,33,R,11983813,11983943,132,1016.3,537.4,3994,NA
57,1,continuous,33,1,trial,11984104.0,11986120.0,2016.0,33,R,11983955,11984239,286,982.8,551.9,4050,NA
57,1,continuous,33,1,trial,11984104.0,11986120.0,2016.0,33,R,11984285,11984463,180,542.5,521.7,4122,left
57,1,continuous,33,1,trial,11984104.0,11986120.0,2016.0,33,R,11984489,11984787,300,489.6,579.6,3877,left
57,1,continuous,33,1,trial,11984104.0,11986120.0,2016.0,33,R,11984823,11985017,196,348.9,496.7,3829,left
57,1,continuous,33,1,trial,11984104.0,11986120.0,2016.0,33,R,11985071,11985285,216,584.5,939.6,3932,NA
57,1,continuous,33,1,trial,11984104.0,11986120.0,2016.0,33,R,11985357,11985669,314,1448.6,490.4,3845,right
57,1,continuous,33,1,trial,11984104.0,11986120.0,2016.0,33,R,11985833,11985951,120,572.8,924.5,3992,NA
57,1,continuous,33,1,trial,11984104.0,11986120.0,2016.0,33,R,11985971,11986419,450,510.4,950.0,4047,NA
57,1,continuous,34,100,fixationCross,11987170.0,11988921.0,1751.0,34,R,11986529,11986863,336,749.5,465.5,4120,NA
57,1,continuous,34,100,fixationCross,11987170.0,11988921.0,1751.0,34,R,11986893,11987159,268,965.7,544.2,4141,NA
57,1,continuous,34,100,trial,11987170.0,11988921.0,1751.0,34,R,11987169,11987309,142,977.6,563.3,4183,NA
57,1,continuous,34,100,trial,11987170.0,11988921.0,1751.0,34,R,11987351,11987555,206,563.2,549.9,4282,left
57,1,continuous,34,100,trial,11987170.0,11988921.0,1751.0,34,R,11987579,11987691,114,500.7,592.1,4044,left
57,1,continuous,34,100,trial,11987170.0,11988921.0,1751.0,34,R,11987755,11987963,210,1367.2,507.0,3826,right
57,1,continuous,34,100,trial,11987170.0,11988921.0,1751.0,34,R,11987985,11988233,250,1427.0,558.8,3752,right
57,1,continuous,34,100,trial,11987170.0,11988921.0,1751.0,34,R,11988255,11988543,290,1482.0,502.8,3788,right
57,1,continuous,34,100,trial,11987170.0,11988921.0,1751.0,34,R,11988595,11988721,128,1459.6,816.2,4024,NA
57,1,continuous,34,100,trial,11987170.0,11988921.0,1751.0,34,R,11988745,11988849,106,1433.7,927.6,3967,NA
57,1,continuous,34,100,postResponse,11987170.0,11988921.0,1751.0,34,R,11989059,11989255,198,795.1,474.5,4191,NA
57,1,continuous,35,2,fixationCross,11990104.0,11993621.0,3517.0,35,R,11989329,11989785,458,799.2,482.1,4208,NA
57,1,continuous,35,2,trial,11990104.0,11993621.0,3517.0,35,R,11989811,11990243,434,916.1,532.1,4198,NA
57,1,continuous,35,2,trial,11990104.0,11993621.0,3517.0,35,R,11990285,11990557,274,546.5,527.3,4200,left
57,1,continuous,35,2,trial,11990104.0,11993621.0,3517.0,35,R,11990581,11990763,184,447.5,538.5,4040,left
57,1,continuous,35,2,trial,11990104.0,11993621.0,3517.0,35,R,11990779,11990901,124,382.1,533.1,4020,left
57,1,continuous,35,2,trial,11990104.0,11993621.0,3517.0,35,R,11990971,11991153,184,1381.9,447.7,3859,right
57,1,continuous,35,2,trial,11990104.0,11993621.0,3517.0,35,R,11991173,11991331,160,1454.0,438.4,3795,right
57,1,continuous,35,2,trial,11990104.0,11993621.0,3517.0,35,R,11991357,11991583,228,1587.5,440.8,3830,right
57,1,continuous,35,2,trial,11990104.0,11993621.0,3517.0,35,R,11991807,11991993,188,1359.3,482.5,3946,right
57,1,continuous,35,2,trial,11990104.0,11993621.0,3517.0,35,R,11992059,11992451,394,531.6,554.5,4067,left
57,1,continuous,35,2,trial,11990104.0,11993621.0,3517.0,35,R,11992473,11992781,310,630.7,560.7,3936,left
57,1,continuous,35,2,trial,11990104.0,11993621.0,3517.0,35,R,11992817,11993049,234,364.2,573.1,3917,left
57,1,continuous,35,2,trial,11990104.0,11993621.0,3517.0,35,R,11993101,11993297,198,482.2,894.3,3977,NA
57,1,continuous,35,2,trial,11990104.0,11993621.0,3517.0,35,R,11993307,11993489,184,499.9,946.6,3980,NA
57,1,continuous,35,2,postResponse,11990104.0,11993621.0,3517.0,35,R,11993695,11993955,262,560.0,505.4,4026,left
57,1,continuous,36,82,fixationCross,11994704.0,11996887.0,2183.0,36,R,11994083,11994381,300,698.5,490.9,4045,left
57,1,continuous,36,82,fixationCross,11994704.0,11996887.0,2183.0,36,R,11994415,11994555,142,934.5,538.4,4048,NA
57,1,continuous,36,82,trial,11994704.0,11996887.0,2183.0,36,R,11994567,11994837,272,969.8,548.2,4042,NA
57,1,continuous,36,82,trial,11994704.0,11996887.0,2183.0,36,R,11994881,11995131,252,564.1,525.0,4097,left
57,1,continuous,36,82,trial,11994704.0,11996887.0,2183.0,36,R,11995151,11995331,182,532.3,581.4,3890,left
57,1,continuous,36,82,trial,11994704.0,11996887.0,2183.0,36,R,11995355,11995467,114,604.2,536.7,3835,left
57,1,continuous,36,82,trial,11994704.0,11996887.0,2183.0,36,R,11995531,11995965,436,1416.8,587.1,3657,right
57,1,continuous,36,82,trial,11994704.0,11996887.0,2183.0,36,R,11995993,11996517,526,1329.5,691.8,3686,right
57,1,continuous,36,82,trial,11994704.0,11996887.0,2183.0,36,R,11996581,11996791,212,604.8,580.0,3856,left
57,1,continuous,36,82,trial,11994704.0,11996887.0,2183.0,36,R,11996849,11996879,32,1264.7,841.6,3915,NA
57,1,continuous,36,82,trial,11994704.0,11996887.0,2183.0,36,R,11996895,11997087,194,1247.7,927.7,3785,NA
57,1,continuous,37,16,fixationCross,11997804.0,12001854.0,4050.0,37,R,11997343,11997343,2,916.2,665.8,3738,NA
57,1,continuous,37,16,fixationCross,11997804.0,12001854.0,4050.0,37,R,11997379,11997735,358,931.6,497.6,4023,NA
57,1,continuous,37,16,trial,11997804.0,12001854.0,4050.0,37,R,11997757,11997907,152,981.5,537.0,4037,NA
57,1,continuous,37,16,trial,11997804.0,12001854.0,4050.0,37,R,11997919,11997961,44,959.3,555.0,4015,NA
57,1,continuous,37,16,trial,11997804.0,12001854.0,4050.0,37,R,11998003,11998281,280,519.5,527.6,4041,left
57,1,continuous,37,16,trial,11997804.0,12001854.0,4050.0,37,R,11998299,11998553,256,436.2,524.8,3884,left
57,1,continuous,37,16,trial,11997804.0,12001854.0,4050.0,37,R,11998563,11998821,260,445.9,512.7,3825,left
57,1,continuous,37,16,trial,11997804.0,12001854.0,4050.0,37,R,11998985,11999225,242,446.4,423.1,3884,left
57,1,continuous,37,16,trial,11997804.0,12001854.0,4050.0,37,R,11999253,11999487,236,579.8,410.3,3930,left
57,1,continuous,37,16,trial,11997804.0,12001854.0,4050.0,37,R,11999553,11999819,268,1438.1,542.4,3705,right
57,1,continuous,37,16,trial,11997804.0,12001854.0,4050.0,37,R,11999841,11999941,102,1512.3,491.8,3691,right
57,1,continuous,37,16,trial,11997804.0,12001854.0,4050.0,37,R,11999973,12000173,202,1434.0,348.3,3671,right
57,1,continuous,37,16,trial,11997804.0,12001854.0,4050.0,37,R,12000187,12000341,156,1400.4,374.4,3680,right
57,1,continuous,37,16,trial,11997804.0,12001854.0,4050.0,37,R,12000407,12000589,184,529.1,554.2,4019,left
57,1,continuous,37,16,trial,11997804.0,12001854.0,4050.0,37,R,12000611,12001273,664,453.3,536.1,3994,left
57,1,continuous,37,16,trial,11997804.0,12001854.0,4050.0,37,R,12001309,12001651,344,391.2,421.9,3954,left
57,1,continuous,37,16,postResponse,11997804.0,12001854.0,4050.0,37,R,12001685,12002187,504,603.6,544.8,3972,left
57,1,continuous,38,24,fixationCross,12002920.0,12005171.0,2251.0,38,R,12002263,12002621,360,606.2,547.3,3990,left
57,1,continuous,38,24,trial,12002920.0,12005171.0,2251.0,38,R,12002663,12003073,412,969.4,568.3,4050,NA
57,1,continuous,38,24,trial,12002920.0,12005171.0,2251.0,38,R,12003117,12003297,182,524.7,575.3,4177,left
57,1,continuous,38,24,trial,12002920.0,12005171.0,2251.0,38,R,12003313,12003683,372,462.9,562.7,4049,left
57,1,continuous,38,24,trial,12002920.0,12005171.0,2251.0,38,R,12003699,12003893,196,512.7,549.3,4008,left
57,1,continuous,38,24,trial,12002920.0,12005171.0,2251.0,38,R,12004005,12004123,120,1517.3,515.0,3935,right
57,1,continuous,38,24,trial,12002920.0,12005171.0,2251.0,38,R,12004325,12004457,134,1549.6,556.3,3909,right
57,1,continuous,38,24,trial,12002920.0,12005171.0,2251.0,38,R,12004529,12004805,278,762.6,927.0,4087,likertHorizontal
57,1,continuous,38,24,trial,12002920.0,12005171.0,2251.0,38,R,12005031,12005125,96,646.2,899.8,4143,NA
57,1,continuous,38,24,postResponse,12002920.0,12005171.0,2251.0,38,R,12005145,12005505,362,725.2,949.0,4266,NA
57,1,continuous,39,10,fixationCross,12006237.0,12008404.0,2167.0,39,R,12005579,12005639,62,727.4,951.1,4284,NA
57,1,continuous,39,10,fixationCross,12006237.0,12008404.0,2167.0,39,R,12005693,12005927,236,832.1,692.9,4317,NA
57,1,continuous,39,10,fixationCross,12006237.0,12008404.0,2167.0,39,R,12005957,12006103,148,954.3,552.6,4270,NA
57,1,continuous,39,10,trial,12006237.0,12008404.0,2167.0,39,R,12006113,12006375,264,979.7,557.4,4428,NA
57,1,continuous,39,10,trial,12006237.0,12008404.0,2167.0,39,R,12006419,12006631,214,575.4,510.4,4472,left
57,1,continuous,39,10,trial,12006237.0,12008404.0,2167.0,39,R,12006655,12006755,102,481.6,562.6,4225,left
57,1,continuous,39,10,trial,12006237.0,12008404.0,2167.0,39,R,12006783,12006915,134,622.8,499.8,4097,left
57,1,continuous,39,10,trial,12006237.0,12008404.0,2167.0,39,R,12006931,12007093,164,671.0,473.6,3989,left
57,1,continuous,39,10,trial,12006237.0,12008404.0,2167.0,39,R,12007153,12007333,182,1476.6,406.5,3778,right
57,1,continuous,39,10,trial,12006237.0,12008404.0,2167.0,39,R,12007351,12007663,314,1501.3,367.6,3737,right
57,1,continuous,39,10,trial,12006237.0,12008404.0,2167.0,39,R,12007891,12008113,224,616.2,548.8,4007,left
57,1,continuous,39,10,trial,12006237.0,12008404.0,2167.0,39,R,12008189,12008349,162,594.8,845.3,4170,NA
57,1,continuous,39,10,trial,12006237.0,12008404.0,2167.0,39,R,12008499,12008693,196,490.7,491.7,4121,left
57,1,continuous,40,79,fixationCross,12009337.0,12014838.0,5501.0,40,R,12008811,12009019,210,766.7,700.0,4058,NA
57,1,continuous,40,79,fixationCross,12009337.0,12014838.0,5501.0,40,R,12009055,12009231,178,921.4,544.1,4040,NA
57,1,continuous,40,79,trial,12009337.0,12014838.0,5501.0,40,R,12009247,12009485,240,977.6,557.1,4097,NA
57,1,continuous,40,79,trial,12009337.0,12014838.0,5501.0,40,R,12009529,12009827,300,535.0,518.4,4163,left
57,1,continuous,40,79,trial,12009337.0,12014838.0,5501.0,40,R,12009841,12010091,252,487.9,481.1,3893,left
57,1,continuous,40,79,trial,12009337.0,12014838.0,5501.0,40,R,12010153,12010335,184,1258.2,493.8,3693,right
57,1,continuous,40,79,trial,12009337.0,12014838.0,5501.0,40,R,12010363,12010829,468,1306.2,609.6,3664,right
57,1,continuous,40,79,trial,12009337.0,12014838.0,5501.0,40,R,12010849,12011119,272,1372.8,593.7,3684,right
57,1,continuous,40,79,trial,12009337.0,12014838.0,5501.0,40,R,12011145,12011263,120,1271.2,647.7,3709,right
57,1,continuous,40,79,trial,12009337.0,12014838.0,5501.0,40,R,12011337,12011417,82,496.8,454.2,3943,left
57,1,continuous,40,79,trial,12009337.0,12014838.0,5501.0,40,R,12011651,12011691,42,894.7,912.7,3995,likertHorizontal
57,1,continuous,40,79,trial,12009337.0,12014838.0,5501.0,40,R,12011713,12012351,640,958.4,973.6,4187,likertHorizontal
57,1,continuous,40,79,trial,12009337.0,12014838.0,5501.0,40,R,12012407,12012977,572,510.9,508.1,4063,left
57,1,continuous,40,79,trial,12009337.0,12014838.0,5501.0,40,R,12012995,12013315,322,550.5,472.4,3850,left
57,1,continuous,40,79,trial,12009337.0,12014838.0,5501.0,40,R,12013369,12013559,192,1215.0,489.4,3733,right
57,1,continuous,40,79,trial,12009337.0,12014838.0,5501.0,40,R,12013589,12013943,356,1272.7,599.8,3771,right
57,1,continuous,40,79,trial,12009337.0,12014838.0,5501.0,40,R,12013961,12014555,596,1280.6,651.2,3948,right
57,1,continuous,40,79,trial,12009337.0,12014838.0,5501.0,40,R,12014595,12014789,196,1259.9,889.4,4199,NA
57,1,continuous,40,79,postResponse,12009337.0,12014838.0,5501.0,40,R,12015011,12015171,162,1233.4,586.3,4225,right
57,1,continuous,41,82,fixationCross,12015955.0,12017938.0,1983.0,41,R,12015245,12015429,186,879.0,524.9,4309,NA
57,1,continuous,41,82,fixationCross,12015955.0,12017938.0,1983.0,41,R,12015455,12015645,192,724.6,508.3,4225,left
57,1,continuous,41,82,trial,12015955.0,12017938.0,1983.0,41,R,12015679,12016085,408,968.7,527.4,4047,NA
57,1,continuous,41,82,trial,12015955.0,12017938.0,1983.0,41,R,12016131,12016257,128,585.0,485.7,4080,left
57,1,continuous,41,82,trial,12015955.0,12017938.0,1983.0,41,R,12016281,12016431,152,512.0,523.6,3921,left
57,1,continuous,41,82,trial,12015955.0,12017938.0,1983.0,41,R,12016493,12016697,206,1395.5,470.1,3656,right
57,1,continuous,41,82,trial,12015955.0,12017938.0,1983.0,41,R,12016719,12016985,268,1461.9,428.8,3622,right
57,1,continuous,41,82,trial,12015955.0,12017938.0,1983.0,41,R,12017013,12017383,372,1312.2,527.3,3764,right
57,1,continuous,41,82,trial,12015955.0,12017938.0,1983.0,41,R,12017419,12017651,234,1276.3,721.0,3952,right
57,1,continuous,41,82,trial,12015955.0,12017938.0,1983.0,41,R,12017675,12017885,212,1393.3,697.6,3973,right
57,1,continuous,41,82,trial,12015955.0,12017938.0,1983.0,41,R,12017901,12018195,296,1452.4,681.7,3924,right
57,1,continuous,42,83,fixationCross,12019105.0,12022837.0,3732.0,42,R,12018369,12018377,10,832.8,984.3,2585,likertHorizontal
57,1,continuous,42,83,fixationCross,12019105.0,12022837.0,3732.0,42,R,12018587,12018791,206,577.1,611.6,4140,left
57,1,continuous,42,83,fixationCross,12019105.0,12022837.0,3732.0,42,R,12018827,12018961,136,900.4,595.9,4163,NA
57,1,continuous,42,83,trial,12019105.0,12022837.0,3732.0,42,R,12018983,12019233,252,976.3,558.5,4022,NA
57,1,continuous,42,83,trial,12019105.0,12022837.0,3732.0,42,R,12019275,12019393,120,610.6,554.5,4055,left
57,1,continuous,42,83,trial,12019105.0,12022837.0,3732.0,42,R,12019549,12019705,158,455.1,515.7,3940,left
57,1,continuous,42,83,trial,12019105.0,12022837.0,3732.0,42,R,12019771,12020053,284,1451.3,344.9,3782,NA
57,1,continuous,42,83,trial,12019105.0,12022837.0,3732.0,42,R,12020081,12020315,236,1448.7,484.8,3748,right
57,1,continuous,42,83,trial,12019105.0,12022837.0,3732.0,42,R,12020333,12020697,366,1456.0,416.7,3882,right
57,1,continuous,42,83,trial,12019105.0,12022837.0,3732.0,42,R,12020771,12021257,488,500.1,512.1,4015,left
57,1,continuous,42,83,trial,12019105.0,12022837.0,3732.0,42,R,12021279,12021519,242,517.4,435.3,3880,left
57,1,continuous,42,83,trial,12019105.0,12022837.0,3732.0,42,R,12021545,12021697,154,641.0,490.2,3847,left
57,1,continuous,42,83,trial,12019105.0,12022837.0,3732.0,42,R,12021725,12022021,298,673.2,656.2,3876,left
57,1,continuous,42,83,trial,12019105.0,12022837.0,3732.0,42,R,12022047,12022267,222,501.1,653.3,3894,left
57,1,continuous,42,83,trial,12019105.0,12022837.0,3732.0,42,R,12022325,12022695,372,1247.8,628.0,3709,right
57,1,continuous,42,83,trial,12019105.0,12022837.0,3732.0,42,R,12022713,12023077,366,1302.9,640.8,3815,right
57,1,continuous,43,10,fixationCross,12023988.0,12026521.0,2533.0,43,R,12023279,12023317,40,810.6,703.8,3856,NA
57,1,continuous,43,10,fixationCross,12023988.0,12026521.0,2533.0,43,R,12023347,12023677,332,816.4,513.5,4096,NA
57,1,continuous,43,10,fixationCross,12023988.0,12026521.0,2533.0,43,R,12023703,12023971,270,941.6,530.6,4057,NA
57,1,continuous,43,10,trial,12023988.0,12026521.0,2533.0,43,R,12024235,12024277,44,833.4,461.2,4096,NA
57,1,continuous,43,10,trial,12023988.0,12026521.0,2533.0,43,R,12024313,12024487,176,574.0,517.2,4084,left
57,1,continuous,43,10,trial,12023988.0,12026521.0,2533.0,43,R,12024513,12024979,468,451.4,515.5,3746,left
57,1,continuous,43,10,trial,12023988.0,12026521.0,2533.0,43,R,12025051,12025335,286,1428.1,380.7,3476,right
57,1,continuous,43,10,trial,12023988.0,12026521.0,2533.0,43,R,12025357,12025713,358,1323.8,403.7,3619,right
57,1,continuous,43,10,trial,12023988.0,12026521.0,2533.0,43,R,12025831,12026125,296,541.7,633.1,3810,left
57,1,continuous,43,10,trial,12023988.0,12026521.0,2533.0,43,R,12026147,12026407,262,488.1,572.6,3893,left
57,1,continuous,43,10,trial,12023988.0,12026521.0,2533.0,43,R,12026421,12026729,310,456.9,550.4,3906,left
57,1,continuous,44,75,fixationCross,12027654.0,12030371.0,2717.0,44,R,12026985,12026985,2,541.9,704.2,3248,left
57,1,continuous,44,75,fixationCross,12027654.0,12030371.0,2717.0,44,R,12027019,12027183,166,603.2,458.5,3951,left
57,1,continuous,44,75,fixationCross,12027654.0,12030371.0,2717.0,44,R,12027209,12027351,144,773.5,488.2,3990,NA
57,1,continuous,44,75,fixationCross,12027654.0,12030371.0,2717.0,44,R,12027379,12027505,128,944.1,523.0,3969,NA
57,1,continuous,44,75,trial,12027654.0,12030371.0,2717.0,44,R,12027519,12027801,284,969.8,539.3,3903,NA
57,1,continuous,44,75,trial,12027654.0,12030371.0,2717.0,44,R,12027845,12027955,112,502.8,502.2,3938,left
57,1,continuous,44,75,trial,12027654.0,12030371.0,2717.0,44,R,12027993,12028339,348,418.4,375.7,3718,left
57,1,continuous,44,75,trial,12027654.0,12030371.0,2717.0,44,R,12028415,12028651,238,1344.8,462.1,3457,right
57,1,continuous,44,75,trial,12027654.0,12030371.0,2717.0,44,R,12028675,12028849,176,1468.7,408.8,3516,right
57,1,continuous,44,75,trial,12027654.0,12030371.0,2717.0,44,R,12028859,12028987,130,1492.0,387.8,3567,right
57,1,continuous,44,75,trial,12027654.0,12030371.0,2717.0,44,R,12029015,12029425,412,1353.5,468.3,3587,right
57,1,continuous,44,75,trial,12027654.0,12030371.0,2717.0,44,R,12029691,12029875,186,846.2,664.5,3824,NA
57,1,continuous,44,75,trial,12027654.0,12030371.0,2717.0,44,R,12029925,12030283,360,1345.1,575.5,3862,right
57,1,continuous,44,75,postResponse,12027654.0,12030371.0,2717.0,44,R,12030313,12030717,406,1519.3,597.8,3717,right
57,1,continuous,45,48,fixationCross,12033204.0,12035505.0,2301.0,45,R,12030799,12030969,172,1138.6,521.7,3776,NA
57,1,continuous,45,48,fixationCross,12033204.0,12035505.0,2301.0,45,R,12031017,12031551,536,811.7,478.9,4050,NA
57,1,continuous,45,48,fixationCross,12033204.0,12035505.0,2301.0,45,R,12031571,12031837,268,711.4,500.7,4052,left
57,1,continuous,45,48,fixationCross,12033204.0,12035505.0,2301.0,45,R,12031861,12032127,268,846.8,501.3,4005,NA
57,1,continuous,45,48,fixationCross,12033204.0,12035505.0,2301.0,45,R,12032145,12032283,140,789.9,468.8,4014,NA
57,1,continuous,45,48,fixationCross,12033204.0,12035505.0,2301.0,45,R,12032297,12032569,274,756.9,462.1,4026,NA
57,1,continuous,45,48,fixationCross,12033204.0,12035505.0,2301.0,45,R,12032883,12032949,68,860.4,458.6,4055,NA
57,1,continuous,45,48,trial,12033204.0,12035505.0,2301.0,45,R,12032973,12033335,364,966.8,542.0,4042,NA
57,1,continuous,45,48,trial,12033204.0,12035505.0,2301.0,45,R,12033379,12033529,152,557.4,528.3,3938,left
57,1,continuous,45,48,trial,12033204.0,12035505.0,2301.0,45,R,12033543,12033729,188,512.3,503.8,3712,left
57,1,continuous,45,48,trial,12033204.0,12035505.0,2301.0,45,R,12033755,12033849,96,605.8,561.5,3613,left
57,1,continuous,45,48,trial,12033204.0,12035505.0,2301.0,45,R,12033909,12034195,288,1416.2,457.1,3489,right
57,1,continuous,45,48,trial,12033204.0,12035505.0,2301.0,45,R,12034221,12034391,172,1311.1,528.4,3640,right
57,1,continuous,45,48,trial,12033204.0,12035505.0,2301.0,45,R,12034455,12034571,118,1011.6,961.6,3924,likertHorizontal
57,1,continuous,45,48,postResponse,12033204.0,12035505.0,2301.0,45,R,12034589,12035839,1252,943.4,979.1,4253,likertHorizontal
57,1,continuous,46,78,fixationCross,12036688.0,12039321.0,2633.0,46,R,12036137,12036385,250,765.8,455.0,4758,NA
57,1,continuous,46,78,trial,12036688.0,12039321.0,2633.0,46,R,12036417,12036745,330,984.0,496.5,4627,NA
57,1,continuous,46,78,trial,12036688.0,12039321.0,2633.0,46,R,12036779,12036849,72,768.4,479.4,4605,NA
57,1,continuous,46,78,trial,12036688.0,12039321.0,2633.0,46,R,12036881,12037081,202,551.3,505.8,4544,left
57,1,continuous,46,78,trial,12036688.0,12039321.0,2633.0,46,R,12037101,12037217,118,485.6,512.1,4290,left
57,1,continuous,46,78,trial,12036688.0,12039321.0,2633.0,46,R,12037279,12037535,258,1341.6,580.3,3928,right
57,1,continuous,46,78,trial,12036688.0,12039321.0,2633.0,46,R,12037561,12037761,202,1502.9,588.6,3856,right
57,1,continuous,46,78,trial,12036688.0,12039321.0,2633.0,46,R,12037779,12037973,196,1489.4,526.3,3852,right
57,1,continuous,46,78,trial,12036688.0,12039321.0,2633.0,46,R,12037999,12038221,224,1327.8,498.9,3818,right
57,1,continuous,46,78,trial,12036688.0,12039321.0,2633.0,46,R,12038285,12038637,354,556.2,519.4,3915,left
57,1,continuous,46,78,trial,12036688.0,12039321.0,2633.0,46,R,12038655,12038863,210,492.3,495.5,3897,left
57,1,continuous,46,78,trial,12036688.0,12039321.0,2633.0,46,R,12038931,12039165,236,1192.1,929.8,3871,NA
57,1,continuous,46,78,trial,12036688.0,12039321.0,2633.0,46,R,12039227,12039529,304,1334.7,594.1,3844,right
57,1,continuous,47,47,fixationCross,12041905.0,12045405.0,3500.0,47,R,12039775,12040195,422,639.5,484.1,4220,left
57,1,continuous,47,47,fixationCross,12041905.0,12045405.0,3500.0,47,R,12040221,12040557,338,795.2,508.8,4141,NA
57,1,continuous,47,47,fixationCross,12041905.0,12045405.0,3500.0,47,R,12040581,12041389,810,680.3,500.5,4037,left
57,1,continuous,47,47,fixationCross,12041905.0,12045405.0,3500.0,47,R,12041415,12041613,200,814.0,458.6,4022,NA
57,1,continuous,47,47,trial,12041905.0,12045405.0,3500.0,47,R,12041639,12041967,330,946.7,505.0,4111,NA
57,1,continuous,47,47,trial,12041905.0,12045405.0,3500.0,47,R,12041997,12042055,60,793.3,483.0,4311,NA
57,1,continuous,47,47,trial,12041905.0,12045405.0,3500.0,47,R,12042087,12042225,140,570.5,517.7,4357,left
57,1,continuous,47,47,trial,12041905.0,12045405.0,3500.0,47,R,12042245,12042581,338,484.2,441.3,4094,left
57,1,continuous,47,47,trial,12041905.0,12045405.0,3500.0,47,R,12042639,12042819,182,1318.9,455.4,3905,right
57,1,continuous,47,47,trial,12041905.0,12045405.0,3500.0,47,R,12042839,12042947,110,1368.7,456.3,3919,right
57,1,continuous,47,47,trial,12041905.0,12045405.0,3500.0,47,R,12042975,12043291,318,1537.5,450.4,4061,right
57,1,continuous,47,47,trial,12041905.0,12045405.0,3500.0,47,R,12043317,12043631,316,1384.2,467.4,4188,right
57,1,continuous,47,47,trial,12041905.0,12045405.0,3500.0,47,R,12043691,12043927,238,980.9,944.8,4418,likertHorizontal
57,1,continuous,47,47,trial,12041905.0,12045405.0,3500.0,47,R,12043943,12044259,318,953.1,972.1,4413,likertHorizontal
57,1,continuous,47,47,trial,12041905.0,12045405.0,3500.0,47,R,12044333,12044527,196,1520.7,523.0,4186,right
57,1,continuous,47,47,trial,12041905.0,12045405.0,3500.0,47,R,12044547,12044825,280,1530.6,453.3,4045,right
57,1,continuous,47,47,trial,12041905.0,12045405.0,3500.0,47,R,12044837,12045073,238,1556.6,464.6,3957,right
57,1,continuous,47,47,trial,12041905.0,12045405.0,3500.0,47,R,12045145,12045229,86,766.0,474.2,4110,NA
57,1,continuous,47,47,trial,12041905.0,12045405.0,3500.0,47,R,12045263,12045649,388,571.1,478.5,4089,left
57,1,continuous,48,15,fixationCross,12046455.0,12049904.0,3449.0,48,R,12045825,12046145,322,926.1,948.8,4281,likertHorizontal
57,1,continuous,48,15,fixationCross,12046455.0,12049904.0,3449.0,48,R,12046211,12046391,182,995.8,506.4,4520,NA
57,1,continuous,48,15,trial,12046455.0,12049904.0,3449.0,48,R,12046407,12046593,188,981.5,546.4,4493,NA
57,1,continuous,48,15,trial,12046455.0,12049904.0,3449.0,48,R,12046637,12046689,54,588.2,529.3,4544,left
57,1,continuous,48,15,trial,12046455.0,12049904.0,3449.0,48,R,12046857,12047007,152,439.0,567.9,4312,left
57,1,continuous,48,15,trial,12046455.0,12049904.0,3449.0,48,R,12047019,12047535,518,382.8,558.9,4014,left
57,1,continuous,48,15,trial,12046455.0,12049904.0,3449.0,48,R,12047563,12047837,276,532.2,554.7,3821,left
57,1,continuous,48,15,trial,12046455.0,12049904.0,3449.0,48,R,12047895,12048285,392,1302.2,454.4,3787,right
57,1,continuous,48,15,trial,12046455.0,12049904.0,3449.0,48,R,12048341,12048479,140,948.1,1006.9,4018,likertHorizontal
57,1,continuous,48,15,trial,12046455.0,12049904.0,3449.0,48,R,12048491,12048743,254,963.8,983.8,4059,likertHorizontal
57,1,continuous,48,15,trial,12046455.0,12049904.0,3449.0,48,R,12048799,12049111,314,486.6,605.4,4150,left
57,1,continuous,48,15,trial,12046455.0,12049904.0,3449.0,48,R,12049151,12049317,168,389.2,442.4,4049,left
57,1,continuous,48,15,trial,12046455.0,12049904.0,3449.0,48,R,12049341,12049459,120,320.7,498.3,4019,left
57,1,continuous,48,15,trial,12046455.0,12049904.0,3449.0,48,R,12049473,12050081,610,288.4,475.9,3901,left
57,1,continuous,49,49,fixationCross,12050871.0,12053755.0,2884.0,49,R,12050377,12050741,366,900.2,445.7,3931,NA
57,1,continuous,49,49,trial,12050871.0,12053755.0,2884.0,49,R,12050765,12051011,248,969.2,545.0,3920,NA
57,1,continuous,49,49,trial,12050871.0,12053755.0,2884.0,49,R,12051053,12051273,222,581.8,516.4,4014,left
57,1,continuous,49,49,trial,12050871.0,12053755.0,2884.0,49,R,12051335,12051481,148,1479.6,468.2,3841,right
57,1,continuous,49,49,trial,12050871.0,12053755.0,2884.0,49,R,12051503,12051655,154,1552.4,445.8,3769,right
57,1,continuous,49,49,trial,12050871.0,12053755.0,2884.0,49,R,12051681,12052033,354,1411.1,443.2,3838,right
57,1,continuous,49,49,trial,12050871.0,12053755.0,2884.0,49,R,12052093,12052477,386,593.8,488.0,4122,left
57,1,continuous,49,49,trial,12050871.0,12053755.0,2884.0,49,R,12052541,12052921,382,970.3,979.6,4100,likertHorizontal
57,1,continuous,49,49,trial,12050871.0,12053755.0,2884.0,49,R,12052989,12053157,170,1000.4,545.0,4190,NA
57,1,continuous,49,49,trial,12050871.0,12053755.0,2884.0,49,R,12053213,12053345,134,939.6,1005.8,4285,likertHorizontal
57,1,continuous,49,49,trial,12050871.0,12053755.0,2884.0,49,R,12053369,12053955,588,957.6,985.1,4356,likertHorizontal
57,1,continuous,50,85,fixationCross,12055388.0,12058205.0,2817.0,50,R,12054217,12054219,4,792.3,748.9,4064,likertHorizontal
57,1,continuous,50,85,fixationCross,12055388.0,12058205.0,2817.0,50,R,12054271,12054815,546,793.6,486.9,4471,NA
57,1,continuous,50,85,fixationCross,12055388.0,12058205.0,2817.0,50,R,12054839,12055079,242,740.3,477.7,4319,NA
57,1,continuous,50,85,fixationCross,12055388.0,12058205.0,2817.0,50,R,12055107,12055241,136,952.9,540.7,4339,NA
57,1,continuous,50,85,trial,12055388.0,12058205.0,2817.0,50,R,12055255,12055493,240,984.4,569.4,4441,NA
57,1,continuous,50,85,trial,12055388.0,12058205.0,2817.0,50,R,12055659,12055791,134,472.9,521.0,4552,left
57,1,continuous,50,85,trial,12055388.0,12058205.0,2817.0,50,R,12055817,12056081,266,351.6,450.3,4377,left
57,1,continuous,50,85,trial,12055388.0,12058205.0,2817.0,50,R,12056147,12056313,168,1323.8,397.7,3928,right
57,1,continuous,50,85,trial,12055388.0,12058205.0,2817.0,50,R,12056335,12056445,112,1405.0,409.4,3841,right
57,1,continuous,50,85,trial,12055388.0,12058205.0,2817.0,50,R,12056477,12056697,222,1472.4,600.8,3926,right
57,1,continuous,50,85,trial,12055388.0,12058205.0,2817.0,50,R,12056711,12057083,374,1442.6,641.3,4062,right
57,1,continuous,50,85,trial,12055388.0,12058205.0,2817.0,50,R,12057123,12057359,238,1357.7,372.7,3993,right
57,1,continuous,50,85,trial,12055388.0,12058205.0,2817.0,50,R,12057373,12057433,62,1392.2,387.6,3940,right
57,1,continuous,50,85,trial,12055388.0,12058205.0,2817.0,50,R,12057497,12057793,298,536.0,599.9,4160,left
57,1,continuous,50,85,trial,12055388.0,12058205.0,2817.0,50,R,12057849,12057999,152,1208.5,959.9,3994,NA
57,1,continuous,50,85,trial,12055388.0,12058205.0,2817.0,50,R,12058019,12058173,156,1284.9,959.1,3918,NA
57,1,continuous,50,85,trial,12055388.0,12058205.0,2817.0,50,R,12058229,12058415,188,1294.8,569.0,3865,right
57,2,binary,1,2,fixationCross,12117172.0,12119923.0,2751.0,51,R,12116316,12116608,294,958.6,891.7,4229,likertHorizontal
57,2,binary,1,2,fixationCross,12117172.0,12119923.0,2751.0,51,R,12116626,12116722,98,884.9,884.4,4168,likertHorizontal
57,2,binary,1,2,fixationCross,12117172.0,12119923.0,2751.0,51,R,12116918,12116990,74,986.9,459.3,4151,NA
57,2,binary,1,2,trial,12117172.0,12119923.0,2751.0,51,R,12117010,12117322,314,962.4,544.2,4230,NA
57,2,binary,1,2,trial,12117172.0,12119923.0,2751.0,51,R,12117364,12117514,152,554.2,437.1,4141,left
57,2,binary,1,2,trial,12117172.0,12119923.0,2751.0,51,R,12117540,12117680,142,462.0,501.9,3959,left
57,2,binary,1,2,trial,12117172.0,12119923.0,2751.0,51,R,12117738,12118092,356,1360.5,479.8,3707,right
57,2,binary,1,2,trial,12117172.0,12119923.0,2751.0,51,R,12118106,12118262,158,1315.0,460.9,3769,right
57,2,binary,1,2,trial,12117172.0,12119923.0,2751.0,51,R,12118318,12118608,292,972.4,972.1,4029,likertHorizontal
57,2,binary,1,2,trial,12117172.0,12119923.0,2751.0,51,R,12118652,12118884,234,1402.0,994.1,4201,NA
57,2,binary,1,2,trial,12117172.0,12119923.0,2751.0,51,R,12118958,12119082,126,1438.2,448.5,4213,right
57,2,binary,1,2,trial,12117172.0,12119923.0,2751.0,51,R,12119104,12119512,410,1336.3,448.5,4111,right
57,2,binary,1,2,trial,12117172.0,12119923.0,2751.0,51,R,12119544,12119738,196,1537.9,466.0,3907,right
57,2,binary,1,2,postResponse,12117172.0,12119923.0,2751.0,51,R,12119812,12120256,446,456.8,517.9,3997,left
57,2,binary,2,1,fixationCross,12120989.0,12122722.0,1733.0,52,R,12120484,12120684,202,867.1,479.6,3934,NA
57,2,binary,2,1,fixationCross,12120989.0,12122722.0,1733.0,52,R,12120710,12120860,152,963.9,554.4,4130,NA
57,2,binary,2,1,trial,12120989.0,12122722.0,1733.0,52,R,12120872,12121134,264,964.8,544.8,4074,NA
57,2,binary,2,1,trial,12120989.0,12122722.0,1733.0,52,R,12121182,12121300,120,504.7,473.5,3966,left
57,2,binary,2,1,trial,12120989.0,12122722.0,1733.0,52,R,12121322,12121482,162,394.9,467.8,3823,left
57,2,binary,2,1,trial,12120989.0,12122722.0,1733.0,52,R,12121490,12121592,104,381.2,446.7,3719,left
57,2,binary,2,1,trial,12120989.0,12122722.0,1733.0,52,R,12121662,12121880,220,1383.6,503.0,3487,right
57,2,binary,2,1,trial,12120989.0,12122722.0,1733.0,52,R,12121902,12122218,318,1432.9,564.1,3597,right
57,2,binary,2,1,trial,12120989.0,12122722.0,1733.0,52,R,12122282,12122548,268,478.4,453.3,3714,left
57,2,binary,2,1,postResponse,12120989.0,12122722.0,1733.0,52,R,12122604,12123056,454,450.1,1015.1,3754,NA
57,2,binary,3,1,fixationCross,12123839.0,12125155.0,1316.0,53,R,12123288,12123544,258,1009.4,409.8,3879,NA
57,2,binary,3,1,trial,12123839.0,12125155.0,1316.0,53,R,12123572,12124030,460,946.9,541.7,4021,NA
57,2,binary,3,1,trial,12123839.0,12125155.0,1316.0,53,R,12124070,12124304,236,558.5,511.0,3887,left
57,2,binary,3,1,trial,12123839.0,12125155.0,1316.0,53,R,12124338,12124532,196,335.2,514.1,3828,left
57,2,binary,3,1,trial,12123839.0,12125155.0,1316.0,53,R,12124558,12124666,110,264.1,576.4,3767,left
57,2,binary,3,1,trial,12123839.0,12125155.0,1316.0,53,R,12124732,12124856,126,1332.9,499.4,3649,right
57,2,binary,3,1,trial,12123839.0,12125155.0,1316.0,53,R,12124880,12125374,496,1447.5,497.7,3603,right
57,2,binary,4,1,fixationCross,12126239.0,12127539.0,1300.0,54,R,12125594,12125930,338,812.4,509.0,3872,NA
57,2,binary,4,1,trial,12126239.0,12127539.0,1300.0,54,R,12125954,12126386,434,943.3,533.6,3884,NA
57,2,binary,4,1,trial,12126239.0,12127539.0,1300.0,54,R,12126426,12126582,158,538.1,536.7,3903,left
57,2,binary,4,1,trial,12126239.0,12127539.0,1300.0,54,R,12126604,12126718,116,445.9,533.9,3792,left
57,2,binary,4,1,trial,12126239.0,12127539.0,1300.0,54,R,12126738,12126940,204,480.6,478.8,3708,left
57,2,binary,4,1,trial,12126239.0,12127539.0,1300.0,54,R,12126958,12127054,98,506.9,470.9,3644,left
57,2,binary,4,1,trial,12126239.0,12127539.0,1300.0,54,R,12127116,12127352,238,1332.8,480.1,3520,right
57,2,binary,4,1,trial,12126239.0,12127539.0,1300.0,54,R,12127374,12127740,368,1419.1,487.0,3481,right
57,2,binary,5,1,fixationCross,12128439.0,12130073.0,1634.0,55,R,12127978,12128326,350,900.4,470.9,3757,NA
57,2,binary,5,1,trial,12128439.0,12130073.0,1634.0,55,R,12128346,12128598,254,954.3,522.8,3809,NA
57,2,binary,5,1,trial,12128439.0,12130073.0,1634.0,55,R,12128642,12128910,270,492.2,511.8,3769,left
57,2,binary,5,1,trial,12128439.0,12130073.0,1634.0,55,R,12128976,12129192,218,1473.0,470.8,3484,right
57,2,binary,5,1,trial,12128439.0,12130073.0,1634.0,55,R,12129218,12129498,282,1581.8,446.4,3476,right
57,2,binary,5,1,trial,12128439.0,12130073.0,1634.0,55,R,12129566,12129772,208,544.1,522.9,3668,left
57,2,binary,5,1,trial,12128439.0,12130073.0,1634.0,55,R,12129788,12130016,230,591.1,510.6,3638,left
57,2,binary,5,1,postResponse,12128439.0,12130073.0,1634.0,55,R,12130044,12130406,364,457.1,544.2,3641,left
57,2,binary,6,1,fixationCross,12131155.0,12132906.0,1751.0,56,R,12130482,12130542,62,460.2,548.6,3654,left
57,2,binary,6,1,fixationCross,12131155.0,12132906.0,1751.0,56,R,12130582,12130844,264,704.6,537.4,3701,left
57,2,binary,6,1,trial,12131155.0,12132906.0,1751.0,56,R,12130872,12131294,424,936.8,520.3,3891,NA
57,2,binary,6,1,trial,12131155.0,12132906.0,1751.0,56,R,12131336,12131482,148,529.5,505.2,3929,left
57,2,binary,6,1,trial,12131155.0,12132906.0,1751.0,56,R,12131504,12131674,172,528.0,412.2,3776,left
57,2,binary,6,1,trial,12131155.0,12132906.0,1751.0,56,R,12131734,12131876,144,1379.7,455.2,3607,right
57,2,binary,6,1,trial,12131155.0,12132906.0,1751.0,56,R,12131894,12132060,168,1443.1,441.1,3571,right
57,2,binary,6,1,trial,12131155.0,12132906.0,1751.0,56,R,12132124,12132260,138,566.4,448.6,3664,left
57,2,binary,6,1,postResponse,12131155.0,12132906.0,1751.0,56,R,12132276,12133240,966,532.9,407.6,3577,left
57,2,binary,7,2,fixationCross,12133972.0,12136973.0,3001.0,57,R,12133320,12133376,58,635.8,421.1,3647,left
57,2,binary,7,2,fixationCross,12133972.0,12136973.0,3001.0,57,R,12133388,12133656,270,682.8,487.3,3741,left
57,2,binary,7,2,fixationCross,12133972.0,12136973.0,3001.0,57,R,12133686,12133818,134,915.7,502.8,3848,NA
57,2,binary,7,2,trial,12133972.0,12136973.0,3001.0,57,R,12133830,12134098,270,944.4,517.6,3844,NA
57,2,binary,7,2,trial,12133972.0,12136973.0,3001.0,57,R,12134140,12134270,132,582.4,511.0,3857,left
57,2,binary,7,2,trial,12133972.0,12136973.0,3001.0,57,R,12134292,12134432,142,493.1,492.7,3742,left
57,2,binary,7,2,trial,12133972.0,12136973.0,3001.0,57,R,12134494,12134648,156,1380.1,498.0,3542,right
57,2,binary,7,2,trial,12133972.0,12136973.0,3001.0,57,R,12134672,12135044,374,1467.4,550.5,3533,right
57,2,binary,7,2,trial,12133972.0,12136973.0,3001.0,57,R,12135208,12135398,192,496.1,459.9,3667,left
57,2,binary,7,2,trial,12133972.0,12136973.0,3001.0,57,R,12135410,12135740,332,521.2,492.4,3689,left
57,2,binary,7,2,trial,12133972.0,12136973.0,3001.0,57,R,12135758,12135896,140,452.3,522.4,3629,left
57,2,binary,7,2,trial,12133972.0,12136973.0,3001.0,57,R,12135920,12136086,168,460.8,588.6,3641,left
57,2,binary,7,2,trial,12133972.0,12136973.0,3001.0,57,R,12136152,12136294,144,1392.6,566.9,3583,right
57,2,binary,7,2,trial,12133972.0,12136973.0,3001.0,57,R,12136316,12137196,882,1469.1,566.2,3563,right
57,2,binary,8,2,fixationCross,12138039.0,12140455.0,2416.0,58,R,12137414,12137502,90,683.8,448.7,3898,left
57,2,binary,8,2,fixationCross,12138039.0,12140455.0,2416.0,58,R,12137762,12137894,134,903.6,532.5,3938,NA
57,2,binary,8,2,trial,12138039.0,12140455.0,2416.0,58,R,12137906,12138174,270,934.8,527.7,3837,NA
57,2,binary,8,2,trial,12138039.0,12140455.0,2416.0,58,R,12138224,12138376,154,462.1,496.4,3889,left
57,2,binary,8,2,trial,12138039.0,12140455.0,2416.0,58,R,12138402,12138528,128,439.7,620.5,3821,left
57,2,binary,8,2,trial,12138039.0,12140455.0,2416.0,58,R,12138546,12138734,190,474.7,661.6,3786,left
57,2,binary,8,2,trial,12138039.0,12140455.0,2416.0,58,R,12138768,12138908,142,467.1,448.7,3743,left
57,2,binary,8,2,trial,12138039.0,12140455.0,2416.0,58,R,12138974,12139184,212,1399.3,497.8,3583,right
57,2,binary,8,2,trial,12138039.0,12140455.0,2416.0,58,R,12139200,12139556,358,1442.4,518.1,3611,right
57,2,binary,8,2,trial,12138039.0,12140455.0,2416.0,58,R,12139620,12139772,154,540.8,589.7,3810,left
57,2,binary,8,2,trial,12138039.0,12140455.0,2416.0,58,R,12139798,12140062,266,463.8,689.2,3763,left
57,2,binary,8,2,trial,12138039.0,12140455.0,2416.0,58,R,12140098,12140344,248,474.0,488.2,3658,left
57,2,binary,8,2,postResponse,12138039.0,12140455.0,2416.0,58,R,12140362,12140790,430,487.1,431.3,3564,left
57,2,binary,9,1,fixationCross,12141506.0,12143156.0,1650.0,59,R,12140866,12140924,60,488.5,433.9,3540,left
57,2,binary,9,1,fixationCross,12141506.0,12143156.0,1650.0,59,R,12140952,12141206,256,680.1,430.9,3546,left
57,2,binary,9,1,fixationCross,12141506.0,12143156.0,1650.0,59,R,12141232,12141362,132,899.0,515.7,3633,NA
57,2,binary,9,1,trial,12141506.0,12143156.0,1650.0,59,R,12141376,12141650,276,939.1,536.9,3718,NA
57,2,binary,9,1,trial,12141506.0,12143156.0,1650.0,59,R,12141690,12141840,152,539.3,522.1,3766,left
57,2,binary,9,1,trial,12141506.0,12143156.0,1650.0,59,R,12141866,12141998,134,433.1,538.8,3632,left
57,2,binary,9,1,trial,12141506.0,12143156.0,1650.0,59,R,12142064,12142296,234,1378.5,554.6,3407,right
57,2,binary,9,1,trial,12141506.0,12143156.0,1650.0,59,R,12142318,12142480,164,1468.7,474.8,3346,right
57,2,binary,9,1,trial,12141506.0,12143156.0,1650.0,59,R,12142508,12142682,176,1558.6,636.7,3402,right
57,2,binary,9,1,trial,12141506.0,12143156.0,1650.0,59,R,12142694,12143026,334,1578.0,665.0,3501,right
57,2,binary,9,1,postResponse,12141506.0,12143156.0,1650.0,59,R,12143134,12143490,358,503.8,521.2,3604,left
57,2,binary,10,1,fixationCross,12144222.0,12146523.0,2301.0,60,R,12143568,12143862,296,655.8,492.5,3622,left
57,2,binary,10,1,fixationCross,12144222.0,12146523.0,2301.0,60,R,12143936,12144046,112,874.7,513.5,3619,NA
57,2,binary,10,1,trial,12144222.0,12146523.0,2301.0,60,R,12144066,12144392,328,937.9,507.6,3551,NA
57,2,binary,10,1,trial,12144222.0,12146523.0,2301.0,60,R,12144434,12144744,312,482.2,520.6,3548,left
57,2,binary,10,1,trial,12144222.0,12146523.0,2301.0,60,R,12144802,12145002,202,1240.9,496.1,3361,right
57,2,binary,10,1,trial,12144222.0,12146523.0,2301.0,60,R,12145028,12145408,382,1367.5,488.3,3394,right
57,2,binary,10,1,trial,12144222.0,12146523.0,2301.0,60,R,12145482,12145858,378,404.8,532.3,3655,left
57,2,binary,10,1,trial,12144222.0,12146523.0,2301.0,60,R,12145884,12146350,468,533.1,454.3,3687,left
57,2,binary,10,1,trial,12144222.0,12146523.0,2301.0,60,R,12146410,12146718,310,463.6,1031.4,3857,NA
57,2,binary,11,2,fixationCross,12147489.0,12150723.0,3234.0,61,R,12146996,12147030,36,1129.8,467.6,3920,NA
57,2,binary,11,2,fixationCross,12147489.0,12150723.0,3234.0,61,R,12147042,12147182,142,1123.5,553.8,3822,NA
57,2,binary,11,2,fixationCross,12147489.0,12150723.0,3234.0,61,R,12147208,12147352,146,952.0,620.7,3947,NA
57,2,binary,11,2,trial,12147489.0,12150723.0,3234.0,61,R,12147378,12147636,260,951.3,526.0,4004,NA
57,2,binary,11,2,trial,12147489.0,12150723.0,3234.0,61,R,12147682,12147800,120,488.7,510.9,3947,left
57,2,binary,11,2,trial,12147489.0,12150723.0,3234.0,61,R,12147820,12148004,186,422.2,431.1,3771,left
57,2,binary,11,2,trial,12147489.0,12150723.0,3234.0,61,R,12148020,12148140,122,473.1,428.8,3631,left
57,2,binary,11,2,trial,12147489.0,12150723.0,3234.0,61,R,12148162,12148874,714,494.6,510.4,3621,left
57,2,binary,11,2,trial,12147489.0,12150723.0,3234.0,61,R,12148952,12149236,286,1304.4,549.9,3512,right
57,2,binary,11,2,trial,12147489.0,12150723.0,3234.0,61,R,12149262,12149430,170,1449.4,589.8,3528,right
57,2,binary,11,2,trial,12147489.0,12150723.0,3234.0,61,R,12149452,12149756,306,1536.4,611.9,3452,right
57,2,binary,11,2,trial,12147489.0,12150723.0,3234.0,61,R,12149786,12149878,94,1330.4,638.4,3425,right
57,2,binary,11,2,trial,12147489.0,12150723.0,3234.0,61,R,12149940,12150102,164,547.3,530.0,3554,left
57,2,binary,11,2,trial,12147489.0,12150723.0,3234.0,61,R,12150124,12150294,172,452.6,471.8,3553,left
57,2,binary,11,2,trial,12147489.0,12150723.0,3234.0,61,R,12150310,12150582,274,426.1,427.5,3501,left
57,2,binary,11,2,trial,12147489.0,12150723.0,3234.0,61,R,12150652,12150970,320,1313.7,712.0,3464,right
57,2,binary,12,1,trial,12151623.0,12156739.0,5116.0,62,R,12151188,12151760,574,945.0,484.6,3796,NA
57,2,binary,12,1,trial,12151623.0,12156739.0,5116.0,62,R,12151804,12151950,148,554.4,520.1,3711,left
57,2,binary,12,1,trial,12151623.0,12156739.0,5116.0,62,R,12151968,12152156,190,480.0,499.1,3587,left
57,2,binary,12,1,trial,12151623.0,12156739.0,5116.0,62,R,12152186,12152358,174,675.1,458.8,3446,left
57,2,binary,12,1,trial,12151623.0,12156739.0,5116.0,62,R,12152416,12152636,222,1418.3,478.1,3305,right
57,2,binary,12,1,trial,12151623.0,12156739.0,5116.0,62,R,12152652,12152886,236,1451.6,438.0,3367,right
57,2,binary,12,1,trial,12151623.0,12156739.0,5116.0,62,R,12152896,12153030,136,1474.7,434.8,3424,right
57,2,binary,12,1,trial,12151623.0,12156739.0,5116.0,62,R,12153098,12153306,210,596.5,520.6,3609,left
57,2,binary,12,1,trial,12151623.0,12156739.0,5116.0,62,R,12153328,12153660,334,673.2,476.0,3588,left
57,2,binary,12,1,trial,12151623.0,12156739.0,5116.0,62,R,12153686,12154024,340,478.3,391.7,3505,left
57,2,binary,12,1,trial,12151623.0,12156739.0,5116.0,62,R,12154094,12154356,264,942.5,850.3,3587,likertHorizontal
57,2,binary,12,1,trial,12151623.0,12156739.0,5116.0,62,R,12154382,12154552,172,974.6,968.0,3807,likertHorizontal
57,2,binary,12,1,trial,12151623.0,12156739.0,5116.0,62,R,12154596,12154938,344,1389.5,980.5,3976,NA
57,2,binary,12,1,trial,12151623.0,12156739.0,5116.0,62,R,12154978,12155880,904,1070.7,983.3,4177,likertHorizontal
57,2,binary,12,1,trial,12151623.0,12156739.0,5116.0,62,R,12155900,12156202,304,1020.3,946.6,4333,likertHorizontal
57,2,binary,12,1,trial,12151623.0,12156739.0,5116.0,62,R,12156258,12156384,128,1354.9,588.2,4259,right
57,2,binary,12,1,trial,12151623.0,12156739.0,5116.0,62,R,12156448,12156758,312,564.9,496.2,4187,left
57,2,binary,12,1,trial,12151623.0,12156739.0,5116.0,62,R,12156782,12156942,162,691.1,475.5,3857,left
57,2,binary,13,2,fixationCross,12157656.0,12162072.0,4416.0,63,R,12157284,12157524,242,898.2,468.1,3995,NA
57,2,binary,13,2,trial,12157656.0,12162072.0,4416.0,63,R,12157546,12157798,254,951.8,548.8,3999,NA
57,2,binary,13,2,trial,12157656.0,12162072.0,4416.0,63,R,12157840,12157962,124,535.3,518.1,3850,left
57,2,binary,13,2,trial,12157656.0,12162072.0,4416.0,63,R,12157978,12158102,126,508.7,454.6,3733,left
57,2,binary,13,2,trial,12157656.0,12162072.0,4416.0,63,R,12158164,12158622,460,1401.9,452.3,3493,right
57,2,binary,13,2,trial,12157656.0,12162072.0,4416.0,63,R,12158640,12159246,608,1332.7,498.0,3639,right
57,2,binary,13,2,trial,12157656.0,12162072.0,4416.0,63,R,12159268,12159744,478,1422.1,532.4,3837,right
57,2,binary,13,2,trial,12157656.0,12162072.0,4416.0,63,R,12159764,12159886,124,1354.6,502.8,3830,right
57,2,binary,13,2,trial,12157656.0,12162072.0,4416.0,63,R,12159954,12160216,264,465.5,496.6,3901,left
57,2,binary,13,2,trial,12157656.0,12162072.0,4416.0,63,R,12160238,12160450,214,520.7,432.9,3828,left
57,2,binary,13,2,trial,12157656.0,12162072.0,4416.0,63,R,12160648,12160816,170,1379.6,468.5,3750,right
57,2,binary,13,2,trial,12157656.0,12162072.0,4416.0,63,R,12160880,12161114,236,500.5,498.3,3937,left
57,2,binary,13,2,trial,12157656.0,12162072.0,4416.0,63,R,12161132,12161492,362,495.3,440.8,3713,left
57,2,binary,13,2,trial,12157656.0,12162072.0,4416.0,63,R,12161566,12161822,258,1427.5,511.0,3514,right
57,2,binary,13,2,trial,12157656.0,12162072.0,4416.0,63,R,12161844,12161974,132,1328.7,482.3,3572,right
57,2,binary,13,2,postResponse,12157656.0,12162072.0,4416.0,63,R,12162000,12162406,408,1451.8,566.2,3607,right
57,2,binary,14,2,fixationCross,12163140.0,12164923.0,1783.0,64,R,12162480,12162812,334,1443.9,565.6,3642,right
57,2,binary,14,2,fixationCross,12163140.0,12164923.0,1783.0,64,R,12162858,12162982,126,1009.6,507.8,3775,NA
57,2,binary,14,2,trial,12163140.0,12164923.0,1783.0,64,R,12162996,12163282,288,965.1,506.9,3828,NA
57,2,binary,14,2,trial,12163140.0,12164923.0,1783.0,64,R,12163328,12163526,200,535.3,529.2,3885,left
57,2,binary,14,2,trial,12163140.0,12164923.0,1783.0,64,R,12163544,12163894,352,458.4,475.6,3687,left
57,2,binary,14,2,trial,12163140.0,12164923.0,1783.0,64,R,12163938,12163994,58,787.0,413.8,3573,NA
57,2,binary,14,2,trial,12163140.0,12164923.0,1783.0,64,R,12164150,12164192,44,1313.0,466.6,3477,right
57,2,binary,14,2,trial,12163140.0,12164923.0,1783.0,64,R,12164208,12164278,72,1351.4,444.2,3492,right
57,2,binary,14,2,trial,12163140.0,12164923.0,1783.0,64,R,12164294,12164412,120,1357.1,398.8,3563,right
57,2,binary,14,2,trial,12163140.0,12164923.0,1783.0,64,R,12164422,12164982,562,1357.7,384.4,3616,right
57,2,binary,14,2,postResponse,12163140.0,12164923.0,1783.0,64,R,12165036,12165256,222,669.5,484.9,3743,left
57,2,binary,15,1,fixationCross,12166023.0,12167372.0,1349.0,65,R,12165356,12165718,364,851.2,485.7,3776,NA
57,2,binary,15,1,trial,12166023.0,12167372.0,1349.0,65,R,12165736,12166184,450,926.1,508.7,3801,NA
57,2,binary,15,1,trial,12166023.0,12167372.0,1349.0,65,R,12166228,12166386,160,502.5,511.0,3832,left
57,2,binary,15,1,trial,12166023.0,12167372.0,1349.0,65,R,12166406,12166504,100,574.1,484.2,3773,left
57,2,binary,15,1,trial,12166023.0,12167372.0,1349.0,65,R,12166564,12166934,372,1397.6,449.8,3514,right
57,2,binary,15,1,trial,12166023.0,12167372.0,1349.0,65,R,12166962,12167402,442,1568.0,513.9,3620,right
57,2,binary,15,1,postResponse,12166023.0,12167372.0,1349.0,65,R,12167476,12167706,232,806.6,465.8,3670,NA
57,2,binary,16,1,fixationCross,12169673.0,12171757.0,2084.0,66,R,12167780,12168462,684,809.4,462.4,3658,NA
57,2,binary,16,1,fixationCross,12169673.0,12171757.0,2084.0,66,R,12168484,12168994,512,726.6,451.7,3759,left
57,2,binary,16,1,fixationCross,12169673.0,12171757.0,2084.0,66,R,12169130,12169376,248,775.1,448.9,3835,NA
57,2,binary,16,1,fixationCross,12169673.0,12171757.0,2084.0,66,R,12169400,12169570,172,901.3,509.2,3870,NA
57,2,binary,16,1,trial,12169673.0,12171757.0,2084.0,66,R,12169580,12169810,232,924.0,520.2,3777,NA
57,2,binary,16,1,trial,12169673.0,12171757.0,2084.0,66,R,12169850,12169996,148,550.3,493.8,3805,left
57,2,binary,16,1,trial,12169673.0,12171757.0,2084.0,66,R,12170018,12170190,174,463.1,410.3,3659,left
57,2,binary,16,1,trial,12169673.0,12171757.0,2084.0,66,R,12170204,12170598,396,415.0,399.6,3486,left
57,2,binary,16,1,trial,12169673.0,12171757.0,2084.0,66,R,12170782,12170978,198,365.2,426.0,3559,left
57,2,binary,16,1,trial,12169673.0,12171757.0,2084.0,66,R,12171048,12171302,256,1368.7,541.8,3553,right
57,2,binary,16,1,trial,12169673.0,12171757.0,2084.0,66,R,12171316,12171512,198,1347.7,567.9,3454,right
57,2,binary,16,1,trial,12169673.0,12171757.0,2084.0,66,R,12171588,12171760,174,397.3,995.1,3653,NA
57,2,binary,16,1,postResponse,12169673.0,12171757.0,2084.0,66,R,12171812,12172092,282,434.8,410.7,3623,left
57,2,binary,17,1,fixationCross,12172890.0,12175240.0,2350.0,67,R,12172166,12172214,50,571.4,374.1,3679,left
57,2,binary,17,1,fixationCross,12172890.0,12175240.0,2350.0,67,R,12172492,12172584,94,540.2,360.1,3823,left
57,2,binary,17,1,fixationCross,12172890.0,12175240.0,2350.0,67,R,12172632,12172816,186,959.5,558.0,3855,NA
57,2,binary,17,1,trial,12172890.0,12175240.0,2350.0,67,R,12172828,12173032,206,948.4,531.5,3751,NA
57,2,binary,17,1,trial,12172890.0,12175240.0,2350.0,67,R,12173076,12173328,254,544.6,459.5,3592,left
57,2,binary,17,1,trial,12172890.0,12175240.0,2350.0,67,R,12173388,12173662,276,1339.6,462.7,3404,right
57,2,binary,17,1,trial,12172890.0,12175240.0,2350.0,67,R,12173688,12173782,96,1461.3,436.0,3388,right
57,2,binary,17,1,trial,12172890.0,12175240.0,2350.0,67,R,12173854,12174120,268,531.6,489.8,3466,left
57,2,binary,17,1,trial,12172890.0,12175240.0,2350.0,67,R,12174142,12174230,90,459.6,423.5,3462,left
57,2,binary,17,1,trial,12172890.0,12175240.0,2350.0,67,R,12174438,12174902,466,393.3,394.9,3574,left
57,2,binary,17,1,trial,12172890.0,12175240.0,2350.0,67,R,12174976,12175232,258,1339.6,465.3,3406,right
57,2,binary,17,1,postResponse,12172890.0,12175240.0,2350.0,67,R,12175256,12175572,318,1448.7,513.7,3405,right
57,2,binary,18,2,fixationCross,12177690.0,12179340.0,1650.0,68,R,12175672,12175742,72,1440.8,512.2,3380,right
57,2,binary,18,2,fixationCross,12177690.0,12179340.0,1650.0,68,R,12175964,12175990,28,575.3,652.4,3110,left
57,2,binary,18,2,fixationCross,12177690.0,12179340.0,1650.0,68,R,12176038,12176148,112,568.5,389.5,3771,left
57,2,binary,18,2,fixationCross,12177690.0,12179340.0,1650.0,68,R,12176170,12177364,1196,695.6,460.1,3691,left
57,2,binary,18,2,fixationCross,12177690.0,12179340.0,1650.0,68,R,12177392,12177412,22,894.9,519.1,3729,NA
57,2,binary,18,2,fixationCross,12177690.0,12179340.0,1650.0,68,R,12177452,12177676,226,900.6,512.4,3757,NA
57,2,binary,18,2,trial,12177690.0,12179340.0,1650.0,68,R,12177704,12177850,148,950.9,530.4,3786,NA
57,2,binary,18,2,trial,12177690.0,12179340.0,1650.0,68,R,12177892,12178042,152,552.4,511.0,3767,left
57,2,binary,18,2,trial,12177690.0,12179340.0,1650.0,68,R,12178066,12178380,316,461.5,512.3,3557,left
57,2,binary,18,2,trial,12177690.0,12179340.0,1650.0,68,R,12178452,12178696,246,1334.3,531.3,3380,right
57,2,binary,18,2,trial,12177690.0,12179340.0,1650.0,68,R,12178718,12178910,194,1391.0,482.1,3338,right
57,2,binary,18,2,trial,12177690.0,12179340.0,1650.0,68,R,12178938,12179264,328,1453.6,644.2,3307,right
57,2,binary,18,2,postResponse,12177690.0,12179340.0,1650.0,68,R,12179306,12179686,382,1254.6,383.8,3389,right
57,2,binary,19,1,fixationCross,12180506.0,12181823.0,1317.0,69,R,12179788,12180178,392,1251.6,385.9,3515,right
57,2,binary,19,1,fixationCross,12180506.0,12181823.0,1317.0,69,R,12180214,12180338,126,980.2,518.1,3707,NA
57,2,binary,19,1,trial,12180506.0,12181823.0,1317.0,69,R,12180352,12180644,294,949.0,552.4,3725,NA
57,2,binary,19,1,trial,12180506.0,12181823.0,1317.0,69,R,12180688,12180818,132,541.4,544.7,3728,left
57,2,binary,19,1,trial,12180506.0,12181823.0,1317.0,69,R,12180842,12180980,140,408.5,557.6,3539,left
57,2,binary,19,1,trial,12180506.0,12181823.0,1317.0,69,R,12180994,12181430,438,414.6,523.0,3376,left
57,2,binary,19,1,trial,12180506.0,12181823.0,1317.0,69,R,12181454,12181662,210,528.4,591.9,3329,left
57,2,binary,19,1,trial,12180506.0,12181823.0,1317.0,69,R,12181730,12182132,404,1390.3,466.9,3372,right
57,2,binary,20,1,fixationCross,12184840.0,12186923.0,2083.0,70,R,12182434,12182714,282,475.4,464.1,3818,left
57,2,binary,20,1,fixationCross,12184840.0,12186923.0,2083.0,70,R,12182752,12182906,156,718.7,469.7,3752,left
57,2,binary,20,1,fixationCross,12184840.0,12186923.0,2083.0,70,R,12182926,12183152,228,819.6,467.6,3577,NA
57,2,binary,20,1,fixationCross,12184840.0,12186923.0,2083.0,70,R,12183168,12183918,752,859.7,482.6,3570,NA
57,2,binary,20,1,fixationCross,12184840.0,12186923.0,2083.0,70,R,12183928,12184032,106,810.9,459.8,3558,NA
57,2,binary,20,1,fixationCross,12184840.0,12186923.0,2083.0,70,R,12184256,12184514,260,786.5,533.1,3529,NA
57,2,binary,20,1,trial,12184840.0,12186923.0,2083.0,70,R,12184536,12184976,442,958.6,532.5,3646,NA
57,2,binary,20,1,trial,12184840.0,12186923.0,2083.0,70,R,12185022,12185132,112,494.9,512.9,3601,left
57,2,binary,20,1,trial,12184840.0,12186923.0,2083.0,70,R,12185156,12185344,190,396.3,578.4,3503,left
57,2,binary,20,1,trial,12184840.0,12186923.0,2083.0,70,R,12185364,12185556,194,446.2,616.5,3466,left
57,2,binary,20,1,trial,12184840.0,12186923.0,2083.0,70,R,12185618,12185822,206,1331.1,469.6,3400,right
57,2,binary,20,1,trial,12184840.0,12186923.0,2083.0,70,R,12185844,12186000,158,1374.9,529.0,3455,right
57,2,binary,20,1,trial,12184840.0,12186923.0,2083.0,70,R,12186068,12186260,194,480.3,647.3,3784,left
57,2,binary,20,1,trial,12184840.0,12186923.0,2083.0,70,R,12186272,12186782,512,445.1,673.1,3638,left
57,2,binary,20,1,trial,12184840.0,12186923.0,2083.0,70,R,12186808,12187136,330,384.6,589.2,3474,left
57,2,binary,21,1,fixationCross,12188073.0,12189906.0,1833.0,71,R,12187404,12187756,354,1009.1,286.5,3579,NA
57,2,binary,21,1,trial,12188073.0,12189906.0,1833.0,71,R,12187806,12188220,416,936.5,527.7,3660,NA
57,2,binary,21,1,trial,12188073.0,12189906.0,1833.0,71,R,12188262,12188576,316,509.9,538.1,3680,left
