participantNo,block,task,blockTrial,response,trialStage,trialStartTime,trialFinishTime,rt,trial,eye,fixStart,fixEnd,fixLength,fixPosX,fixPosY,dilation,aoi
31,1,continuous,1,100,fixationCross,5094627.0,5099461.0,4834.0,1,R,5093905,5094313,410,891.6,607.2,5926,NA
31,1,continuous,1,100,fixationCross,5094627.0,5099461.0,4834.0,1,R,5094335,5094477,144,943.3,558.9,5420,NA
31,1,continuous,1,100,trial,5094627.0,5099461.0,4834.0,1,R,5094487,5094779,294,959.5,539.0,5530,NA
31,1,continuous,1,100,trial,5094627.0,5099461.0,4834.0,1,R,5094827,5095067,242,532.1,452.1,5518,left
31,1,continuous,1,100,trial,5094627.0,5099461.0,4834.0,1,R,5095089,5095199,112,510.2,538.3,5202,left
31,1,continuous,1,100,trial,5094627.0,5099461.0,4834.0,1,R,5095237,5095341,106,692.0,818.5,5122,NA
31,1,continuous,1,100,trial,5094627.0,5099461.0,4834.0,1,R,5095375,5095651,278,950.4,977.0,5130,likertHorizontal
31,1,continuous,1,100,trial,5094627.0,5099461.0,4834.0,1,R,5095679,5095801,124,1108.1,964.3,5280,likertHorizontal
31,1,continuous,1,100,trial,5094627.0,5099461.0,4834.0,1,R,5095849,5096249,402,1421.8,565.9,5253,right
31,1,continuous,1,100,trial,5094627.0,5099461.0,4834.0,1,R,5096265,5096571,308,1475.4,596.3,5126,right
31,1,continuous,1,100,trial,5094627.0,5099461.0,4834.0,1,R,5096595,5096961,368,1427.5,541.1,5096,right
31,1,continuous,1,100,trial,5094627.0,5099461.0,4834.0,1,R,5097029,5097261,234,456.8,470.6,5020,left
31,1,continuous,1,100,trial,5094627.0,5099461.0,4834.0,1,R,5097285,5097469,186,490.1,389.9,5043,left
31,1,continuous,1,100,trial,5094627.0,5099461.0,4834.0,1,R,5097535,5097889,356,1515.6,560.5,4886,right
31,1,continuous,1,100,trial,5094627.0,5099461.0,4834.0,1,R,5097911,5098093,184,1586.4,631.1,4840,right
31,1,continuous,1,100,trial,5094627.0,5099461.0,4834.0,1,R,5098137,5098397,262,1450.9,1037.9,5011,NA
31,1,continuous,1,100,trial,5094627.0,5099461.0,4834.0,1,R,5098407,5098881,476,1437.9,1064.4,5176,NA
31,1,continuous,1,100,trial,5094627.0,5099461.0,4834.0,1,R,5099123,5099149,28,1446.2,717.1,5448,right
31,1,continuous,1,100,trial,5094627.0,5099461.0,4834.0,1,R,5099169,5099305,138,1428.4,824.8,5270,NA
31,1,continuous,1,100,postResponse,5094627.0,5099461.0,4834.0,1,R,5099343,5099827,486,1273.8,629.1,5324,right
31,1,continuous,2,1,fixationCross,5100627.0,5102978.0,2351.0,2,R,5099999,5100279,282,663.4,259.8,5503,NA
31,1,continuous,2,1,fixationCross,5100627.0,5102978.0,2351.0,2,R,5100315,5100441,128,980.6,561.2,5622,NA
31,1,continuous,2,1,trial,5100627.0,5102978.0,2351.0,2,R,5100457,5100805,350,948.1,534.4,5454,NA
31,1,continuous,2,1,trial,5100627.0,5102978.0,2351.0,2,R,5100877,5101041,166,503.9,463.0,5451,left
31,1,continuous,2,1,trial,5100627.0,5102978.0,2351.0,2,R,5101055,5101305,252,526.1,502.5,5262,left
31,1,continuous,2,1,trial,5100627.0,5102978.0,2351.0,2,R,5101329,5101453,126,616.5,529.4,5149,left
31,1,continuous,2,1,trial,5100627.0,5102978.0,2351.0,2,R,5101513,5101657,146,1490.3,445.6,4985,right
31,1,continuous,2,1,trial,5100627.0,5102978.0,2351.0,2,R,5101673,5101871,200,1414.1,452.6,5049,right
31,1,continuous,2,1,trial,5100627.0,5102978.0,2351.0,2,R,5101885,5102109,226,1410.8,492.1,4915,right
31,1,continuous,2,1,trial,5100627.0,5102978.0,2351.0,2,R,5102179,5102403,226,451.9,525.8,5076,left
31,1,continuous,2,1,trial,5100627.0,5102978.0,2351.0,2,R,5102423,5102683,262,526.4,514.7,5220,left
31,1,continuous,2,1,postResponse,5100627.0,5102978.0,2351.0,2,R,5102711,5103325,616,649.2,627.5,5585,left
31,1,continuous,3,1,fixationCross,5104145.0,5106345.0,2200.0,3,R,5103439,5103789,352,914.3,364.6,5765,NA
31,1,continuous,3,1,fixationCross,5104145.0,5106345.0,2200.0,3,R,5103817,5103923,108,967.3,478.8,5782,NA
31,1,continuous,3,1,trial,5104145.0,5106345.0,2200.0,3,R,5103937,5104297,362,953.4,507.6,5887,NA
31,1,continuous,3,1,trial,5104145.0,5106345.0,2200.0,3,R,5104353,5104533,182,473.1,486.3,5745,left
31,1,continuous,3,1,trial,5104145.0,5106345.0,2200.0,3,R,5104557,5104687,132,518.8,568.0,5244,left
31,1,continuous,3,1,trial,5104145.0,5106345.0,2200.0,3,R,5104749,5104915,168,1449.8,506.1,4713,right
31,1,continuous,3,1,trial,5104145.0,5106345.0,2200.0,3,R,5104933,5105001,70,1394.5,458.8,4603,right
31,1,continuous,3,1,trial,5104145.0,5106345.0,2200.0,3,R,5105013,5105625,614,1374.0,413.7,4708,right
31,1,continuous,3,1,trial,5104145.0,5106345.0,2200.0,3,R,5105689,5106047,360,494.6,535.7,5108,left
31,1,continuous,3,1,trial,5104145.0,5106345.0,2200.0,3,R,5106069,5106365,298,503.5,613.5,4874,left
31,1,continuous,3,1,trial,5104145.0,5106345.0,2200.0,3,R,5106399,5106583,186,497.0,814.0,4765,NA
31,1,continuous,3,1,postResponse,5104145.0,5106345.0,2200.0,3,R,5106645,5106683,40,869.2,320.0,4662,NA
31,1,continuous,4,1,fixationCross,5108111.0,5110561.0,2450.0,4,R,5106783,5106925,144,865.1,321.7,4906,NA
31,1,continuous,4,1,fixationCross,5108111.0,5110561.0,2450.0,4,R,5106953,5107067,116,772.2,456.0,5135,NA
31,1,continuous,4,1,fixationCross,5108111.0,5110561.0,2450.0,4,R,5107283,5107865,584,866.5,456.1,5448,NA
31,1,continuous,4,1,fixationCross,5108111.0,5110561.0,2450.0,4,R,5107887,5108063,178,980.5,515.2,5228,NA
31,1,continuous,4,1,trial,5108111.0,5110561.0,2450.0,4,R,5108075,5108265,192,972.0,548.7,5331,NA
31,1,continuous,4,1,trial,5108111.0,5110561.0,2450.0,4,R,5108321,5108515,196,506.5,483.4,5423,left
31,1,continuous,4,1,trial,5108111.0,5110561.0,2450.0,4,R,5108539,5108777,240,480.8,596.3,5114,left
31,1,continuous,4,1,trial,5108111.0,5110561.0,2450.0,4,R,5108849,5109011,164,1575.3,532.9,4760,right
31,1,continuous,4,1,trial,5108111.0,5110561.0,2450.0,4,R,5109031,5109233,204,1484.4,486.4,4790,right
31,1,continuous,4,1,trial,5108111.0,5110561.0,2450.0,4,R,5109249,5109565,318,1453.5,420.0,4708,right
31,1,continuous,4,1,trial,5108111.0,5110561.0,2450.0,4,R,5109635,5109939,306,459.4,517.7,4853,left
31,1,continuous,4,1,trial,5108111.0,5110561.0,2450.0,4,R,5109965,5110857,894,465.7,625.1,5096,left
31,1,continuous,5,100,fixationCross,5111744.0,5113377.0,1633.0,5,R,5111025,5111155,132,1201.4,437.6,5180,right
31,1,continuous,5,100,fixationCross,5111744.0,5113377.0,1633.0,5,R,5111211,5111429,220,800.8,471.0,5565,NA
31,1,continuous,5,100,trial,5111744.0,5113377.0,1633.0,5,R,5111457,5111897,442,956.0,540.0,5763,NA
31,1,continuous,5,100,trial,5111744.0,5113377.0,1633.0,5,R,5111949,5112373,426,482.6,491.4,5434,left
31,1,continuous,5,100,trial,5111744.0,5113377.0,1633.0,5,R,5112429,5112483,56,1118.1,507.4,5036,NA
31,1,continuous,5,100,trial,5111744.0,5113377.0,1633.0,5,R,5112525,5112721,198,1514.8,504.3,4885,right
31,1,continuous,5,100,trial,5111744.0,5113377.0,1633.0,5,R,5112739,5113121,384,1452.9,537.8,4983,right
31,1,continuous,5,100,postResponse,5111744.0,5113377.0,1633.0,5,R,5113145,5113719,576,1348.7,596.2,5006,right
31,1,continuous,6,100,fixationCross,5114877.0,5116277.0,1400.0,6,R,5113793,5114003,212,644.9,294.3,5151,NA
31,1,continuous,6,100,fixationCross,5114877.0,5116277.0,1400.0,6,R,5114033,5114569,538,670.7,443.2,5528,left
31,1,continuous,6,100,fixationCross,5114877.0,5116277.0,1400.0,6,R,5114601,5114737,138,927.1,508.2,5428,NA
31,1,continuous,6,100,trial,5114877.0,5116277.0,1400.0,6,R,5114751,5115033,284,964.2,537.9,5480,NA
31,1,continuous,6,100,trial,5114877.0,5116277.0,1400.0,6,R,5115083,5115261,180,525.8,518.3,5631,left
31,1,continuous,6,100,trial,5114877.0,5116277.0,1400.0,6,R,5115279,5115529,252,480.4,485.8,5337,left
31,1,continuous,6,100,trial,5114877.0,5116277.0,1400.0,6,R,5115593,5115827,236,1439.9,529.5,4955,right
31,1,continuous,6,100,trial,5114877.0,5116277.0,1400.0,6,R,5115849,5116065,218,1302.1,480.8,5096,right
31,1,continuous,6,100,trial,5114877.0,5116277.0,1400.0,6,R,5116083,5116329,248,1244.8,402.4,5096,right
31,1,continuous,6,100,postResponse,5114877.0,5116277.0,1400.0,6,R,5116379,5116613,236,1623.6,548.0,4886,right
31,1,continuous,7,79,fixationCross,5118211.0,5125427.0,7216.0,7,R,5116731,5117123,394,680.3,405.0,5348,left
31,1,continuous,7,79,fixationCross,5118211.0,5125427.0,7216.0,7,R,5117153,5117205,54,545.0,440.8,5591,left
31,1,continuous,7,79,fixationCross,5118211.0,5125427.0,7216.0,7,R,5117361,5117881,522,467.8,487.2,5839,left
31,1,continuous,7,79,fixationCross,5118211.0,5125427.0,7216.0,7,R,5117931,5118085,156,976.1,510.6,5395,NA
31,1,continuous,7,79,trial,5118211.0,5125427.0,7216.0,7,R,5118097,5118359,264,968.0,542.6,5347,NA
31,1,continuous,7,79,trial,5118211.0,5125427.0,7216.0,7,R,5118409,5118623,216,508.1,506.6,5601,left
31,1,continuous,7,79,trial,5118211.0,5125427.0,7216.0,7,R,5118635,5119455,822,533.1,537.1,5436,left
31,1,continuous,7,79,trial,5118211.0,5125427.0,7216.0,7,R,5119523,5120045,524,1478.0,559.7,5298,right
31,1,continuous,7,79,trial,5118211.0,5125427.0,7216.0,7,R,5120117,5120303,188,537.5,513.6,5143,left
31,1,continuous,7,79,trial,5118211.0,5125427.0,7216.0,7,R,5120315,5121399,1086,537.2,552.7,5437,left
31,1,continuous,7,79,trial,5118211.0,5125427.0,7216.0,7,R,5121463,5121599,138,1423.6,555.2,5159,right
31,1,continuous,7,79,trial,5118211.0,5125427.0,7216.0,7,R,5121615,5122117,504,1462.0,566.8,4848,right
31,1,continuous,7,79,trial,5118211.0,5125427.0,7216.0,7,R,5122185,5123043,860,530.0,556.1,5053,left
31,1,continuous,7,79,trial,5118211.0,5125427.0,7216.0,7,R,5123105,5123293,190,1487.8,530.0,4952,right
31,1,continuous,7,79,trial,5118211.0,5125427.0,7216.0,7,R,5123309,5123743,436,1467.1,569.7,4825,right
31,1,continuous,7,79,trial,5118211.0,5125427.0,7216.0,7,R,5123815,5124065,252,490.0,574.9,4737,left
31,1,continuous,7,79,trial,5118211.0,5125427.0,7216.0,7,R,5124081,5124513,434,540.1,562.0,4851,left
31,1,continuous,7,79,trial,5118211.0,5125427.0,7216.0,7,R,5124573,5124761,190,1303.1,565.1,4920,right
31,1,continuous,7,79,trial,5118211.0,5125427.0,7216.0,7,R,5124785,5125147,364,1420.7,569.6,4808,right
31,1,continuous,7,79,trial,5118211.0,5125427.0,7216.0,7,R,5125225,5125349,126,1271.9,1031.5,5033,NA
31,1,continuous,7,79,trial,5118211.0,5125427.0,7216.0,7,R,5125361,5125661,302,1240.4,1012.5,5171,NA
31,1,continuous,7,79,postResponse,5118211.0,5125427.0,7216.0,7,R,5125715,5125759,46,1174.2,381.9,4969,NA
31,1,continuous,8,26,fixationCross,5126611.0,5128728.0,2117.0,8,R,5125861,5125883,24,1164.1,381.5,4985,NA
31,1,continuous,8,26,fixationCross,5126611.0,5128728.0,2117.0,8,R,5125937,5126255,320,712.0,370.8,5202,left
31,1,continuous,8,26,fixationCross,5126611.0,5128728.0,2117.0,8,R,5126287,5126463,178,922.4,445.3,5259,NA
31,1,continuous,8,26,trial,5126611.0,5128728.0,2117.0,8,R,5126487,5126671,186,967.8,503.9,5351,NA
31,1,continuous,8,26,trial,5126611.0,5128728.0,2117.0,8,R,5126689,5126819,132,958.6,540.7,5588,NA
31,1,continuous,8,26,trial,5126611.0,5128728.0,2117.0,8,R,5126851,5126901,52,1204.4,522.9,5692,right
31,1,continuous,8,26,trial,5126611.0,5128728.0,2117.0,8,R,5126933,5127169,238,1453.9,529.2,5402,right
31,1,continuous,8,26,trial,5126611.0,5128728.0,2117.0,8,R,5127237,5127577,342,547.9,589.1,5060,left
31,1,continuous,8,26,trial,5126611.0,5128728.0,2117.0,8,R,5127589,5129027,1440,515.9,554.6,5537,left
31,1,continuous,9,25,fixationCross,5129911.0,5132878.0,2967.0,9,R,5129245,5129373,130,1375.3,377.6,5469,right
31,1,continuous,9,25,fixationCross,5129911.0,5132878.0,2967.0,9,R,5129433,5129607,176,828.4,458.3,5801,NA
31,1,continuous,9,25,trial,5129911.0,5132878.0,2967.0,9,R,5129635,5130061,428,979.9,521.2,5510,NA
31,1,continuous,9,25,trial,5129911.0,5132878.0,2967.0,9,R,5130109,5130449,342,522.1,498.6,5279,left
31,1,continuous,9,25,trial,5129911.0,5132878.0,2967.0,9,R,5130475,5130571,98,374.2,448.0,4947,left
31,1,continuous,9,25,trial,5129911.0,5132878.0,2967.0,9,R,5130637,5130835,200,1443.3,471.5,4658,right
31,1,continuous,9,25,trial,5129911.0,5132878.0,2967.0,9,R,5130855,5131063,210,1366.7,492.8,4759,right
31,1,continuous,9,25,trial,5129911.0,5132878.0,2967.0,9,R,5131077,5131385,310,1330.0,487.3,4869,right
31,1,continuous,9,25,trial,5129911.0,5132878.0,2967.0,9,R,5131455,5131837,384,492.5,495.9,4965,left
31,1,continuous,9,25,trial,5129911.0,5132878.0,2967.0,9,R,5131857,5132141,286,369.1,468.2,4824,left
31,1,continuous,9,25,trial,5129911.0,5132878.0,2967.0,9,R,5132171,5132409,240,508.3,493.5,4702,left
31,1,continuous,9,25,trial,5129911.0,5132878.0,2967.0,9,R,5132471,5132857,388,1443.8,472.8,4693,right
31,1,continuous,9,25,trial,5129911.0,5132878.0,2967.0,9,R,5132877,5133121,246,1342.4,485.3,4873,right
31,1,continuous,10,84,fixationCross,5134761.0,5136995.0,2234.0,10,R,5133495,5134443,950,546.4,413.2,5103,left
31,1,continuous,10,84,fixationCross,5134761.0,5136995.0,2234.0,10,R,5134489,5134633,146,891.2,494.1,5096,NA
31,1,continuous,10,84,trial,5134761.0,5136995.0,2234.0,10,R,5134655,5134915,262,969.2,536.2,5192,NA
31,1,continuous,10,84,trial,5134761.0,5136995.0,2234.0,10,R,5134961,5135137,178,602.3,505.5,5161,left
31,1,continuous,10,84,trial,5134761.0,5136995.0,2234.0,10,R,5135151,5135397,248,638.2,488.9,4825,left
31,1,continuous,10,84,trial,5134761.0,5136995.0,2234.0,10,R,5135409,5135523,116,668.7,486.6,4636,left
31,1,continuous,10,84,trial,5134761.0,5136995.0,2234.0,10,R,5135583,5135819,238,1495.2,528.1,4562,right
31,1,continuous,10,84,trial,5134761.0,5136995.0,2234.0,10,R,5135837,5136221,386,1565.7,521.1,4629,right
31,1,continuous,10,84,trial,5134761.0,5136995.0,2234.0,10,R,5136253,5136653,402,1452.2,645.0,4807,right
31,1,continuous,10,84,trial,5134761.0,5136995.0,2234.0,10,R,5136691,5136943,254,1318.7,962.4,5121,NA
31,1,continuous,10,84,postResponse,5134761.0,5136995.0,2234.0,10,R,5136987,5137329,344,1361.4,664.2,5066,right
31,1,continuous,11,1,fixationCross,5139677.0,5142528.0,2851.0,11,R,5137601,5137929,330,423.2,275.1,5428,NA
31,1,continuous,11,1,fixationCross,5139677.0,5142528.0,2851.0,11,R,5137973,5138273,302,756.9,500.6,5320,NA
31,1,continuous,11,1,fixationCross,5139677.0,5142528.0,2851.0,11,R,5138291,5138595,306,679.3,497.0,5132,left
31,1,continuous,11,1,fixationCross,5139677.0,5142528.0,2851.0,11,R,5138627,5138805,180,527.3,493.9,5389,left
31,1,continuous,11,1,fixationCross,5139677.0,5142528.0,2851.0,11,R,5138819,5139255,438,482.1,493.0,5369,left
31,1,continuous,11,1,fixationCross,5139677.0,5142528.0,2851.0,11,R,5139433,5139497,66,1032.4,490.6,5258,NA
31,1,continuous,11,1,fixationCross,5139677.0,5142528.0,2851.0,11,R,5139509,5139611,104,993.3,514.9,5258,NA
31,1,continuous,11,1,trial,5139677.0,5142528.0,2851.0,11,R,5139879,5139967,90,970.9,504.1,5572,NA
31,1,continuous,11,1,trial,5139677.0,5142528.0,2851.0,11,R,5140019,5140195,178,506.1,487.5,5739,left
31,1,continuous,11,1,trial,5139677.0,5142528.0,2851.0,11,R,5140221,5140343,124,401.9,545.1,5414,left
31,1,continuous,11,1,trial,5139677.0,5142528.0,2851.0,11,R,5140417,5140557,142,1519.8,487.6,4689,right
31,1,continuous,11,1,trial,5139677.0,5142528.0,2851.0,11,R,5140575,5141087,514,1506.5,425.3,4604,right
31,1,continuous,11,1,trial,5139677.0,5142528.0,2851.0,11,R,5141159,5141361,204,397.8,539.1,5001,left
31,1,continuous,11,1,trial,5139677.0,5142528.0,2851.0,11,R,5141375,5142273,900,381.5,579.1,4840,left
31,1,continuous,11,1,trial,5139677.0,5142528.0,2851.0,11,R,5142317,5142599,284,496.9,966.5,5390,NA
31,1,continuous,11,1,postResponse,5139677.0,5142528.0,2851.0,11,R,5142643,5142863,222,448.7,573.7,5310,left
31,1,continuous,12,10,fixationCross,5143745.0,5146028.0,2283.0,12,R,5143005,5143429,426,803.1,428.8,5314,NA
31,1,continuous,12,10,fixationCross,5143745.0,5146028.0,2283.0,12,R,5143455,5143727,274,939.2,487.4,5509,NA
31,1,continuous,12,10,trial,5143745.0,5146028.0,2283.0,12,R,5143789,5143953,166,385.4,449.4,5563,left
31,1,continuous,12,10,trial,5143745.0,5146028.0,2283.0,12,R,5143979,5144141,164,475.7,492.7,5534,left
31,1,continuous,12,10,trial,5143745.0,5146028.0,2283.0,12,R,5144187,5144227,42,894.4,511.5,5209,NA
31,1,continuous,12,10,trial,5143745.0,5146028.0,2283.0,12,R,5144277,5144415,140,1435.4,480.9,4850,right
31,1,continuous,12,10,trial,5143745.0,5146028.0,2283.0,12,R,5144427,5144667,242,1395.8,471.4,4698,right
31,1,continuous,12,10,trial,5143745.0,5146028.0,2283.0,12,R,5144731,5144935,206,434.1,487.1,4711,left
31,1,continuous,12,10,trial,5143745.0,5146028.0,2283.0,12,R,5144951,5145151,202,474.1,538.1,4878,left
31,1,continuous,12,10,trial,5143745.0,5146028.0,2283.0,12,R,5145161,5145507,348,508.0,534.3,5037,left
31,1,continuous,12,10,trial,5143745.0,5146028.0,2283.0,12,R,5145533,5145855,324,490.8,433.5,4892,left
31,1,continuous,12,10,postResponse,5143745.0,5146028.0,2283.0,12,R,5145919,5146357,440,1413.4,470.4,4654,right
31,1,continuous,13,80,fixationCross,5148878.0,5151011.0,2133.0,13,R,5146457,5146575,120,792.1,719.0,4827,NA
31,1,continuous,13,80,fixationCross,5148878.0,5151011.0,2133.0,13,R,5146819,5147039,222,679.9,588.3,5368,left
31,1,continuous,13,80,fixationCross,5148878.0,5151011.0,2133.0,13,R,5147065,5147441,378,837.6,520.4,5215,NA
31,1,continuous,13,80,fixationCross,5148878.0,5151011.0,2133.0,13,R,5147479,5147711,234,642.2,486.3,4880,left
31,1,continuous,13,80,fixationCross,5148878.0,5151011.0,2133.0,13,R,5147737,5147885,150,516.6,486.3,5109,left
31,1,continuous,13,80,fixationCross,5148878.0,5151011.0,2133.0,13,R,5147897,5148549,654,474.9,501.4,5199,left
31,1,continuous,13,80,fixationCross,5148878.0,5151011.0,2133.0,13,R,5148597,5148735,140,1001.6,515.7,5182,NA
31,1,continuous,13,80,trial,5148878.0,5151011.0,2133.0,13,R,5148749,5149023,276,970.2,535.9,5187,NA
31,1,continuous,13,80,trial,5148878.0,5151011.0,2133.0,13,R,5149075,5149233,160,508.8,508.2,5246,left
31,1,continuous,13,80,trial,5148878.0,5151011.0,2133.0,13,R,5149255,5149553,300,613.8,471.1,5027,left
31,1,continuous,13,80,trial,5148878.0,5151011.0,2133.0,13,R,5149593,5149891,300,331.0,479.3,4856,left
31,1,continuous,13,80,trial,5148878.0,5151011.0,2133.0,13,R,5149961,5150231,272,1429.8,412.6,4834,right
31,1,continuous,13,80,trial,5148878.0,5151011.0,2133.0,13,R,5150263,5150735,474,1371.2,527.6,4909,right
31,1,continuous,13,80,trial,5148878.0,5151011.0,2133.0,13,R,5150793,5151301,510,1337.5,1012.8,5036,NA
31,1,continuous,14,69,fixationCross,5153595.0,5155645.0,2050.0,14,R,5151607,5151715,110,1090.9,575.8,5320,NA
31,1,continuous,14,69,fixationCross,5153595.0,5155645.0,2050.0,14,R,5151755,5152675,922,818.0,513.9,5247,NA
31,1,continuous,14,69,fixationCross,5153595.0,5155645.0,2050.0,14,R,5152689,5153343,656,759.8,488.4,5275,NA
31,1,continuous,14,69,fixationCross,5153595.0,5155645.0,2050.0,14,R,5153365,5153529,166,878.8,485.2,5206,NA
31,1,continuous,14,69,trial,5153595.0,5155645.0,2050.0,14,R,5153547,5153761,216,952.2,528.4,5269,NA
31,1,continuous,14,69,trial,5153595.0,5155645.0,2050.0,14,R,5153815,5153961,148,520.9,515.8,5360,left
31,1,continuous,14,69,trial,5153595.0,5155645.0,2050.0,14,R,5153981,5154127,148,600.7,492.2,5188,left
31,1,continuous,14,69,trial,5153595.0,5155645.0,2050.0,14,R,5154189,5154485,298,1514.1,474.8,4761,right
31,1,continuous,14,69,trial,5153595.0,5155645.0,2050.0,14,R,5154505,5154795,292,1439.3,486.8,4692,right
31,1,continuous,14,69,trial,5153595.0,5155645.0,2050.0,14,R,5154815,5155909,1096,1511.7,527.6,4819,right
31,1,continuous,15,72,fixationCross,5156878.0,5159128.0,2250.0,15,R,5156195,5156409,216,675.9,268.5,5256,NA
31,1,continuous,15,72,fixationCross,5156878.0,5159128.0,2250.0,15,R,5156445,5156571,128,883.6,427.0,5502,NA
31,1,continuous,15,72,trial,5156878.0,5159128.0,2250.0,15,R,5156595,5157017,424,953.9,534.1,5123,NA
31,1,continuous,15,72,trial,5156878.0,5159128.0,2250.0,15,R,5157067,5157163,98,443.7,507.7,5201,left
31,1,continuous,15,72,trial,5156878.0,5159128.0,2250.0,15,R,5157183,5157969,788,384.5,441.9,4927,left
31,1,continuous,15,72,trial,5156878.0,5159128.0,2250.0,15,R,5158045,5158315,272,1535.3,460.8,4855,right
31,1,continuous,15,72,trial,5156878.0,5159128.0,2250.0,15,R,5158345,5158879,536,1595.7,642.0,4859,right
31,1,continuous,15,72,trial,5156878.0,5159128.0,2250.0,15,R,5158919,5159105,188,1278.6,809.1,4819,NA
31,1,continuous,15,72,postResponse,5156878.0,5159128.0,2250.0,15,R,5159137,5159465,330,1191.7,981.2,5002,NA
31,1,continuous,16,100,fixationCross,5161928.0,5164812.0,2884.0,16,R,5159587,5159735,150,960.4,491.4,5211,NA
31,1,continuous,16,100,fixationCross,5161928.0,5164812.0,2884.0,16,R,5159787,5160065,280,653.2,414.5,5158,left
31,1,continuous,16,100,fixationCross,5161928.0,5164812.0,2884.0,16,R,5160081,5160219,140,577.6,437.9,5075,left
31,1,continuous,16,100,fixationCross,5161928.0,5164812.0,2884.0,16,R,5160233,5160449,218,533.5,468.6,5061,left
31,1,continuous,16,100,fixationCross,5161928.0,5164812.0,2884.0,16,R,5160461,5161353,894,473.3,500.6,5102,left
31,1,continuous,16,100,fixationCross,5161928.0,5164812.0,2884.0,16,R,5161495,5161597,104,631.4,480.3,5067,left
31,1,continuous,16,100,fixationCross,5161928.0,5164812.0,2884.0,16,R,5161645,5161795,152,1011.2,493.9,5048,NA
31,1,continuous,16,100,fixationCross,5161928.0,5164812.0,2884.0,16,R,5161807,5161915,110,988.0,519.0,5086,NA
31,1,continuous,16,100,trial,5161928.0,5164812.0,2884.0,16,R,5162139,5162229,92,982.9,516.5,5153,NA
31,1,continuous,16,100,trial,5161928.0,5164812.0,2884.0,16,R,5162281,5162489,210,532.3,508.5,5261,left
31,1,continuous,16,100,trial,5161928.0,5164812.0,2884.0,16,R,5162509,5162707,200,468.8,527.1,4843,left
31,1,continuous,16,100,trial,5161928.0,5164812.0,2884.0,16,R,5162725,5162839,116,537.7,558.0,4524,left
31,1,continuous,16,100,trial,5161928.0,5164812.0,2884.0,16,R,5162917,5163027,112,1583.8,492.8,4371,right
31,1,continuous,16,100,trial,5161928.0,5164812.0,2884.0,16,R,5163053,5163325,274,1431.4,506.2,4535,right
31,1,continuous,16,100,trial,5161928.0,5164812.0,2884.0,16,R,5163345,5163785,442,1399.7,574.5,4886,right
31,1,continuous,16,100,postResponse,5161928.0,5164812.0,2884.0,16,R,5163807,5165145,1340,1392.9,624.2,5679,right
31,1,continuous,17,1,fixationCross,5166178.0,5168978.0,2800.0,17,R,5165219,5165377,160,1396.8,616.4,6011,right
31,1,continuous,17,1,fixationCross,5166178.0,5168978.0,2800.0,17,R,5165563,5165703,142,546.6,350.3,6281,left
31,1,continuous,17,1,fixationCross,5166178.0,5168978.0,2800.0,17,R,5165749,5165875,128,925.8,438.5,6329,NA
31,1,continuous,17,1,trial,5166178.0,5168978.0,2800.0,17,R,5165895,5166393,500,962.1,546.0,5899,NA
31,1,continuous,17,1,trial,5166178.0,5168978.0,2800.0,17,R,5166445,5166731,288,502.1,561.2,5812,left
31,1,continuous,17,1,trial,5166178.0,5168978.0,2800.0,17,R,5166745,5166925,182,531.6,589.8,5480,left
31,1,continuous,17,1,trial,5166178.0,5168978.0,2800.0,17,R,5166989,5167215,228,1433.8,561.4,5268,right
31,1,continuous,17,1,trial,5166178.0,5168978.0,2800.0,17,R,5167237,5167429,194,1524.4,531.7,5255,right
31,1,continuous,17,1,trial,5166178.0,5168978.0,2800.0,17,R,5167449,5167725,278,1601.4,478.6,5105,right
31,1,continuous,17,1,trial,5166178.0,5168978.0,2800.0,17,R,5167803,5168077,276,483.2,544.1,5305,left
31,1,continuous,17,1,trial,5166178.0,5168978.0,2800.0,17,R,5168091,5168341,252,535.6,566.2,5243,left
31,1,continuous,17,1,trial,5166178.0,5168978.0,2800.0,17,R,5168379,5168591,214,361.3,413.5,5142,left
31,1,continuous,17,1,trial,5166178.0,5168978.0,2800.0,17,R,5168613,5168801,190,451.8,456.2,5103,left
31,1,continuous,17,1,postResponse,5166178.0,5168978.0,2800.0,17,R,5168819,5169313,496,524.4,473.1,5060,left
31,1,continuous,18,100,fixationCross,5170195.0,5172195.0,2000.0,18,R,5169499,5169595,98,1240.5,361.4,5147,right
31,1,continuous,18,100,fixationCross,5170195.0,5172195.0,2000.0,18,R,5169637,5169867,232,947.0,402.0,5360,NA
31,1,continuous,18,100,fixationCross,5170195.0,5172195.0,2000.0,18,R,5169889,5170077,190,968.4,468.8,5361,NA
31,1,continuous,18,100,trial,5170195.0,5172195.0,2000.0,18,R,5170099,5170341,244,956.6,529.8,5297,NA
31,1,continuous,18,100,trial,5170195.0,5172195.0,2000.0,18,R,5170389,5170583,196,587.1,520.8,5387,left
31,1,continuous,18,100,trial,5170195.0,5172195.0,2000.0,18,R,5170601,5170861,262,639.2,512.4,4923,left
31,1,continuous,18,100,trial,5170195.0,5172195.0,2000.0,18,R,5170877,5170971,96,625.7,473.3,4565,left
31,1,continuous,18,100,trial,5170195.0,5172195.0,2000.0,18,R,5171029,5171411,384,1434.6,492.9,4423,right
31,1,continuous,18,100,trial,5170195.0,5172195.0,2000.0,18,R,5171431,5171491,62,1462.9,463.8,4615,right
31,1,continuous,18,100,trial,5170195.0,5172195.0,2000.0,18,R,5171505,5171997,494,1451.0,426.5,4836,right
31,1,continuous,18,100,trial,5170195.0,5172195.0,2000.0,18,R,5172023,5172499,478,1526.9,448.3,5201,right
31,1,continuous,19,79,fixationCross,5173295.0,5174762.0,1467.0,19,R,5172795,5172995,202,729.2,435.2,5418,left
31,1,continuous,19,79,fixationCross,5173295.0,5174762.0,1467.0,19,R,5173029,5173273,246,897.9,492.7,5535,NA
31,1,continuous,19,79,trial,5173295.0,5174762.0,1467.0,19,R,5173287,5173441,156,950.6,522.0,5147,NA
31,1,continuous,19,79,trial,5173295.0,5174762.0,1467.0,19,R,5173487,5173609,124,524.7,505.4,5038,left
31,1,continuous,19,79,trial,5173295.0,5174762.0,1467.0,19,R,5173627,5173825,200,472.0,508.0,4994,left
31,1,continuous,19,79,trial,5173295.0,5174762.0,1467.0,19,R,5173891,5174087,198,1490.8,559.8,4614,right
31,1,continuous,19,79,trial,5173295.0,5174762.0,1467.0,19,R,5174099,5174549,452,1445.7,557.8,4521,right
31,1,continuous,19,79,trial,5173295.0,5174762.0,1467.0,19,R,5174569,5175077,510,1382.5,631.1,4813,right
31,1,continuous,20,22,fixationCross,5177545.0,5179212.0,1667.0,20,R,5175373,5175721,350,859.1,429.2,5479,NA
31,1,continuous,20,22,fixationCross,5177545.0,5179212.0,1667.0,20,R,5175769,5176045,278,537.6,481.6,5172,left
31,1,continuous,20,22,fixationCross,5177545.0,5179212.0,1667.0,20,R,5176059,5176995,938,483.9,511.6,5027,left
31,1,continuous,20,22,fixationCross,5177545.0,5179212.0,1667.0,20,R,5177043,5177139,98,945.5,501.9,5077,NA
31,1,continuous,20,22,trial,5177545.0,5179212.0,1667.0,20,R,5177401,5177561,162,1004.4,577.0,5273,NA
31,1,continuous,20,22,trial,5177545.0,5179212.0,1667.0,20,R,5177571,5177705,136,976.4,561.5,5454,NA
31,1,continuous,20,22,trial,5177545.0,5179212.0,1667.0,20,R,5177759,5178171,414,465.7,541.8,5068,left
31,1,continuous,20,22,trial,5177545.0,5179212.0,1667.0,20,R,5178187,5178357,172,519.7,565.6,4596,left
31,1,continuous,20,22,trial,5177545.0,5179212.0,1667.0,20,R,5178387,5178631,246,284.3,513.5,4736,left
31,1,continuous,20,22,trial,5177545.0,5179212.0,1667.0,20,R,5178711,5178969,260,1538.4,538.1,4776,right
31,1,continuous,20,22,trial,5177545.0,5179212.0,1667.0,20,R,5179003,5179117,116,1266.2,514.5,4928,right
31,1,continuous,20,22,trial,5177545.0,5179212.0,1667.0,20,R,5179179,5179517,340,472.8,534.9,4919,left
31,1,continuous,21,22,fixationCross,5180361.0,5181545.0,1184.0,21,R,5179979,5180025,48,1712.4,499.4,4928,NA
31,1,continuous,21,22,fixationCross,5180361.0,5181545.0,1184.0,21,R,5180077,5180209,134,1045.2,540.6,5325,NA
31,1,continuous,21,22,trial,5180361.0,5181545.0,1184.0,21,R,5180229,5180533,306,968.5,544.1,5294,NA
31,1,continuous,21,22,trial,5180361.0,5181545.0,1184.0,21,R,5180589,5180861,274,527.9,518.1,4905,left
31,1,continuous,21,22,trial,5180361.0,5181545.0,1184.0,21,R,5180891,5181045,156,455.1,374.9,4778,left
31,1,continuous,21,22,trial,5180361.0,5181545.0,1184.0,21,R,5181061,5181277,218,398.0,401.6,4713,left
31,1,continuous,21,22,trial,5180361.0,5181545.0,1184.0,21,R,5181341,5181513,174,1411.8,501.6,4839,right
31,1,continuous,21,22,postResponse,5180361.0,5181545.0,1184.0,21,R,5181539,5181879,342,1398.6,398.8,4886,right
31,1,continuous,22,80,fixationCross,5184611.0,5185245.0,634.0,22,R,5182449,5182933,486,672.1,391.9,5386,left
31,1,continuous,22,80,fixationCross,5184611.0,5185245.0,634.0,22,R,5182955,5183547,594,562.7,455.7,4913,left
31,1,continuous,22,80,fixationCross,5184611.0,5185245.0,634.0,22,R,5183567,5184193,628,488.8,482.2,5204,left
31,1,continuous,22,80,fixationCross,5184611.0,5185245.0,634.0,22,R,5184469,5184511,44,1019.4,501.3,5100,NA
31,1,continuous,22,80,trial,5184611.0,5185245.0,634.0,22,R,5184525,5184655,132,969.5,531.7,5151,NA
31,1,continuous,22,80,trial,5184611.0,5185245.0,634.0,22,R,5184665,5184779,116,943.7,552.4,5308,NA
31,1,continuous,22,80,trial,5184611.0,5185245.0,634.0,22,R,5184829,5185025,198,535.3,525.4,5206,left
31,1,continuous,22,80,trial,5184611.0,5185245.0,634.0,22,R,5185085,5185501,418,1435.0,478.9,4589,right
31,1,continuous,23,27,fixationCross,5186545.0,5187145.0,600.0,23,R,5186143,5186219,78,741.5,488.2,5466,NA
31,1,continuous,23,27,fixationCross,5186545.0,5187145.0,600.0,23,R,5186247,5186409,164,928.7,500.6,5554,NA
31,1,continuous,23,27,trial,5186545.0,5187145.0,600.0,23,R,5186421,5186707,288,964.1,517.3,5120,NA
31,1,continuous,23,27,trial,5186545.0,5187145.0,600.0,23,R,5186757,5187455,700,511.3,489.6,4621,left
31,1,continuous,24,9,fixationCross,5188529.0,5190145.0,1616.0,24,R,5187849,5188001,154,2069.3,304.2,4980,NA
31,1,continuous,24,9,fixationCross,5188529.0,5190145.0,1616.0,24,R,5188075,5188197,124,1178.4,396.2,5514,NA
31,1,continuous,24,9,trial,5188529.0,5190145.0,1616.0,24,R,5188223,5188689,468,964.3,517.6,5009,NA
31,1,continuous,24,9,trial,5188529.0,5190145.0,1616.0,24,R,5188737,5188955,220,1442.4,483.9,5050,right
31,1,continuous,24,9,trial,5188529.0,5190145.0,1616.0,24,R,5189019,5189363,346,464.9,493.8,5057,left
31,1,continuous,24,9,trial,5188529.0,5190145.0,1616.0,24,R,5189379,5189787,410,420.3,496.4,5225,left
31,1,continuous,24,9,trial,5188529.0,5190145.0,1616.0,24,R,5189803,5190447,646,478.0,472.9,5396,left
31,1,continuous,25,1,fixationCross,5191261.0,5192862.0,1601.0,25,R,5190763,5190801,40,1281.9,430.5,5988,right
31,1,continuous,25,1,fixationCross,5191261.0,5192862.0,1601.0,25,R,5190811,5190937,128,1276.4,494.6,5916,right
31,1,continuous,25,1,trial,5191261.0,5192862.0,1601.0,25,R,5190969,5191429,462,982.0,522.0,5936,NA
31,1,continuous,25,1,trial,5191261.0,5192862.0,1601.0,25,R,5191475,5191621,148,1344.6,505.8,5213,right
31,1,continuous,25,1,trial,5191261.0,5192862.0,1601.0,25,R,5191641,5191813,174,1449.4,528.3,4819,right
31,1,continuous,25,1,trial,5191261.0,5192862.0,1601.0,25,R,5191875,5192065,192,624.0,561.3,4600,left
31,1,continuous,25,1,trial,5191261.0,5192862.0,1601.0,25,R,5192091,5192785,696,466.3,571.2,4365,left
31,1,continuous,25,1,trial,5191261.0,5192862.0,1601.0,25,R,5192975,5193173,200,503.2,532.0,4801,left
31,1,continuous,26,35,fixationCross,5218596.0,5220796.0,2200.0,26,R,5217901,5218091,192,260.6,8.4,4481,NA
31,1,continuous,26,35,fixationCross,5218596.0,5220796.0,2200.0,26,R,5218313,5218387,76,955.9,307.4,4424,NA
31,1,continuous,26,35,fixationCross,5218596.0,5220796.0,2200.0,26,R,5218417,5218551,136,951.4,482.6,4787,NA
31,1,continuous,26,35,trial,5218596.0,5220796.0,2200.0,26,R,5218571,5218763,194,959.7,545.9,5242,NA
31,1,continuous,26,35,trial,5218596.0,5220796.0,2200.0,26,R,5218813,5219195,384,532.7,525.5,5504,left
31,1,continuous,26,35,trial,5218596.0,5220796.0,2200.0,26,R,5219209,5219331,124,514.0,549.1,5345,left
31,1,continuous,26,35,trial,5218596.0,5220796.0,2200.0,26,R,5219395,5219795,402,1520.1,479.2,5168,right
31,1,continuous,26,35,trial,5218596.0,5220796.0,2200.0,26,R,5219815,5220105,292,1581.9,446.8,5022,right
31,1,continuous,26,35,trial,5218596.0,5220796.0,2200.0,26,R,5220175,5220483,310,536.0,478.6,5315,left
31,1,continuous,26,35,trial,5218596.0,5220796.0,2200.0,26,R,5220509,5220741,234,407.0,483.5,5436,left
31,1,continuous,26,35,trial,5218596.0,5220796.0,2200.0,26,R,5220767,5221031,266,500.3,575.0,5319,left
31,1,continuous,26,35,postResponse,5218596.0,5220796.0,2200.0,26,R,5221073,5221155,84,779.0,784.8,5475,likertHorizontal
31,1,continuous,27,100,fixationCross,5221912.0,5224645.0,2733.0,27,R,5221255,5221587,334,775.0,762.1,5947,likertHorizontal
31,1,continuous,27,100,trial,5221912.0,5224645.0,2733.0,27,R,5221627,5222077,452,983.9,513.1,5850,NA
31,1,continuous,27,100,trial,5221912.0,5224645.0,2733.0,27,R,5222131,5222509,380,491.9,488.1,5624,left
31,1,continuous,27,100,trial,5221912.0,5224645.0,2733.0,27,R,5222575,5222779,206,1477.2,513.1,4929,right
31,1,continuous,27,100,trial,5221912.0,5224645.0,2733.0,27,R,5222797,5223371,576,1538.7,452.8,4891,right
31,1,continuous,27,100,trial,5221912.0,5224645.0,2733.0,27,R,5223397,5223533,138,1390.8,504.4,5141,right
31,1,continuous,27,100,trial,5221912.0,5224645.0,2733.0,27,R,5223555,5223723,170,1338.6,563.8,5231,right
31,1,continuous,27,100,trial,5221912.0,5224645.0,2733.0,27,R,5223735,5223947,214,1364.0,578.4,5283,right
31,1,continuous,27,100,trial,5221912.0,5224645.0,2733.0,27,R,5223969,5224141,174,1396.0,516.0,5154,right
31,1,continuous,27,100,trial,5221912.0,5224645.0,2733.0,27,R,5224207,5224533,328,502.2,511.7,5206,left
31,1,continuous,27,100,trial,5221912.0,5224645.0,2733.0,27,R,5224555,5224895,342,403.3,499.6,4958,left
31,1,continuous,28,8,fixationCross,5225829.0,5228412.0,2583.0,28,R,5225135,5225505,372,850.6,406.1,5236,NA
31,1,continuous,28,8,fixationCross,5225829.0,5228412.0,2583.0,28,R,5225533,5225751,220,944.9,463.1,5352,NA
31,1,continuous,28,8,trial,5225829.0,5228412.0,2583.0,28,R,5225761,5225927,168,953.4,499.8,5123,NA
31,1,continuous,28,8,trial,5225829.0,5228412.0,2583.0,28,R,5225937,5225977,42,962.9,521.1,5142,NA
31,1,continuous,28,8,trial,5225829.0,5228412.0,2583.0,28,R,5226025,5226225,202,560.4,533.8,5238,left
31,1,continuous,28,8,trial,5225829.0,5228412.0,2583.0,28,R,5226243,5226427,186,495.9,527.0,5028,left
31,1,continuous,28,8,trial,5225829.0,5228412.0,2583.0,28,R,5226491,5226961,472,1494.7,515.0,4583,right
31,1,continuous,28,8,trial,5225829.0,5228412.0,2583.0,28,R,5227033,5227373,342,506.9,554.1,4670,left
31,1,continuous,28,8,trial,5225829.0,5228412.0,2583.0,28,R,5227437,5227719,284,1491.0,528.6,4782,right
31,1,continuous,28,8,trial,5225829.0,5228412.0,2583.0,28,R,5227745,5228073,330,1623.3,620.4,4698,right
31,1,continuous,28,8,trial,5225829.0,5228412.0,2583.0,28,R,5228153,5228727,576,567.9,989.2,5151,NA
31,1,continuous,29,29,fixationCross,5230546.0,5232729.0,2183.0,29,R,5228847,5228989,144,1090.2,1044.3,5095,likertHorizontal
31,1,continuous,29,29,fixationCross,5230546.0,5232729.0,2183.0,29,R,5229049,5229237,190,983.3,367.6,5279,NA
31,1,continuous,29,29,fixationCross,5230546.0,5232729.0,2183.0,29,R,5229261,5229841,582,952.7,418.3,5265,NA
31,1,continuous,29,29,fixationCross,5230546.0,5232729.0,2183.0,29,R,5229863,5230239,378,873.9,441.8,5487,NA
31,1,continuous,29,29,trial,5230546.0,5232729.0,2183.0,29,R,5230265,5230687,424,971.6,535.8,5478,NA
31,1,continuous,29,29,trial,5230546.0,5232729.0,2183.0,29,R,5230733,5231067,336,517.7,504.6,5363,left
31,1,continuous,29,29,trial,5230546.0,5232729.0,2183.0,29,R,5231093,5231355,264,488.1,603.0,4839,left
31,1,continuous,29,29,trial,5230546.0,5232729.0,2183.0,29,R,5231373,5231553,182,486.3,531.3,4681,left
31,1,continuous,29,29,trial,5230546.0,5232729.0,2183.0,29,R,5231589,5231855,268,385.1,426.8,4488,left
31,1,continuous,29,29,trial,5230546.0,5232729.0,2183.0,29,R,5231873,5231981,110,295.0,424.8,4447,left
31,1,continuous,29,29,trial,5230546.0,5232729.0,2183.0,29,R,5231993,5232089,98,309.9,354.8,4594,left
31,1,continuous,29,29,trial,5230546.0,5232729.0,2183.0,29,R,5232157,5232397,242,1453.7,521.7,4723,right
31,1,continuous,29,29,trial,5230546.0,5232729.0,2183.0,29,R,5232419,5232893,476,1367.9,565.5,4988,right
31,1,continuous,30,31,fixationCross,5233828.0,5234962.0,1134.0,30,R,5233369,5233493,126,585.5,390.2,5420,left
31,1,continuous,30,31,fixationCross,5233828.0,5234962.0,1134.0,30,R,5233537,5233669,134,943.9,458.3,5642,NA
31,1,continuous,30,31,trial,5233828.0,5234962.0,1134.0,30,R,5233689,5233975,288,973.0,534.3,5360,NA
31,1,continuous,30,31,trial,5233828.0,5234962.0,1134.0,30,R,5234025,5234321,298,484.7,502.5,5114,left
31,1,continuous,30,31,trial,5233828.0,5234962.0,1134.0,30,R,5234345,5234567,224,369.4,421.1,4911,left
31,1,continuous,30,31,trial,5233828.0,5234962.0,1134.0,30,R,5234633,5235157,526,1334.2,513.3,4802,right
31,1,continuous,31,22,fixationCross,5238212.0,5239662.0,1450.0,31,R,5235485,5235665,182,1323.7,452.1,5377,right
31,1,continuous,31,22,fixationCross,5238212.0,5239662.0,1450.0,31,R,5235719,5236225,508,769.2,426.0,5364,NA
31,1,continuous,31,22,fixationCross,5238212.0,5239662.0,1450.0,31,R,5236263,5236537,276,602.9,496.4,5062,left
31,1,continuous,31,22,fixationCross,5238212.0,5239662.0,1450.0,31,R,5236555,5236755,202,534.5,491.8,5405,left
31,1,continuous,31,22,fixationCross,5238212.0,5239662.0,1450.0,31,R,5236767,5237063,298,505.4,489.5,5291,left
31,1,continuous,31,22,fixationCross,5238212.0,5239662.0,1450.0,31,R,5237075,5237751,678,482.2,490.7,5121,left
31,1,continuous,31,22,fixationCross,5238212.0,5239662.0,1450.0,31,R,5237953,5238027,76,991.3,503.8,5088,NA
31,1,continuous,31,22,fixationCross,5238212.0,5239662.0,1450.0,31,R,5238041,5238141,102,965.9,532.1,5149,NA
31,1,continuous,31,22,trial,5238212.0,5239662.0,1450.0,31,R,5238361,5238449,90,982.4,509.1,5412,NA
31,1,continuous,31,22,trial,5238212.0,5239662.0,1450.0,31,R,5238509,5238757,250,507.6,482.8,5364,left
31,1,continuous,31,22,trial,5238212.0,5239662.0,1450.0,31,R,5238779,5238961,184,409.5,455.2,4684,left
31,1,continuous,31,22,trial,5238212.0,5239662.0,1450.0,31,R,5238983,5239181,200,333.3,492.7,4296,left
31,1,continuous,31,22,trial,5238212.0,5239662.0,1450.0,31,R,5239245,5239435,192,1368.2,562.9,4298,right
31,1,continuous,31,22,trial,5238212.0,5239662.0,1450.0,31,R,5239459,5239873,416,1286.4,617.9,4426,right
31,1,continuous,32,2,fixationCross,5240579.0,5242229.0,1650.0,32,R,5240325,5240355,32,937.2,465.2,5288,NA
31,1,continuous,32,2,fixationCross,5240579.0,5242229.0,1650.0,32,R,5240367,5240481,116,918.9,540.8,5219,NA
31,1,continuous,32,2,trial,5240579.0,5242229.0,1650.0,32,R,5240497,5240751,256,961.9,541.2,5396,NA
31,1,continuous,32,2,trial,5240579.0,5242229.0,1650.0,32,R,5240797,5240961,166,548.2,491.1,4942,left
31,1,continuous,32,2,trial,5240579.0,5242229.0,1650.0,32,R,5240977,5241461,486,487.4,446.7,4558,left
31,1,continuous,32,2,trial,5240579.0,5242229.0,1650.0,32,R,5241507,5241879,374,736.2,955.3,5079,NA
31,1,continuous,32,2,trial,5240579.0,5242229.0,1650.0,32,R,5241909,5242059,152,567.5,940.8,5607,NA
31,1,continuous,32,2,postResponse,5240579.0,5242229.0,1650.0,32,R,5242133,5242563,432,1489.3,563.6,5337,right
31,1,continuous,33,100,fixationCross,5243279.0,5245379.0,2100.0,33,R,5242639,5242951,314,1483.7,560.9,5177,right
31,1,continuous,33,100,fixationCross,5243279.0,5245379.0,2100.0,33,R,5243005,5243137,134,920.3,516.5,5692,NA
31,1,continuous,33,100,trial,5243279.0,5245379.0,2100.0,33,R,5243149,5243425,278,953.3,523.0,5635,NA
31,1,continuous,33,100,trial,5243279.0,5245379.0,2100.0,33,R,5243473,5243809,338,511.8,477.9,5440,left
31,1,continuous,33,100,trial,5243279.0,5245379.0,2100.0,33,R,5243871,5244131,262,1439.1,545.4,4830,right
31,1,continuous,33,100,trial,5243279.0,5245379.0,2100.0,33,R,5244149,5244377,230,1510.1,504.1,4742,right
31,1,continuous,33,100,trial,5243279.0,5245379.0,2100.0,33,R,5244395,5244655,262,1510.0,456.5,4737,right
31,1,continuous,33,100,trial,5243279.0,5245379.0,2100.0,33,R,5244681,5244963,284,1591.5,582.0,4908,right
31,1,continuous,33,100,trial,5243279.0,5245379.0,2100.0,33,R,5244983,5245263,282,1584.0,627.2,5191,right
31,1,continuous,33,100,trial,5243279.0,5245379.0,2100.0,33,R,5245341,5245675,336,476.7,489.6,5252,left
31,1,continuous,34,87,fixationCross,5246545.0,5248479.0,1934.0,34,R,5245971,5246239,270,880.9,387.8,5242,NA
31,1,continuous,34,87,fixationCross,5246545.0,5248479.0,1934.0,34,R,5246267,5246409,144,972.8,454.5,5465,NA
31,1,continuous,34,87,trial,5246545.0,5248479.0,1934.0,34,R,5246427,5246695,270,976.9,530.7,5083,NA
31,1,continuous,34,87,trial,5246545.0,5248479.0,1934.0,34,R,5246745,5246937,194,488.3,497.9,5015,left
31,1,continuous,34,87,trial,5246545.0,5248479.0,1934.0,34,R,5246945,5247131,188,465.5,492.8,4882,left
31,1,continuous,34,87,trial,5246545.0,5248479.0,1934.0,34,R,5247197,5247317,122,1531.7,440.4,4529,right
31,1,continuous,34,87,trial,5246545.0,5248479.0,1934.0,34,R,5247337,5248493,1158,1435.4,441.1,4604,right
31,1,continuous,34,87,trial,5246545.0,5248479.0,1934.0,34,R,5248543,5248699,158,1403.3,947.1,4928,NA
31,1,continuous,35,77,fixationCross,5249529.0,5251196.0,1667.0,35,R,5249035,5249049,16,1157.7,447.5,5400,NA
31,1,continuous,35,77,fixationCross,5249529.0,5251196.0,1667.0,35,R,5249075,5249237,164,1139.5,505.0,5304,NA
31,1,continuous,35,77,trial,5249529.0,5251196.0,1667.0,35,R,5249263,5249667,406,967.5,528.9,5334,NA
31,1,continuous,35,77,trial,5249529.0,5251196.0,1667.0,35,R,5249711,5249991,282,562.9,508.0,4978,left
31,1,continuous,35,77,trial,5249529.0,5251196.0,1667.0,35,R,5250011,5250103,94,562.3,561.7,4825,left
31,1,continuous,35,77,trial,5249529.0,5251196.0,1667.0,35,R,5250167,5250387,222,1451.2,512.6,4563,right
31,1,continuous,35,77,trial,5249529.0,5251196.0,1667.0,35,R,5250411,5250561,152,1416.0,574.2,4732,right
31,1,continuous,35,77,trial,5249529.0,5251196.0,1667.0,35,R,5250579,5250789,212,1439.8,644.6,4954,right
31,1,continuous,35,77,trial,5249529.0,5251196.0,1667.0,35,R,5250859,5251059,202,540.0,521.7,5141,left
31,1,continuous,35,77,trial,5249529.0,5251196.0,1667.0,35,R,5251077,5251407,332,587.7,560.2,4921,left
31,1,continuous,36,1,fixationCross,5252246.0,5254513.0,2267.0,36,R,5251761,5251943,184,1159.1,437.4,4958,NA
31,1,continuous,36,1,fixationCross,5252246.0,5254513.0,2267.0,36,R,5251967,5252083,118,1016.1,492.1,5277,NA
31,1,continuous,36,1,trial,5252246.0,5254513.0,2267.0,36,R,5252099,5252403,306,979.7,528.3,5178,NA
31,1,continuous,36,1,trial,5252246.0,5254513.0,2267.0,36,R,5252453,5252599,148,560.3,554.9,5067,left
31,1,continuous,36,1,trial,5252246.0,5254513.0,2267.0,36,R,5252611,5252807,198,585.6,581.8,4897,left
31,1,continuous,36,1,trial,5252246.0,5254513.0,2267.0,36,R,5252865,5253049,186,1425.5,540.4,4535,right
31,1,continuous,36,1,trial,5252246.0,5254513.0,2267.0,36,R,5253117,5253291,176,462.4,499.6,4584,left
31,1,continuous,36,1,trial,5252246.0,5254513.0,2267.0,36,R,5253313,5253557,246,368.2,495.5,4670,left
31,1,continuous,36,1,trial,5252246.0,5254513.0,2267.0,36,R,5253597,5253795,200,497.0,886.5,4872,NA
31,1,continuous,36,1,trial,5252246.0,5254513.0,2267.0,36,R,5253815,5253977,164,511.3,938.2,5061,NA
31,1,continuous,36,1,trial,5252246.0,5254513.0,2267.0,36,R,5254025,5254251,228,661.4,575.3,5028,left
31,1,continuous,36,1,trial,5252246.0,5254513.0,2267.0,36,R,5254313,5254551,240,1453.9,475.4,4650,right
31,1,continuous,36,1,postResponse,5252246.0,5254513.0,2267.0,36,R,5254617,5254847,232,511.5,542.6,4804,left
31,1,continuous,37,20,fixationCross,5255646.0,5257330.0,1684.0,37,R,5255079,5255331,254,1055.4,384.1,5031,NA
31,1,continuous,37,20,fixationCross,5255646.0,5257330.0,1684.0,37,R,5255361,5255467,108,981.9,484.0,5332,NA
31,1,continuous,37,20,trial,5255646.0,5257330.0,1684.0,37,R,5255483,5255803,322,962.7,536.8,5099,NA
31,1,continuous,37,20,trial,5255646.0,5257330.0,1684.0,37,R,5255853,5256015,164,535.9,546.0,5001,left
31,1,continuous,37,20,trial,5255646.0,5257330.0,1684.0,37,R,5256041,5256415,376,512.4,616.9,4764,left
31,1,continuous,37,20,trial,5255646.0,5257330.0,1684.0,37,R,5256475,5256655,182,1360.8,552.3,4510,right
31,1,continuous,37,20,trial,5255646.0,5257330.0,1684.0,37,R,5256675,5257119,446,1446.9,546.2,4594,right
31,1,continuous,37,20,trial,5255646.0,5257330.0,1684.0,37,R,5257181,5257527,348,693.5,712.7,4931,left
31,1,continuous,38,100,fixationCross,5258430.0,5259462.0,1032.0,38,R,5258003,5258037,36,1280.4,360.3,5272,right
31,1,continuous,38,100,fixationCross,5258430.0,5259462.0,1032.0,38,R,5258047,5258103,58,1279.8,432.5,5152,right
31,1,continuous,38,100,fixationCross,5258430.0,5259462.0,1032.0,38,R,5258135,5258251,118,1018.6,502.2,5365,NA
31,1,continuous,38,100,trial,5258430.0,5259462.0,1032.0,38,R,5258263,5258619,358,979.6,536.2,5220,NA
31,1,continuous,38,100,trial,5258430.0,5259462.0,1032.0,38,R,5258667,5258843,178,1376.9,558.0,4730,right
31,1,continuous,38,100,trial,5258430.0,5259462.0,1032.0,38,R,5258865,5259375,512,1460.4,594.4,4418,right
31,1,continuous,38,100,trial,5258430.0,5259462.0,1032.0,38,R,5259445,5259671,228,541.8,556.4,4683,left
31,1,continuous,39,100,fixationCross,5260495.0,5262396.0,1901.0,39,R,5260029,5260159,132,1420.4,469.2,4922,right
31,1,continuous,39,100,fixationCross,5260495.0,5262396.0,1901.0,39,R,5260207,5260339,134,1000.3,460.2,5327,NA
31,1,continuous,39,100,trial,5260495.0,5262396.0,1901.0,39,R,5260353,5260533,182,963.8,505.0,5170,NA
31,1,continuous,39,100,trial,5260495.0,5262396.0,1901.0,39,R,5260543,5260651,110,952.1,528.7,4900,NA
31,1,continuous,39,100,trial,5260495.0,5262396.0,1901.0,39,R,5260701,5260893,194,543.5,499.3,4866,left
31,1,continuous,39,100,trial,5260495.0,5262396.0,1901.0,39,R,5260919,5261063,146,534.0,387.3,4900,left
31,1,continuous,39,100,trial,5260495.0,5262396.0,1901.0,39,R,5261075,5261213,140,559.3,414.4,4848,left
31,1,continuous,39,100,trial,5260495.0,5262396.0,1901.0,39,R,5261285,5261671,388,1503.5,540.3,4729,right
31,1,continuous,39,100,trial,5260495.0,5262396.0,1901.0,39,R,5261699,5262235,538,1535.0,624.6,5022,right
31,1,continuous,39,100,trial,5260495.0,5262396.0,1901.0,39,R,5262257,5262655,400,1469.2,576.3,5206,right
31,1,continuous,40,6,fixationCross,5263296.0,5265396.0,2100.0,40,R,5262961,5263183,224,1013.6,499.2,5601,NA
31,1,continuous,40,6,trial,5263296.0,5265396.0,2100.0,40,R,5263197,5263449,254,966.1,520.8,5707,NA
31,1,continuous,40,6,trial,5263296.0,5265396.0,2100.0,40,R,5263503,5263649,148,483.1,476.6,5246,left
31,1,continuous,40,6,trial,5263296.0,5265396.0,2100.0,40,R,5263659,5263931,274,509.6,507.5,5028,left
31,1,continuous,40,6,trial,5263296.0,5265396.0,2100.0,40,R,5263961,5264063,104,503.4,607.6,4900,left
31,1,continuous,40,6,trial,5263296.0,5265396.0,2100.0,40,R,5264133,5264281,150,1576.7,459.0,4672,right
31,1,continuous,40,6,trial,5263296.0,5265396.0,2100.0,40,R,5264295,5264683,390,1510.0,471.8,4758,right
31,1,continuous,40,6,trial,5263296.0,5265396.0,2100.0,40,R,5264753,5264855,104,662.4,879.9,5344,NA
31,1,continuous,40,6,trial,5263296.0,5265396.0,2100.0,40,R,5264883,5265275,394,524.7,925.1,5533,NA
31,1,continuous,40,6,trial,5263296.0,5265396.0,2100.0,40,R,5265319,5265695,378,484.5,578.5,5063,left
31,1,continuous,41,74,fixationCross,5266479.0,5267230.0,751.0,41,R,5265997,5266173,178,1105.5,439.8,5186,NA
31,1,continuous,41,74,trial,5266479.0,5267230.0,751.0,41,R,5266199,5266627,430,965.5,539.2,5388,NA
31,1,continuous,41,74,trial,5266479.0,5267230.0,751.0,41,R,5266677,5266809,134,557.6,536.2,5129,left
31,1,continuous,41,74,trial,5266479.0,5267230.0,751.0,41,R,5266881,5267263,384,1484.5,536.0,4598,right
31,1,continuous,41,74,postResponse,5266479.0,5267230.0,751.0,41,R,5267307,5267563,258,1246.2,908.1,4689,NA
31,1,continuous,42,13,fixationCross,5268629.0,5269429.0,800.0,42,R,5267673,5268129,458,965.4,1133.7,5347,likertHorizontal
31,1,continuous,42,13,fixationCross,5268629.0,5269429.0,800.0,42,R,5268145,5268299,156,926.1,1146.4,5472,likertHorizontal
31,1,continuous,42,13,trial,5268629.0,5269429.0,800.0,42,R,5268355,5268781,428,978.2,513.4,5306,NA
31,1,continuous,42,13,trial,5268629.0,5269429.0,800.0,42,R,5268837,5269025,190,485.8,521.3,5260,left
31,1,continuous,42,13,trial,5268629.0,5269429.0,800.0,42,R,5269043,5269643,602,464.5,572.7,5203,left
31,1,continuous,43,80,fixationCross,5270479.0,5271196.0,717.0,43,R,5269967,5270151,186,1294.6,431.5,5239,right
31,1,continuous,43,80,fixationCross,5270479.0,5271196.0,717.0,43,R,5270181,5270321,142,1021.8,537.5,5543,NA
31,1,continuous,43,80,trial,5270479.0,5271196.0,717.0,43,R,5270335,5270673,340,981.8,548.5,5360,NA
31,1,continuous,43,80,trial,5270479.0,5271196.0,717.0,43,R,5270719,5271485,768,1408.4,538.4,5055,right
31,1,continuous,44,25,fixationCross,5272712.0,5273662.0,950.0,44,R,5271605,5271879,276,1897.7,458.7,4974,NA
31,1,continuous,44,25,fixationCross,5272712.0,5273662.0,950.0,44,R,5271943,5272053,112,1855.2,1034.0,4980,NA
31,1,continuous,44,25,fixationCross,5272712.0,5273662.0,950.0,44,R,5272093,5272287,196,1818.3,1237.0,4924,NA
31,1,continuous,44,25,fixationCross,5272712.0,5273662.0,950.0,44,R,5272351,5272481,132,1058.8,565.6,5321,NA
31,1,continuous,44,25,trial,5272712.0,5273662.0,950.0,44,R,5272501,5272849,350,988.6,539.3,5271,NA
31,1,continuous,44,25,trial,5272712.0,5273662.0,950.0,44,R,5272901,5273103,204,538.8,528.5,5375,left
31,1,continuous,44,25,trial,5272712.0,5273662.0,950.0,44,R,5273123,5273285,164,501.2,471.8,5092,left
31,1,continuous,44,25,trial,5272712.0,5273662.0,950.0,44,R,5273301,5273835,536,438.6,448.3,4668,left
31,1,continuous,45,21,fixationCross,5274880.0,5276680.0,1800.0,45,R,5274113,5274333,222,1275.3,512.2,5032,right
31,1,continuous,45,21,fixationCross,5274880.0,5276680.0,1800.0,45,R,5274395,5274545,152,969.8,1000.4,5567,likertHorizontal
31,1,continuous,45,21,fixationCross,5274880.0,5276680.0,1800.0,45,R,5274589,5274709,122,947.5,617.4,5553,NA
31,1,continuous,45,21,trial,5274880.0,5276680.0,1800.0,45,R,5274731,5275049,320,973.8,544.5,5364,NA
31,1,continuous,45,21,trial,5274880.0,5276680.0,1800.0,45,R,5275101,5275341,242,503.5,616.2,5255,left
31,1,continuous,45,21,trial,5274880.0,5276680.0,1800.0,45,R,5275393,5275505,114,868.5,607.1,5033,NA
31,1,continuous,45,21,trial,5274880.0,5276680.0,1800.0,45,R,5275561,5275753,194,1493.1,495.1,4703,right
31,1,continuous,45,21,trial,5274880.0,5276680.0,1800.0,45,R,5275827,5275983,158,472.6,592.8,5037,left
31,1,continuous,45,21,trial,5274880.0,5276680.0,1800.0,45,R,5276003,5276231,230,481.3,638.0,5165,left
31,1,continuous,45,21,trial,5274880.0,5276680.0,1800.0,45,R,5276273,5276853,582,709.9,525.9,4856,left
31,1,continuous,46,8,fixationCross,5277879.0,5279379.0,1500.0,46,R,5277231,5277267,38,1372.4,390.5,5320,right
31,1,continuous,46,8,fixationCross,5277879.0,5279379.0,1500.0,46,R,5277277,5277371,96,1369.4,459.2,5186,right
31,1,continuous,46,8,fixationCross,5277879.0,5279379.0,1500.0,46,R,5277473,5277565,94,876.6,759.2,5622,likertHorizontal
31,1,continuous,46,8,trial,5277879.0,5279379.0,1500.0,46,R,5277601,5278073,474,968.7,558.9,5275,NA
31,1,continuous,46,8,trial,5277879.0,5279379.0,1500.0,46,R,5278127,5279577,1452,532.4,524.4,4832,left
31,1,continuous,47,8,fixationCross,5280663.0,5281497.0,834.0,47,R,5279883,5279917,36,1747.0,525.5,4908,NA
31,1,continuous,47,8,fixationCross,5280663.0,5281497.0,834.0,47,R,5279937,5279987,52,1746.3,609.2,4743,NA
31,1,continuous,47,8,fixationCross,5280663.0,5281497.0,834.0,47,R,5280029,5280221,194,1456.6,647.3,5105,right
31,1,continuous,47,8,fixationCross,5280663.0,5281497.0,834.0,47,R,5280263,5280365,104,1132.1,630.8,5193,NA
31,1,continuous,47,8,trial,5280663.0,5281497.0,834.0,47,R,5280391,5280807,418,965.1,544.5,5015,NA
31,1,continuous,47,8,trial,5280663.0,5281497.0,834.0,47,R,5280855,5281023,170,518.7,539.7,5128,left
31,1,continuous,47,8,trial,5280663.0,5281497.0,834.0,47,R,5281037,5281415,380,481.8,558.8,4845,left
31,1,continuous,47,8,trial,5280663.0,5281497.0,834.0,47,R,5281435,5281685,252,489.3,613.5,4662,left
31,1,continuous,48,100,fixationCross,5282562.0,5283380.0,818.0,48,R,5282175,5282229,56,1480.7,430.1,4822,right
31,1,continuous,48,100,fixationCross,5282562.0,5283380.0,818.0,48,R,5282275,5282391,118,1029.8,489.5,5163,NA
31,1,continuous,48,100,trial,5282562.0,5283380.0,818.0,48,R,5282405,5282735,332,975.6,530.1,5229,NA
31,1,continuous,48,100,trial,5282562.0,5283380.0,818.0,48,R,5282783,5283385,604,1371.4,549.7,4664,right
31,1,continuous,48,100,trial,5282562.0,5283380.0,818.0,48,R,5283437,5283665,230,1448.4,961.1,4727,NA
31,1,continuous,49,36,fixationCross,5284463.0,5286063.0,1600.0,49,R,5283871,5283905,36,1482.6,331.9,5286,NA
31,1,continuous,49,36,fixationCross,5284463.0,5286063.0,1600.0,49,R,5283915,5284121,208,1483.1,404.5,5134,right
31,1,continuous,49,36,fixationCross,5284463.0,5286063.0,1600.0,49,R,5284169,5284289,122,1006.8,453.6,5421,NA
31,1,continuous,49,36,trial,5284463.0,5286063.0,1600.0,49,R,5284305,5284613,310,966.7,506.6,5132,NA
31,1,continuous,49,36,trial,5284463.0,5286063.0,1600.0,49,R,5284661,5284835,176,573.1,520.3,5071,left
31,1,continuous,49,36,trial,5284463.0,5286063.0,1600.0,49,R,5284863,5285109,248,544.5,633.1,4924,left
31,1,continuous,49,36,trial,5284463.0,5286063.0,1600.0,49,R,5285121,5285351,232,559.8,610.9,4670,left
31,1,continuous,49,36,trial,5284463.0,5286063.0,1600.0,49,R,5285417,5285655,240,1524.1,522.6,4326,right
31,1,continuous,49,36,trial,5284463.0,5286063.0,1600.0,49,R,5285671,5286123,454,1465.0,501.8,4381,right
31,1,continuous,49,36,postResponse,5284463.0,5286063.0,1600.0,49,R,5286183,5286397,216,848.8,887.8,4872,likertHorizontal
31,1,continuous,50,83,fixationCross,5286996.0,5288580.0,1584.0,50,R,5286767,5286867,102,965.5,635.3,5417,NA
31,1,continuous,50,83,trial,5286996.0,5288580.0,1584.0,50,R,5286889,5287173,286,964.9,553.8,5469,NA
31,1,continuous,50,83,trial,5286996.0,5288580.0,1584.0,50,R,5287215,5287427,214,597.0,534.1,4832,left
31,1,continuous,50,83,trial,5286996.0,5288580.0,1584.0,50,R,5287451,5287865,416,466.0,584.5,4506,left
31,1,continuous,50,83,trial,5286996.0,5288580.0,1584.0,50,R,5287947,5288389,444,1498.9,538.8,4498,right
31,1,continuous,50,83,trial,5286996.0,5288580.0,1584.0,50,R,5288407,5288739,334,1428.7,560.2,4630,right
31,2,binary,1,1,fixationCross,5371347.0,5376214.0,4867.0,51,R,5370584,5370704,122,932.0,449.5,5384,NA
31,2,binary,1,1,fixationCross,5371347.0,5376214.0,4867.0,51,R,5370716,5371030,316,893.8,455.6,5155,NA
31,2,binary,1,1,trial,5371347.0,5376214.0,4867.0,51,R,5371054,5371518,466,943.4,550.3,5380,NA
31,2,binary,1,1,trial,5371347.0,5376214.0,4867.0,51,R,5371536,5371564,30,964.6,509.6,5667,NA
31,2,binary,1,1,trial,5371347.0,5376214.0,4867.0,51,R,5371612,5371850,240,543.6,509.0,5489,left
31,2,binary,1,1,trial,5371347.0,5376214.0,4867.0,51,R,5371876,5371998,124,508.4,588.1,5221,left
31,2,binary,1,1,trial,5371347.0,5376214.0,4867.0,51,R,5372060,5372206,148,1430.5,513.9,4976,right
31,2,binary,1,1,trial,5371347.0,5376214.0,4867.0,51,R,5372260,5372350,92,1050.9,872.0,5185,likertHorizontal
31,2,binary,1,1,trial,5371347.0,5376214.0,4867.0,51,R,5372378,5372724,348,956.2,982.7,5343,likertHorizontal
31,2,binary,1,1,trial,5371347.0,5376214.0,4867.0,51,R,5372770,5372932,164,1414.8,962.4,5250,NA
31,2,binary,1,1,trial,5371347.0,5376214.0,4867.0,51,R,5372948,5372992,46,1389.0,995.4,5338,NA
31,2,binary,1,1,trial,5371347.0,5376214.0,4867.0,51,R,5373040,5373194,156,1469.8,470.6,5206,right
31,2,binary,1,1,trial,5371347.0,5376214.0,4867.0,51,R,5373216,5373530,316,1451.3,529.2,4896,right
31,2,binary,1,1,trial,5371347.0,5376214.0,4867.0,51,R,5373584,5373792,210,1306.0,923.8,4972,NA
31,2,binary,1,1,trial,5371347.0,5376214.0,4867.0,51,R,5373852,5374144,294,502.3,947.6,5565,NA
31,2,binary,1,1,trial,5371347.0,5376214.0,4867.0,51,R,5374196,5374580,386,1104.5,968.0,5592,likertHorizontal
31,2,binary,1,1,trial,5371347.0,5376214.0,4867.0,51,R,5374630,5375062,434,1456.5,541.9,5365,right
31,2,binary,1,1,trial,5371347.0,5376214.0,4867.0,51,R,5375082,5375344,264,1557.6,576.2,4921,right
31,2,binary,1,1,trial,5371347.0,5376214.0,4867.0,51,R,5375422,5375708,288,492.9,524.2,5058,left
31,2,binary,1,1,trial,5371347.0,5376214.0,4867.0,51,R,5375728,5376108,382,480.1,605.3,5024,left
31,2,binary,1,1,trial,5371347.0,5376214.0,4867.0,51,R,5376142,5376288,148,488.4,838.0,5207,NA
31,2,binary,1,1,trial,5371347.0,5376214.0,4867.0,51,R,5376312,5376464,154,448.3,943.3,5400,NA
31,2,binary,2,2,fixationCross,5377098.0,5379314.0,2216.0,52,R,5376646,5376994,350,994.2,621.2,5657,NA
31,2,binary,2,2,trial,5377098.0,5379314.0,2216.0,52,R,5377008,5377314,308,947.2,578.6,5504,NA
31,2,binary,2,2,trial,5377098.0,5379314.0,2216.0,52,R,5377350,5377488,140,914.0,919.3,5147,likertHorizontal
31,2,binary,2,2,trial,5377098.0,5379314.0,2216.0,52,R,5377510,5377832,324,934.8,993.8,5113,likertHorizontal
31,2,binary,2,2,trial,5377098.0,5379314.0,2216.0,52,R,5377886,5378006,122,1491.9,969.6,5171,NA
31,2,binary,2,2,trial,5377098.0,5379314.0,2216.0,52,R,5378030,5378094,66,1417.4,1016.8,5320,NA
31,2,binary,2,2,trial,5377098.0,5379314.0,2216.0,52,R,5378142,5378304,164,1454.5,468.1,5153,right
31,2,binary,2,2,trial,5377098.0,5379314.0,2216.0,52,R,5378324,5378480,158,1419.2,508.0,4818,right
31,2,binary,2,2,trial,5377098.0,5379314.0,2216.0,52,R,5378548,5378764,218,442.4,530.4,4691,left
31,2,binary,2,2,trial,5377098.0,5379314.0,2216.0,52,R,5378778,5378932,156,419.8,572.5,4696,left
31,2,binary,2,2,trial,5377098.0,5379314.0,2216.0,52,R,5378994,5379616,624,1380.6,553.3,4670,right
31,2,binary,3,2,fixationCross,5381298.0,5382464.0,1166.0,53,R,5379900,5380992,1094,568.4,471.6,5085,left
31,2,binary,3,2,fixationCross,5381298.0,5382464.0,1166.0,53,R,5381030,5381158,130,913.2,561.7,5214,NA
31,2,binary,3,2,fixationCross,5381298.0,5382464.0,1166.0,53,R,5381172,5381276,106,969.1,571.3,5214,NA
31,2,binary,3,2,trial,5381298.0,5382464.0,1166.0,53,R,5381482,5381558,78,970.6,559.8,5239,NA
31,2,binary,3,2,trial,5381298.0,5382464.0,1166.0,53,R,5381610,5381778,170,436.4,547.2,5400,left
31,2,binary,3,2,trial,5381298.0,5382464.0,1166.0,53,R,5381798,5381910,114,511.9,579.4,5264,left
31,2,binary,3,2,trial,5381298.0,5382464.0,1166.0,53,R,5381972,5382288,318,1385.5,541.2,4614,right
31,2,binary,3,2,trial,5381298.0,5382464.0,1166.0,53,R,5382304,5382654,352,1374.1,499.9,4544,right
31,2,binary,4,1,fixationCross,5383664.0,5384431.0,767.0,54,R,5383052,5383352,302,1123.6,420.4,5285,NA
31,2,binary,4,1,fixationCross,5383664.0,5384431.0,767.0,54,R,5383386,5383586,202,961.4,483.2,5216,NA
31,2,binary,4,1,trial,5383664.0,5384431.0,767.0,54,R,5383604,5383812,210,945.5,542.3,4883,NA
31,2,binary,4,1,trial,5383664.0,5384431.0,767.0,54,R,5383862,5384050,190,483.0,576.0,4983,left
31,2,binary,4,1,trial,5383664.0,5384431.0,767.0,54,R,5384070,5384346,278,565.4,520.2,4812,left
31,2,binary,4,1,trial,5383664.0,5384431.0,767.0,54,R,5384380,5384626,248,340.6,564.3,4764,left
31,2,binary,5,2,fixationCross,5385514.0,5385931.0,417.0,55,R,5384988,5385160,174,1603.2,476.5,4977,right
31,2,binary,5,2,fixationCross,5385514.0,5385931.0,417.0,55,R,5385214,5385344,132,1009.4,526.9,5519,NA
31,2,binary,5,2,trial,5385514.0,5385931.0,417.0,55,R,5385358,5385680,324,964.7,560.0,5180,NA
31,2,binary,5,2,postResponse,5385514.0,5385931.0,417.0,55,R,5385726,5386268,544,1353.4,528.6,4938,right
31,2,binary,6,2,fixationCross,5386964.0,5387164.0,200.0,56,R,5386342,5386634,294,1354.5,525.9,4941,right
31,2,binary,6,2,trial,5386964.0,5387164.0,200.0,56,R,5386680,5387122,444,952.4,552.2,5556,NA
31,2,binary,6,2,postResponse,5386964.0,5387164.0,200.0,56,R,5387164,5387498,336,1321.5,536.8,5394,right
31,2,binary,7,1,fixationCross,5388231.0,5388414.0,183.0,57,R,5387598,5387918,322,1323.6,546.2,5260,right
31,2,binary,7,1,fixationCross,5388231.0,5388414.0,183.0,57,R,5387958,5388094,138,1036.6,567.2,5837,NA
31,2,binary,7,1,trial,5388231.0,5388414.0,183.0,57,R,5388112,5388382,272,971.4,581.2,5986,NA
31,2,binary,7,1,postResponse,5388231.0,5388414.0,183.0,57,R,5388432,5388766,336,500.8,559.8,6080,left
31,2,binary,8,2,fixationCross,5389480.0,5390181.0,701.0,58,R,5388952,5388954,4,1277.9,377.1,5585,right
31,2,binary,8,2,fixationCross,5389480.0,5390181.0,701.0,58,R,5388966,5389156,192,1267.4,453.6,5449,right
31,2,binary,8,2,fixationCross,5389480.0,5390181.0,701.0,58,R,5389194,5389310,118,981.6,519.8,5888,NA
31,2,binary,8,2,trial,5389480.0,5390181.0,701.0,58,R,5389324,5389680,358,955.0,563.6,5954,NA
31,2,binary,8,2,trial,5389480.0,5390181.0,701.0,58,R,5389730,5389970,242,494.7,528.4,5665,left
31,2,binary,8,2,trial,5389480.0,5390181.0,701.0,58,R,5389994,5390206,214,405.3,581.7,5244,left
31,2,binary,8,2,postResponse,5389480.0,5390181.0,701.0,58,R,5390272,5390514,244,1387.9,518.1,4768,right
31,2,binary,9,2,fixationCross,5391231.0,5392565.0,1334.0,59,R,5390614,5390912,300,1365.1,502.4,5102,right
31,2,binary,9,2,fixationCross,5391231.0,5392565.0,1334.0,59,R,5390956,5391094,140,979.0,541.7,5641,NA
31,2,binary,9,2,trial,5391231.0,5392565.0,1334.0,59,R,5391104,5391464,362,954.9,549.5,5690,NA
31,2,binary,9,2,trial,5391231.0,5392565.0,1334.0,59,R,5391514,5391820,308,558.3,567.5,5489,left
31,2,binary,9,2,trial,5391231.0,5392565.0,1334.0,59,R,5391842,5391990,150,441.4,558.6,5001,left
31,2,binary,9,2,trial,5391231.0,5392565.0,1334.0,59,R,5392052,5392558,508,1384.1,513.9,4655,right
31,2,binary,9,2,trial,5391231.0,5392565.0,1334.0,59,R,5392580,5392736,158,1322.0,446.1,4867,right
31,2,binary,10,2,fixationCross,5393698.0,5395164.0,1466.0,60,R,5393152,5393380,230,834.3,466.9,5320,NA
31,2,binary,10,2,fixationCross,5393698.0,5395164.0,1466.0,60,R,5393408,5393568,162,940.4,546.6,5561,NA
31,2,binary,10,2,trial,5393698.0,5395164.0,1466.0,60,R,5393580,5393862,284,947.8,578.4,5131,NA
31,2,binary,10,2,trial,5393698.0,5395164.0,1466.0,60,R,5393912,5394146,236,505.7,596.5,4978,left
31,2,binary,10,2,trial,5393698.0,5395164.0,1466.0,60,R,5394208,5394406,200,1447.9,477.0,4707,right
31,2,binary,10,2,trial,5393698.0,5395164.0,1466.0,60,R,5394420,5394672,254,1428.2,515.0,4703,right
31,2,binary,10,2,trial,5393698.0,5395164.0,1466.0,60,R,5394694,5395028,336,1509.7,429.5,4564,right
31,2,binary,10,2,trial,5393698.0,5395164.0,1466.0,60,R,5395054,5395408,356,1453.2,513.2,4625,right
31,2,binary,11,1,fixationCross,5396248.0,5397798.0,1550.0,61,R,5395656,5395938,284,761.2,574.1,5327,NA
31,2,binary,11,1,trial,5396248.0,5397798.0,1550.0,61,R,5395966,5396384,420,992.7,560.5,5505,NA
31,2,binary,11,1,trial,5396248.0,5397798.0,1550.0,61,R,5396440,5396586,148,454.2,535.3,5493,left
31,2,binary,11,1,trial,5396248.0,5397798.0,1550.0,61,R,5396602,5397032,432,499.4,533.9,5027,left
31,2,binary,11,1,trial,5396248.0,5397798.0,1550.0,61,R,5397098,5397538,442,1461.2,517.9,4767,right
31,2,binary,11,1,trial,5396248.0,5397798.0,1550.0,61,R,5397568,5397970,404,1319.8,639.4,5063,right
31,2,binary,12,1,fixationCross,5398797.0,5399798.0,1001.0,62,R,5398350,5398482,134,491.7,482.8,5378,left
31,2,binary,12,1,fixationCross,5398797.0,5399798.0,1001.0,62,R,5398534,5398680,148,1029.8,500.1,5575,NA
31,2,binary,12,1,trial,5398797.0,5399798.0,1001.0,62,R,5398702,5398830,130,972.9,547.5,5405,NA
31,2,binary,12,1,trial,5398797.0,5399798.0,1001.0,62,R,5398842,5398970,130,955.2,573.7,5171,NA
31,2,binary,12,1,trial,5398797.0,5399798.0,1001.0,62,R,5399018,5399158,142,553.9,567.0,5111,left
31,2,binary,12,1,trial,5398797.0,5399798.0,1001.0,62,R,5399182,5399708,528,679.9,536.1,4859,left
31,2,binary,12,1,trial,5398797.0,5399798.0,1001.0,62,R,5399768,5399994,228,1456.0,477.2,4821,right
31,2,binary,13,1,fixationCross,5401981.0,5402815.0,834.0,63,R,5400330,5400460,132,1367.0,467.2,5123,right
31,2,binary,13,1,fixationCross,5401981.0,5402815.0,834.0,63,R,5400522,5400940,420,653.7,491.8,5362,left
31,2,binary,13,1,fixationCross,5401981.0,5402815.0,834.0,63,R,5400986,5401308,324,398.5,583.3,5110,left
31,2,binary,13,1,fixationCross,5401981.0,5402815.0,834.0,63,R,5401326,5401694,370,443.9,543.6,5232,left
31,2,binary,13,1,fixationCross,5401981.0,5402815.0,834.0,63,R,5401744,5401894,152,920.4,549.3,5243,NA
31,2,binary,13,1,trial,5401981.0,5402815.0,834.0,63,R,5401904,5402038,136,950.5,576.9,5279,NA
31,2,binary,13,1,trial,5401981.0,5402815.0,834.0,63,R,5402202,5402482,282,556.1,571.6,5477,left
31,2,binary,13,1,trial,5401981.0,5402815.0,834.0,63,R,5402506,5402984,480,485.4,608.0,5139,left
31,2,binary,14,2,fixationCross,5403931.0,5404631.0,700.0,64,R,5403264,5403430,168,958.6,516.5,5338,NA
31,2,binary,14,2,fixationCross,5403931.0,5404631.0,700.0,64,R,5403482,5403646,166,1360.9,606.8,5513,right
31,2,binary,14,2,fixationCross,5403931.0,5404631.0,700.0,64,R,5403686,5403830,146,1024.6,587.8,5400,NA
31,2,binary,14,2,trial,5403931.0,5404631.0,700.0,64,R,5403848,5404098,252,956.6,592.1,5116,NA
31,2,binary,14,2,trial,5403931.0,5404631.0,700.0,64,R,5404142,5404274,134,606.5,578.7,5105,left
31,2,binary,14,2,trial,5403931.0,5404631.0,700.0,64,R,5404328,5404802,476,1366.9,555.7,4827,right
31,2,binary,15,1,fixationCross,5405747.0,5406431.0,684.0,65,R,5405228,5405376,150,1486.0,627.1,5194,right
31,2,binary,15,1,trial,5405747.0,5406431.0,684.0,65,R,5405422,5405912,492,970.7,584.8,5208,NA
31,2,binary,15,1,trial,5405747.0,5406431.0,684.0,65,R,5405962,5406636,676,496.1,562.5,4892,left
31,2,binary,16,1,fixationCross,5407531.0,5408481.0,950.0,66,R,5406974,5407226,254,767.5,575.3,5355,NA
31,2,binary,16,1,trial,5407531.0,5408481.0,950.0,66,R,5407256,5407670,416,944.9,580.1,5314,NA
31,2,binary,16,1,trial,5407531.0,5408481.0,950.0,66,R,5407718,5407916,200,488.9,548.3,5103,left
31,2,binary,16,1,trial,5407531.0,5408481.0,950.0,66,R,5407932,5408118,188,549.8,531.0,5042,left
31,2,binary,16,1,trial,5407531.0,5408481.0,950.0,66,R,5408142,5408402,262,413.2,509.2,4885,left
31,2,binary,16,1,postResponse,5407531.0,5408481.0,950.0,66,R,5408474,5408820,348,1453.1,490.8,4798,right
31,2,binary,17,1,fixationCross,5409364.0,5410865.0,1501.0,67,R,5408894,5408926,34,1451.9,493.1,4965,right
31,2,binary,17,1,fixationCross,5409364.0,5410865.0,1501.0,67,R,5408980,5409336,358,892.4,512.8,5252,NA
31,2,binary,17,1,trial,5409364.0,5410865.0,1501.0,67,R,5409354,5409538,186,935.4,540.9,5274,NA
31,2,binary,17,1,trial,5409364.0,5410865.0,1501.0,67,R,5409578,5409682,106,578.9,538.5,5321,left
31,2,binary,17,1,trial,5409364.0,5410865.0,1501.0,67,R,5409754,5409988,236,1458.9,517.7,5025,right
31,2,binary,17,1,trial,5409364.0,5410865.0,1501.0,67,R,5410056,5410222,168,570.0,565.8,5003,left
31,2,binary,17,1,trial,5409364.0,5410865.0,1501.0,67,R,5410244,5410520,278,444.9,555.1,5009,left
31,2,binary,17,1,trial,5409364.0,5410865.0,1501.0,67,R,5410548,5411144,598,590.9,496.2,5103,left
31,2,binary,18,1,fixationCross,5411897.0,5412481.0,584.0,68,R,5411402,5411588,188,1349.7,441.3,5567,right
31,2,binary,18,1,fixationCross,5411897.0,5412481.0,584.0,68,R,5411630,5411746,118,976.4,504.9,5880,NA
31,2,binary,18,1,trial,5411897.0,5412481.0,584.0,68,R,5411760,5412042,284,942.9,558.4,5453,NA
31,2,binary,18,1,trial,5411897.0,5412481.0,584.0,68,R,5412096,5412278,184,480.0,573.1,5238,left
31,2,binary,18,1,trial,5411897.0,5412481.0,584.0,68,R,5412292,5412764,474,454.9,607.2,5020,left
31,2,binary,18,1,postResponse,5411897.0,5412481.0,584.0,68,R,5412988,5413356,370,1239.7,432.9,5264,right
31,2,binary,18,1,postResponse,5411897.0,5412481.0,584.0,68,R,5413400,5413786,388,909.2,477.9,5133,NA
31,2,binary,18,1,postResponse,5411897.0,5412481.0,584.0,68,R,5413830,5414090,262,593.9,487.3,5139,left
31,2,binary,19,1,fixationCross,5415065.0,5416498.0,1433.0,69,R,5414268,5414476,210,685.2,515.4,5370,left
31,2,binary,19,1,fixationCross,5415065.0,5416498.0,1433.0,69,R,5414676,5414750,76,800.6,530.4,5691,NA
31,2,binary,19,1,trial,5415065.0,5416498.0,1433.0,69,R,5414772,5415218,448,946.6,558.8,5726,NA
31,2,binary,19,1,trial,5415065.0,5416498.0,1433.0,69,R,5415264,5415374,112,524.5,549.1,5394,left
31,2,binary,19,1,trial,5415065.0,5416498.0,1433.0,69,R,5415394,5415538,146,465.8,487.0,5195,left
31,2,binary,19,1,trial,5415065.0,5416498.0,1433.0,69,R,5415598,5415840,244,1328.8,583.0,4791,right
31,2,binary,19,1,trial,5415065.0,5416498.0,1433.0,69,R,5415868,5416174,308,1476.7,597.1,4814,right
31,2,binary,19,1,trial,5415065.0,5416498.0,1433.0,69,R,5416204,5416282,80,1312.9,608.9,4938,right
31,2,binary,19,1,trial,5415065.0,5416498.0,1433.0,69,R,5416346,5416556,212,444.5,953.6,5165,NA
31,2,binary,19,1,trial,5415065.0,5416498.0,1433.0,69,R,5416600,5416746,148,496.2,688.9,5159,left
31,2,binary,20,2,fixationCross,5417665.0,5419915.0,2250.0,70,R,5416930,5417078,150,1232.2,826.5,5160,NA
31,2,binary,20,2,fixationCross,5417665.0,5419915.0,2250.0,70,R,5417118,5417346,230,970.1,990.7,5646,likertHorizontal
31,2,binary,20,2,trial,5417665.0,5419915.0,2250.0,70,R,5417392,5417828,438,963.6,564.9,5782,NA
31,2,binary,20,2,trial,5417665.0,5419915.0,2250.0,70,R,5417886,5417972,88,629.7,940.3,5885,NA
31,2,binary,20,2,trial,5417665.0,5419915.0,2250.0,70,R,5418016,5418286,272,917.3,964.2,5583,likertHorizontal
31,2,binary,20,2,trial,5417665.0,5419915.0,2250.0,70,R,5418296,5418906,612,948.9,973.4,5865,likertHorizontal
31,2,binary,20,2,trial,5417665.0,5419915.0,2250.0,70,R,5418958,5419072,116,1444.5,936.7,5724,NA
31,2,binary,20,2,trial,5417665.0,5419915.0,2250.0,70,R,5419126,5419278,154,1347.5,459.2,5647,right
31,2,binary,20,2,trial,5417665.0,5419915.0,2250.0,70,R,5419292,5419574,284,1365.0,501.7,5220,right
31,2,binary,20,2,trial,5417665.0,5419915.0,2250.0,70,R,5419592,5419748,158,1423.7,545.2,4848,right
31,2,binary,20,2,trial,5417665.0,5419915.0,2250.0,70,R,5419820,5420136,318,460.4,552.7,5022,left
31,2,binary,21,1,fixationCross,5421581.0,5422365.0,784.0,71,R,5420396,5421284,890,771.2,471.9,5303,NA
31,2,binary,21,1,fixationCross,5421581.0,5422365.0,784.0,71,R,5421312,5421492,182,923.0,572.6,5255,NA
31,2,binary,21,1,trial,5421581.0,5422365.0,784.0,71,R,5421502,5421716,216,956.7,579.2,5373,NA
31,2,binary,21,1,trial,5421581.0,5422365.0,784.0,71,R,5421768,5421908,142,465.1,548.6,5412,left
31,2,binary,21,1,trial,5421581.0,5422365.0,784.0,71,R,5421928,5422066,140,463.5,500.5,5208,left
31,2,binary,21,1,trial,5421581.0,5422365.0,784.0,71,R,5422080,5422554,476,461.9,464.1,4929,left
31,2,binary,22,1,fixationCross,5423731.0,5424965.0,1234.0,72,R,5422874,5423010,138,127.5,-0.7,5087,NA
31,2,binary,22,1,fixationCross,5423731.0,5424965.0,1234.0,72,R,5423036,5423224,190,47.7,-63.7,5195,NA
31,2,binary,22,1,fixationCross,5423731.0,5424965.0,1234.0,72,R,5423292,5423410,120,914.4,354.8,4674,NA
31,2,binary,22,1,fixationCross,5423731.0,5424965.0,1234.0,72,R,5423448,5423562,116,988.9,540.0,4400,NA
31,2,binary,22,1,trial,5423731.0,5424965.0,1234.0,72,R,5423578,5423880,304,956.0,582.0,4513,NA
31,2,binary,22,1,trial,5423731.0,5424965.0,1234.0,72,R,5423928,5424084,158,513.5,586.1,5087,left
31,2,binary,22,1,trial,5423731.0,5424965.0,1234.0,72,R,5424122,5424220,100,731.5,566.1,4892,left
31,2,binary,22,1,trial,5423731.0,5424965.0,1234.0,72,R,5424250,5424854,606,586.7,575.5,4899,left
31,2,binary,22,1,trial,5423731.0,5424965.0,1234.0,72,R,5424868,5424900,34,630.9,565.4,5100,left
31,2,binary,22,1,postResponse,5423731.0,5424965.0,1234.0,72,R,5424960,5425298,340,1410.4,490.6,5014,right
31,2,binary,23,2,fixationCross,5426098.0,5427115.0,1017.0,73,R,5425664,5425796,134,826.1,501.3,5636,NA
31,2,binary,23,2,fixationCross,5426098.0,5427115.0,1017.0,73,R,5425820,5425984,166,929.8,523.4,5790,NA
31,2,binary,23,2,trial,5426098.0,5427115.0,1017.0,73,R,5425996,5426232,238,956.5,556.7,5525,NA
31,2,binary,23,2,trial,5426098.0,5427115.0,1017.0,73,R,5426280,5426466,188,539.3,548.7,5211,left
31,2,binary,23,2,postResponse,5426098.0,5427115.0,1017.0,73,R,5426538,5427448,912,1451.9,492.0,4603,right
31,2,binary,24,1,fixationCross,5428164.0,5429014.0,850.0,74,R,5427522,5427834,314,1441.7,485.3,5098,right
31,2,binary,24,1,trial,5428164.0,5429014.0,850.0,74,R,5427888,5428312,426,944.5,554.4,5531,NA
31,2,binary,24,1,postResponse,5428164.0,5429014.0,850.0,74,R,5428360,5429350,992,470.2,556.8,5463,left
31,2,binary,25,2,fixationCross,5430265.0,5431481.0,1216.0,75,R,5429424,5429518,96,477.4,568.8,5718,left
31,2,binary,25,2,fixationCross,5430265.0,5431481.0,1216.0,75,R,5429910,5429954,46,1199.6,434.2,5384,right
31,2,binary,25,2,fixationCross,5430265.0,5431481.0,1216.0,75,R,5429992,5430112,122,962.9,525.3,5589,NA
31,2,binary,25,2,trial,5430265.0,5431481.0,1216.0,75,R,5430128,5430434,308,945.1,562.8,5756,NA
31,2,binary,25,2,trial,5430265.0,5431481.0,1216.0,75,R,5430486,5430642,158,478.4,533.4,5436,left
31,2,binary,25,2,trial,5430265.0,5431481.0,1216.0,75,R,5430700,5430918,220,1338.4,540.4,4804,right
31,2,binary,25,2,trial,5430265.0,5431481.0,1216.0,75,R,5430936,5431154,220,1388.9,566.0,4649,right
31,2,binary,25,2,trial,5430265.0,5431481.0,1216.0,75,R,5431176,5431446,272,1283.4,578.7,4715,right
31,2,binary,25,2,postResponse,5430265.0,5431481.0,1216.0,75,R,5431510,5431814,306,500.2,501.0,4761,left
31,2,binary,26,1,fixationCross,5459599.0,5461066.0,1467.0,76,R,5458832,5459138,308,187.6,-48.8,4955,NA
31,2,binary,26,1,fixationCross,5459599.0,5461066.0,1467.0,76,R,5459184,5459290,108,777.9,475.4,4803,NA
31,2,binary,26,1,fixationCross,5459599.0,5461066.0,1467.0,76,R,5459318,5459476,160,933.0,564.2,4899,NA
31,2,binary,26,1,trial,5459599.0,5461066.0,1467.0,76,R,5459484,5459798,316,947.9,575.8,5208,NA
31,2,binary,26,1,trial,5459599.0,5461066.0,1467.0,76,R,5459848,5460082,236,476.1,519.2,5503,left
31,2,binary,26,1,trial,5459599.0,5461066.0,1467.0,76,R,5460114,5460266,154,407.9,669.5,5190,left
31,2,binary,26,1,trial,5459599.0,5461066.0,1467.0,76,R,5460332,5460544,214,1483.5,470.8,4625,right
31,2,binary,26,1,trial,5459599.0,5461066.0,1467.0,76,R,5460558,5460710,154,1452.0,434.4,4534,right
31,2,binary,26,1,trial,5459599.0,5461066.0,1467.0,76,R,5460782,5461020,240,435.2,599.0,4883,left
31,2,binary,26,1,postResponse,5459599.0,5461066.0,1467.0,76,R,5461046,5461402,358,442.8,703.3,5075,left
31,2,binary,27,1,fixationCross,5462315.0,5463332.0,1017.0,77,R,5461540,5462026,488,844.3,539.3,5278,NA
31,2,binary,27,1,fixationCross,5462315.0,5463332.0,1017.0,77,R,5462048,5462296,250,922.9,547.3,5411,NA
31,2,binary,27,1,trial,5462315.0,5463332.0,1017.0,77,R,5462308,5462490,184,952.2,556.1,5421,NA
31,2,binary,27,1,trial,5462315.0,5463332.0,1017.0,77,R,5462542,5462756,216,1417.2,503.4,5274,right
31,2,binary,27,1,trial,5462315.0,5463332.0,1017.0,77,R,5462778,5463230,454,1420.1,593.9,5028,right
31,2,binary,27,1,trial,5462315.0,5463332.0,1017.0,77,R,5463262,5463374,114,1241.6,522.0,5113,right
31,2,binary,27,1,trial,5462315.0,5463332.0,1017.0,77,R,5463428,5463584,158,625.8,522.5,5114,left
31,2,binary,28,1,fixationCross,5464448.0,5465415.0,967.0,78,R,5464060,5464218,160,933.7,386.1,5467,NA
31,2,binary,28,1,fixationCross,5464448.0,5465415.0,967.0,78,R,5464244,5464364,122,969.6,509.0,5622,NA
31,2,binary,28,1,trial,5464448.0,5465415.0,967.0,78,R,5464378,5464602,226,958.4,559.6,5290,NA
31,2,binary,28,1,trial,5464448.0,5465415.0,967.0,78,R,5464652,5464874,224,473.9,612.1,4994,left
31,2,binary,28,1,trial,5464448.0,5465415.0,967.0,78,R,5464910,5465080,172,284.4,391.2,4781,left
31,2,binary,28,1,trial,5464448.0,5465415.0,967.0,78,R,5465088,5465380,294,302.6,405.9,4641,left
31,2,binary,28,1,postResponse,5464448.0,5465415.0,967.0,78,R,5465448,5465750,304,1407.4,503.8,4528,right
31,2,binary,29,2,fixationCross,5466949.0,5467331.0,382.0,79,R,5465850,5466018,170,1390.2,500.5,4820,right
31,2,binary,29,2,fixationCross,5466949.0,5467331.0,382.0,79,R,5466280,5466370,92,609.5,437.8,5170,left
31,2,binary,29,2,fixationCross,5466949.0,5467331.0,382.0,79,R,5466406,5466702,298,834.1,518.6,5309,NA
31,2,binary,29,2,fixationCross,5466949.0,5467331.0,382.0,79,R,5466726,5466938,214,932.6,552.1,5447,NA
31,2,binary,29,2,trial,5466949.0,5467331.0,382.0,79,R,5466946,5467124,180,945.0,568.6,5432,NA
31,2,binary,29,2,trial,5466949.0,5467331.0,382.0,79,R,5467164,5467522,360,1392.2,523.2,5224,right
31,2,binary,30,1,fixationCross,5468731.0,5469065.0,334.0,80,R,5467868,5468006,140,1482.1,420.9,5112,right
31,2,binary,30,1,fixationCross,5468731.0,5469065.0,334.0,80,R,5468050,5468418,370,1854.0,424.9,5071,NA
31,2,binary,30,1,fixationCross,5468731.0,5469065.0,334.0,80,R,5468482,5468612,132,965.0,531.9,5053,NA
31,2,binary,30,1,trial,5468731.0,5469065.0,334.0,80,R,5468632,5469032,402,948.5,581.8,5153,NA
31,2,binary,30,1,postResponse,5468731.0,5469065.0,334.0,80,R,5469080,5469400,322,513.8,532.6,5327,left
31,2,binary,31,2,fixationCross,5470148.0,5470549.0,401.0,81,R,5469476,5469840,366,516.7,525.3,5347,left
31,2,binary,31,2,trial,5470148.0,5470549.0,401.0,81,R,5469888,5470346,460,950.7,560.4,5391,NA
31,2,binary,31,2,trial,5470148.0,5470549.0,401.0,81,R,5470392,5470590,200,1383.4,593.5,5300,right
31,2,binary,31,2,postResponse,5470148.0,5470549.0,401.0,81,R,5470614,5470882,270,1506.3,591.4,4937,right
31,2,binary,32,1,fixationCross,5471648.0,5472032.0,384.0,82,R,5470982,5471304,324,1492.5,581.3,4961,right
31,2,binary,32,1,trial,5471648.0,5472032.0,384.0,82,R,5471356,5471846,492,964.1,563.2,5412,NA
31,2,binary,32,1,trial,5471648.0,5472032.0,384.0,82,R,5471892,5472334,444,541.0,552.5,5237,left
31,2,binary,33,2,fixationCross,5473065.0,5473432.0,367.0,83,R,5472620,5472774,156,1166.1,530.8,5244,NA
31,2,binary,33,2,fixationCross,5473065.0,5473432.0,367.0,83,R,5472802,5472922,122,992.8,559.7,5471,NA
31,2,binary,33,2,trial,5473065.0,5473432.0,367.0,83,R,5472936,5473218,284,958.8,575.4,5373,NA
31,2,binary,33,2,postResponse,5473065.0,5473432.0,367.0,83,R,5473270,5473766,498,1387.3,556.5,5061,right
31,2,binary,34,1,fixationCross,5474482.0,5474898.0,416.0,84,R,5473840,5474156,318,1390.5,541.3,5302,right
31,2,binary,34,1,trial,5474482.0,5474898.0,416.0,84,R,5474202,5474630,430,978.6,544.1,5589,NA
31,2,binary,34,1,trial,5474482.0,5474898.0,416.0,84,R,5474682,5475104,424,498.4,547.6,5410,left
31,2,binary,35,1,fixationCross,5475948.0,5476399.0,451.0,85,R,5475518,5475630,114,1312.1,462.7,5047,right
31,2,binary,35,1,fixationCross,5475948.0,5476399.0,451.0,85,R,5475670,5475796,128,1003.2,525.3,5423,NA
31,2,binary,35,1,trial,5475948.0,5476399.0,451.0,85,R,5475808,5476086,280,967.3,552.7,5342,NA
31,2,binary,35,1,trial,5475948.0,5476399.0,451.0,85,R,5476136,5476340,206,518.2,567.6,5079,left
31,2,binary,35,1,postResponse,5475948.0,5476399.0,451.0,85,R,5476360,5476736,378,495.6,630.6,4996,left
31,2,binary,36,2,fixationCross,5477466.0,5477716.0,250.0,86,R,5476860,5477166,308,1088.4,520.1,5012,NA
31,2,binary,36,2,fixationCross,5477466.0,5477716.0,250.0,86,R,5477186,5477310,126,995.1,570.4,5296,NA
31,2,binary,36,2,trial,5477466.0,5477716.0,250.0,86,R,5477324,5477606,284,950.8,575.3,5492,NA
31,2,binary,36,2,trial,5477466.0,5477716.0,250.0,86,R,5477654,5477972,320,1313.3,532.1,5365,right
31,2,binary,37,1,fixationCross,5478782.0,5479132.0,350.0,87,R,5478268,5478468,202,1446.3,459.5,5107,right
31,2,binary,37,1,trial,5478782.0,5479132.0,350.0,87,R,5478518,5478908,392,953.0,536.2,5373,NA
31,2,binary,37,1,trial,5478782.0,5479132.0,350.0,87,R,5478958,5479174,218,488.7,561.8,5173,left
31,2,binary,37,1,trial,5478782.0,5479132.0,350.0,87,R,5479192,5479396,206,436.3,590.5,5078,left
31,2,binary,38,2,fixationCross,5480232.0,5481282.0,1050.0,88,R,5479738,5479880,144,1345.5,394.0,4899,right
31,2,binary,38,2,fixationCross,5480232.0,5481282.0,1050.0,88,R,5479920,5480028,110,1032.3,478.0,5323,NA
31,2,binary,38,2,fixationCross,5480232.0,5481282.0,1050.0,88,R,5480046,5480230,186,987.9,537.2,5438,NA
31,2,binary,38,2,trial,5480232.0,5481282.0,1050.0,88,R,5480238,5480854,618,971.3,557.8,5254,NA
31,2,binary,38,2,trial,5480232.0,5481282.0,1050.0,88,R,5480902,5481302,402,546.7,640.1,5456,left
31,2,binary,38,2,trial,5480232.0,5481282.0,1050.0,88,R,5481322,5481560,240,457.7,660.3,5105,left
31,2,binary,39,1,fixationCross,5482332.0,5482832.0,500.0,89,R,5481876,5482014,140,1232.8,344.9,4951,NA
31,2,binary,39,1,fixationCross,5482332.0,5482832.0,500.0,89,R,5482052,5482162,112,997.8,493.6,5300,NA
31,2,binary,39,1,trial,5482332.0,5482832.0,500.0,89,R,5482180,5482488,310,959.1,542.7,5263,NA
31,2,binary,39,1,trial,5482332.0,5482832.0,500.0,89,R,5482544,5483070,528,396.4,586.1,4926,left
31,2,binary,40,2,fixationCross,5483915.0,5484382.0,467.0,90,R,5483520,5483570,52,1373.3,399.6,4801,right
31,2,binary,40,2,fixationCross,5483915.0,5484382.0,467.0,90,R,5483614,5483734,122,1022.5,513.0,5183,NA
31,2,binary,40,2,trial,5483915.0,5484382.0,467.0,90,R,5483754,5484076,324,959.7,563.3,5250,NA
31,2,binary,40,2,trial,5483915.0,5484382.0,467.0,90,R,5484120,5484388,270,1372.0,551.1,4897,right
31,2,binary,40,2,postResponse,5483915.0,5484382.0,467.0,90,R,5484408,5484716,310,1453.6,533.4,4774,right
31,2,binary,41,1,fixationCross,5485332.0,5485849.0,517.0,91,R,5484792,5485006,216,1448.2,524.7,4986,right
31,2,binary,41,1,fixationCross,5485332.0,5485849.0,517.0,91,R,5485064,5485214,152,961.7,527.5,5376,NA
31,2,binary,41,1,trial,5485332.0,5485849.0,517.0,91,R,5485228,5485574,348,947.9,562.2,5463,NA
31,2,binary,41,1,trial,5485332.0,5485849.0,517.0,91,R,5485624,5485794,172,554.6,511.7,5395,left
31,2,binary,41,1,trial,5485332.0,5485849.0,517.0,91,R,5485806,5486100,296,537.0,473.9,5104,left
31,2,binary,42,2,fixationCross,5486965.0,5487432.0,467.0,92,R,5486260,5486606,348,1217.8,421.2,4930,right
31,2,binary,42,2,fixationCross,5486965.0,5487432.0,467.0,92,R,5486636,5486846,212,1026.8,528.7,5368,NA
31,2,binary,42,2,trial,5486965.0,5487432.0,467.0,92,R,5486870,5487128,260,951.0,554.8,5613,NA
31,2,binary,42,2,trial,5486965.0,5487432.0,467.0,92,R,5487174,5487516,344,1289.8,555.4,5397,right
31,2,binary,42,2,trial,5486965.0,5487432.0,467.0,92,R,5487532,5487680,150,1348.3,560.6,5005,right
31,2,binary,43,1,fixationCross,5488732.0,5489049.0,317.0,93,R,5488000,5488178,180,1643.5,307.9,5106,NA
31,2,binary,43,1,fixationCross,5488732.0,5489049.0,317.0,93,R,5488242,5488426,186,1095.5,458.1,5615,NA
31,2,binary,43,1,fixationCross,5488732.0,5489049.0,317.0,93,R,5488452,5488646,196,992.1,537.3,5298,NA
31,2,binary,43,1,trial,5488732.0,5489049.0,317.0,93,R,5488662,5488996,336,951.3,572.7,5345,NA
31,2,binary,43,1,postResponse,5488732.0,5489049.0,317.0,93,R,5489038,5489382,346,621.5,565.0,5204,left
31,2,binary,44,2,fixationCross,5490432.0,5490765.0,333.0,94,R,5489796,5489802,8,1598.6,338.7,5294,NA
31,2,binary,44,2,fixationCross,5490432.0,5490765.0,333.0,94,R,5489834,5489900,68,1597.0,422.4,5161,right
31,2,binary,44,2,fixationCross,5490432.0,5490765.0,333.0,94,R,5489952,5490130,180,1141.3,477.0,5650,NA
31,2,binary,44,2,fixationCross,5490432.0,5490765.0,333.0,94,R,5490162,5490332,172,999.9,539.0,5565,NA
31,2,binary,44,2,trial,5490432.0,5490765.0,333.0,94,R,5490344,5490608,266,965.9,576.3,5252,NA
31,2,binary,44,2,trial,5490432.0,5490765.0,333.0,94,R,5490648,5490764,118,1295.7,526.9,5190,right
31,2,binary,44,2,postResponse,5490432.0,5490765.0,333.0,94,R,5490786,5491098,314,1387.9,486.1,4911,right
31,2,binary,45,1,fixationCross,5491966.0,5492215.0,249.0,95,R,5491172,5491330,160,1602.4,436.3,4724,right
31,2,binary,45,1,fixationCross,5491966.0,5492215.0,249.0,95,R,5491350,5491498,150,1722.4,440.2,4792,NA
31,2,binary,45,1,fixationCross,5491966.0,5492215.0,249.0,95,R,5491552,5491660,110,1165.9,470.9,5201,NA
31,2,binary,45,1,fixationCross,5491966.0,5492215.0,249.0,95,R,5491686,5491874,190,1003.9,529.2,5332,NA
31,2,binary,45,1,trial,5491966.0,5492215.0,249.0,95,R,5491892,5492174,284,955.1,552.3,5408,NA
31,2,binary,45,1,postResponse,5491966.0,5492215.0,249.0,95,R,5492226,5492548,324,504.7,558.7,5302,left
31,2,binary,46,1,fixationCross,5493548.0,5493766.0,218.0,96,R,5493198,5493232,36,1317.8,429.2,5325,right
31,2,binary,46,1,trial,5493548.0,5493766.0,218.0,96,R,5493276,5493688,414,917.7,520.5,5550,NA
31,2,binary,46,1,postResponse,5493548.0,5493766.0,218.0,96,R,5493734,5494098,366,523.8,547.9,5068,left
31,2,binary,47,2,fixationCross,5494949.0,5495599.0,650.0,97,R,5494580,5494634,56,1230.2,434.9,5144,right
31,2,binary,47,2,fixationCross,5494949.0,5495599.0,650.0,97,R,5494664,5494818,156,993.2,482.4,5397,NA
31,2,binary,47,2,trial,5494949.0,5495599.0,650.0,97,R,5494834,5495104,272,956.2,524.7,5421,NA
31,2,binary,47,2,trial,5494949.0,5495599.0,650.0,97,R,5495146,5495468,324,1293.6,566.6,5131,right
31,2,binary,47,2,postResponse,5494949.0,5495599.0,650.0,97,R,5495490,5495932,444,1420.1,569.5,4806,right
31,2,binary,48,1,fixationCross,5496566.0,5497015.0,449.0,98,R,5496032,5496234,204,1685.9,456.3,4921,right
31,2,binary,48,1,fixationCross,5496566.0,5497015.0,449.0,98,R,5496298,5496474,178,951.6,459.6,5395,NA
31,2,binary,48,1,trial,5496566.0,5497015.0,449.0,98,R,5496498,5496710,214,883.3,523.5,5314,NA
31,2,binary,48,1,trial,5496566.0,5497015.0,449.0,98,R,5496758,5497220,464,459.4,526.8,5364,left
31,2,binary,49,2,fixationCross,5498098.0,5498432.0,334.0,99,R,5497528,5497802,276,869.2,466.1,5237,NA
31,2,binary,49,2,fixationCross,5498098.0,5498432.0,334.0,99,R,5497824,5497980,158,918.7,510.8,5454,NA
31,2,binary,49,2,trial,5498098.0,5498432.0,334.0,99,R,5497998,5498290,294,935.7,576.4,5130,NA
31,2,binary,49,2,postResponse,5498098.0,5498432.0,334.0,99,R,5498340,5498772,434,1340.6,559.1,4871,right
31,2,binary,50,1,fixationCross,5499532.0,5499832.0,300.0,100,R,5498872,5498950,80,1341.1,543.3,4520,right
31,2,binary,50,1,fixationCross,5499532.0,5499832.0,300.0,100,R,5499040,5499212,174,533.1,541.1,4820,left
31,2,binary,50,1,trial,5499532.0,5499832.0,300.0,100,R,5499256,5499674,420,939.6,556.7,4968,NA
31,2,binary,50,1,trial,5499532.0,5499832.0,300.0,100,R,5499720,5500072,354,485.8,542.6,5076,left
31,3,valuation,1,5,fixationCross,5565683.0,5568583.0,2900.0,101,R,5565227,5565317,92,878.7,895.2,5758,likertHorizontal
31,3,valuation,1,5,fixationCross,5565683.0,5568583.0,2900.0,101,R,5565363,5565659,298,940.8,480.1,5743,NA
31,3,valuation,1,5,trial,5565683.0,5568583.0,2900.0,101,R,5565683,5565783,102,980.7,571.5,5629,NA
31,3,valuation,1,5,trial,5565683.0,5568583.0,2900.0,101,R,5565901,5566033,134,603.0,487.6,5565,likertVertical
31,3,valuation,1,5,trial,5565683.0,5568583.0,2900.0,101,R,5566075,5566239,166,543.8,304.0,5506,likertVertical
31,3,valuation,1,5,trial,5565683.0,5568583.0,2900.0,101,R,5566257,5566463,208,613.0,290.4,5329,likertVertical
31,3,valuation,1,5,trial,5565683.0,5568583.0,2900.0,101,R,5566479,5566623,146,668.5,301.8,5126,likertVertical
31,3,valuation,1,5,trial,5565683.0,5568583.0,2900.0,101,R,5566661,5566795,136,488.9,605.4,5155,likertVertical
31,3,valuation,1,5,trial,5565683.0,5568583.0,2900.0,101,R,5566805,5566977,174,469.9,580.9,5214,likertVertical
31,3,valuation,1,5,trial,5565683.0,5568583.0,2900.0,101,R,5567041,5567319,280,1446.5,471.8,5066,right
31,3,valuation,1,5,trial,5565683.0,5568583.0,2900.0,101,R,5567333,5567501,170,1495.3,488.4,4963,right
31,3,valuation,1,5,trial,5565683.0,5568583.0,2900.0,101,R,5567567,5567865,300,525.1,406.4,5037,likertVertical
31,3,valuation,1,5,trial,5565683.0,5568583.0,2900.0,101,R,5567885,5568195,312,469.9,428.5,5305,likertVertical
31,3,valuation,1,5,trial,5565683.0,5568583.0,2900.0,101,R,5568211,5568465,256,501.6,388.3,5344,likertVertical
31,3,valuation,1,5,trial,5565683.0,5568583.0,2900.0,101,R,5568487,5568865,380,501.2,472.5,5295,likertVertical
31,3,valuation,2,7,fixationCross,5569600.0,5571850.0,2250.0,102,R,5568991,5569225,236,987.3,381.9,5420,NA
31,3,valuation,2,7,fixationCross,5569600.0,5571850.0,2250.0,102,R,5569415,5569461,48,1010.9,466.6,5629,NA
31,3,valuation,2,7,trial,5569600.0,5571850.0,2250.0,102,R,5569479,5569761,284,946.4,518.4,5860,NA
31,3,valuation,2,7,trial,5569600.0,5571850.0,2250.0,102,R,5569815,5570015,202,442.4,463.2,5763,likertVertical
31,3,valuation,2,7,trial,5569600.0,5571850.0,2250.0,102,R,5570025,5570385,362,468.6,478.3,5271,likertVertical
31,3,valuation,2,7,trial,5569600.0,5571850.0,2250.0,102,R,5570451,5570721,272,1440.4,459.9,5044,right
31,3,valuation,2,7,trial,5569600.0,5571850.0,2250.0,102,R,5570787,5570919,134,550.2,209.4,5229,NA
31,3,valuation,2,7,trial,5569600.0,5571850.0,2250.0,102,R,5570937,5570967,32,535.3,252.2,5212,likertVertical
31,3,valuation,2,7,trial,5569600.0,5571850.0,2250.0,102,R,5570981,5571051,72,580.6,268.3,5175,likertVertical
31,3,valuation,2,7,trial,5569600.0,5571850.0,2250.0,102,R,5571111,5571361,252,1481.8,588.5,5004,right
31,3,valuation,2,7,trial,5569600.0,5571850.0,2250.0,102,R,5571429,5571795,368,467.1,294.8,5002,likertVertical
31,3,valuation,2,7,trial,5569600.0,5571850.0,2250.0,102,R,5571815,5572089,276,567.9,279.8,4977,likertVertical
31,3,valuation,3,3,fixationCross,5572933.0,5574000.0,1067.0,103,R,5572293,5572631,340,1003.9,288.2,5150,NA
31,3,valuation,3,3,fixationCross,5572933.0,5574000.0,1067.0,103,R,5572663,5572757,96,986.9,500.2,5514,NA
31,3,valuation,3,3,trial,5572933.0,5574000.0,1067.0,103,R,5572779,5573085,308,944.9,575.4,5245,NA
31,3,valuation,3,3,trial,5572933.0,5574000.0,1067.0,103,R,5573135,5573281,148,477.4,507.9,5255,likertVertical
31,3,valuation,3,3,trial,5572933.0,5574000.0,1067.0,103,R,5573351,5574005,656,1470.6,484.7,4955,right
31,3,valuation,3,3,postResponse,5572933.0,5574000.0,1067.0,103,R,5574081,5574335,256,426.1,638.6,5294,likertVertical
31,3,valuation,4,4,fixationCross,5575033.0,5575483.0,450.0,104,R,5574449,5574753,306,1235.4,484.5,5240,right
31,3,valuation,4,4,fixationCross,5575033.0,5575483.0,450.0,104,R,5574791,5574939,150,952.3,528.2,5318,NA
31,3,valuation,4,4,trial,5575033.0,5575483.0,450.0,104,R,5574947,5575171,226,949.9,547.6,5449,NA
31,3,valuation,4,4,trial,5575033.0,5575483.0,450.0,104,R,5575223,5575383,162,471.3,515.1,5679,likertVertical
31,3,valuation,4,4,postResponse,5575033.0,5575483.0,450.0,104,R,5575407,5575817,412,483.4,590.2,5453,likertVertical
31,3,valuation,5,3,fixationCross,5576683.0,5577867.0,1184.0,105,R,5575929,5576179,252,1285.0,378.7,5508,right
31,3,valuation,5,3,fixationCross,5576683.0,5577867.0,1184.0,105,R,5576347,5576399,54,1133.2,438.6,5624,NA
31,3,valuation,5,3,fixationCross,5576683.0,5577867.0,1184.0,105,R,5576433,5576573,142,968.0,504.3,5767,NA
31,3,valuation,5,3,trial,5576683.0,5577867.0,1184.0,105,R,5576585,5576833,250,957.5,542.5,5920,NA
31,3,valuation,5,3,trial,5576683.0,5577867.0,1184.0,105,R,5576893,5577027,136,1523.6,492.7,5480,right
31,3,valuation,5,3,trial,5576683.0,5577867.0,1184.0,105,R,5577043,5577199,158,1582.5,460.7,5162,right
31,3,valuation,5,3,trial,5576683.0,5577867.0,1184.0,105,R,5577209,5577477,270,1610.3,457.1,4725,right
31,3,valuation,5,3,trial,5576683.0,5577867.0,1184.0,105,R,5577547,5577669,124,546.2,600.7,4821,likertVertical
31,3,valuation,5,3,trial,5576683.0,5577867.0,1184.0,105,R,5577693,5578079,388,457.6,642.4,4998,likertVertical
31,3,valuation,6,6,fixationCross,5578916.0,5580667.0,1751.0,106,R,5578377,5578611,236,1410.2,400.9,5039,right
31,3,valuation,6,6,fixationCross,5578916.0,5580667.0,1751.0,106,R,5578653,5578761,110,1025.3,464.9,5369,NA
31,3,valuation,6,6,trial,5578916.0,5580667.0,1751.0,106,R,5578785,5579055,272,951.9,526.4,5049,NA
31,3,valuation,6,6,trial,5578916.0,5580667.0,1751.0,106,R,5579103,5579377,276,1431.8,503.1,4939,right
31,3,valuation,6,6,trial,5578916.0,5580667.0,1751.0,106,R,5579439,5579667,230,513.6,444.6,5145,likertVertical
31,3,valuation,6,6,trial,5578916.0,5580667.0,1751.0,106,R,5579681,5580349,670,492.5,466.9,5061,likertVertical
31,3,valuation,6,6,trial,5578916.0,5580667.0,1751.0,106,R,5580385,5580591,208,495.8,343.8,5082,likertVertical
31,3,valuation,6,6,trial,5578916.0,5580667.0,1751.0,106,R,5580661,5580885,226,1453.5,458.1,4873,right
31,3,valuation,7,6,fixationCross,5581717.0,5583634.0,1917.0,107,R,5581141,5581221,82,1758.3,520.5,4812,NA
31,3,valuation,7,6,fixationCross,5581717.0,5583634.0,1917.0,107,R,5581279,5581441,164,1095.0,413.4,5300,NA
31,3,valuation,7,6,fixationCross,5581717.0,5583634.0,1917.0,107,R,5581467,5581577,112,982.7,513.5,5353,NA
31,3,valuation,7,6,trial,5581717.0,5583634.0,1917.0,107,R,5581591,5581861,272,958.9,560.5,5063,NA
31,3,valuation,7,6,trial,5581717.0,5583634.0,1917.0,107,R,5581915,5582023,110,434.2,458.1,5069,likertVertical
31,3,valuation,7,6,trial,5581717.0,5583634.0,1917.0,107,R,5582065,5582161,98,513.3,174.2,4969,NA
31,3,valuation,7,6,trial,5581717.0,5583634.0,1917.0,107,R,5582187,5582321,136,582.7,252.0,4945,likertVertical
31,3,valuation,7,6,trial,5581717.0,5583634.0,1917.0,107,R,5582383,5582509,128,1542.6,651.2,4810,right
31,3,valuation,7,6,trial,5581717.0,5583634.0,1917.0,107,R,5582529,5583133,606,1475.1,602.6,4776,right
31,3,valuation,7,6,trial,5581717.0,5583634.0,1917.0,107,R,5583207,5583321,116,422.8,317.0,5051,likertVertical
31,3,valuation,7,6,trial,5581717.0,5583634.0,1917.0,107,R,5583339,5583505,168,481.2,339.6,5102,likertVertical
31,3,valuation,7,6,trial,5581717.0,5583634.0,1917.0,107,R,5583519,5583831,314,513.7,375.8,5131,likertVertical
31,3,valuation,8,5,fixationCross,5584783.0,5585783.0,1000.0,108,R,5584073,5584455,384,2242.3,432.5,4651,NA
31,3,valuation,8,5,fixationCross,5584783.0,5585783.0,1000.0,108,R,5584525,5584647,124,953.7,482.0,5005,NA
31,3,valuation,8,5,trial,5584783.0,5585783.0,1000.0,108,R,5584669,5584951,284,967.4,558.2,4811,NA
31,3,valuation,8,5,trial,5584783.0,5585783.0,1000.0,108,R,5585007,5585203,198,430.6,412.0,5225,likertVertical
31,3,valuation,8,5,trial,5584783.0,5585783.0,1000.0,108,R,5585231,5585585,356,567.0,253.0,5200,likertVertical
31,3,valuation,8,5,trial,5584783.0,5585783.0,1000.0,108,R,5585641,5585825,186,1377.8,493.1,5040,right
31,3,valuation,8,5,trial,5584783.0,5585783.0,1000.0,108,R,5585851,5586065,216,1316.7,615.4,5123,right
31,3,valuation,9,1,fixationCross,5586850.0,5587533.0,683.0,109,R,5586367,5586533,168,1527.8,428.7,5090,right
31,3,valuation,9,1,fixationCross,5586850.0,5587533.0,683.0,109,R,5586583,5586691,110,1033.9,489.2,5546,NA
31,3,valuation,9,1,fixationCross,5586850.0,5587533.0,683.0,109,R,5586709,5586841,134,980.1,526.5,5411,NA
31,3,valuation,9,1,trial,5586850.0,5587533.0,683.0,109,R,5586853,5587025,174,949.8,557.3,5096,NA
31,3,valuation,9,1,trial,5586850.0,5587533.0,683.0,109,R,5587069,5587217,150,1313.4,541.2,4939,right
31,3,valuation,9,1,trial,5586850.0,5587533.0,683.0,109,R,5587239,5587383,146,1295.0,438.4,4972,right
31,3,valuation,9,1,trial,5586850.0,5587533.0,683.0,109,R,5587395,5587583,190,1292.7,404.5,4952,right
31,3,valuation,9,1,trial,5586850.0,5587533.0,683.0,109,R,5587647,5587805,160,482.1,694.8,5084,likertVertical
31,3,valuation,10,5,fixationCross,5588684.0,5589217.0,533.0,110,R,5587967,5588243,278,1231.2,527.9,5322,right
31,3,valuation,10,5,fixationCross,5588684.0,5589217.0,533.0,110,R,5588305,5588387,84,899.7,782.6,5643,likertHorizontal
31,3,valuation,10,5,fixationCross,5588684.0,5589217.0,533.0,110,R,5588421,5588565,146,956.3,571.0,5684,NA
31,3,valuation,10,5,trial,5588684.0,5589217.0,533.0,110,R,5588589,5588819,232,954.7,547.8,5597,NA
31,3,valuation,10,5,trial,5588684.0,5589217.0,533.0,110,R,5588867,5589147,282,505.8,513.5,5525,likertVertical
31,3,valuation,10,5,trial,5588684.0,5589217.0,533.0,110,R,5589165,5589261,98,500.3,466.1,5452,likertVertical
31,3,valuation,10,5,postResponse,5588684.0,5589217.0,533.0,110,R,5589321,5589551,232,1405.5,430.7,5046,right
31,3,valuation,11,2,fixationCross,5590450.0,5590966.0,516.0,111,R,5589625,5589961,338,1396.3,417.9,5229,right
31,3,valuation,11,2,fixationCross,5590450.0,5590966.0,516.0,111,R,5590007,5590155,150,1064.8,462.6,5678,NA
31,3,valuation,11,2,trial,5590450.0,5590966.0,516.0,111,R,5590179,5590595,418,959.0,527.2,5491,NA
31,3,valuation,11,2,trial,5590450.0,5590966.0,516.0,111,R,5590645,5591215,572,1488.7,482.0,5006,right
31,3,valuation,12,7,fixationCross,5592184.0,5592851.0,667.0,112,R,5591551,5591733,184,1704.4,317.5,4925,NA
31,3,valuation,12,7,fixationCross,5592184.0,5592851.0,667.0,112,R,5591789,5591891,104,1190.8,429.6,5481,right
31,3,valuation,12,7,trial,5592184.0,5592851.0,667.0,112,R,5591927,5592323,398,1009.8,496.0,4991,NA
31,3,valuation,12,7,trial,5592184.0,5592851.0,667.0,112,R,5592369,5592823,456,1393.9,485.6,4949,right
31,3,valuation,12,7,postResponse,5592184.0,5592851.0,667.0,112,R,5592887,5593185,300,564.6,279.3,4928,likertVertical
31,3,valuation,13,4,fixationCross,5594083.0,5594950.0,867.0,113,R,5593401,5593651,252,1601.1,329.8,4798,NA
31,3,valuation,13,4,fixationCross,5594083.0,5594950.0,867.0,113,R,5593703,5593801,100,1098.6,440.5,5369,NA
31,3,valuation,13,4,trial,5594083.0,5594950.0,867.0,113,R,5593827,5594233,408,974.5,526.1,5132,NA
31,3,valuation,13,4,trial,5594083.0,5594950.0,867.0,113,R,5594279,5594477,200,1387.2,514.6,5171,right
31,3,valuation,13,4,trial,5594083.0,5594950.0,867.0,113,R,5594543,5594729,188,463.4,363.3,5152,likertVertical
31,3,valuation,13,4,trial,5594083.0,5594950.0,867.0,113,R,5594769,5595171,404,476.8,558.4,4986,likertVertical
31,3,valuation,14,5,fixationCross,5596067.0,5596784.0,717.0,114,R,5595497,5595611,116,1454.4,295.2,4829,NA
31,3,valuation,14,5,fixationCross,5596067.0,5596784.0,717.0,114,R,5595655,5595781,128,1064.4,329.9,5203,NA
31,3,valuation,14,5,trial,5596067.0,5596784.0,717.0,114,R,5595809,5596217,410,947.2,535.4,5109,NA
31,3,valuation,14,5,trial,5596067.0,5596784.0,717.0,114,R,5596271,5596553,284,1429.7,508.3,4880,right
31,3,valuation,14,5,trial,5596067.0,5596784.0,717.0,114,R,5596619,5597031,414,508.6,374.3,4751,likertVertical
31,3,valuation,15,3,fixationCross,5597984.0,5598583.0,599.0,115,R,5597383,5597529,148,1612.4,340.3,4944,NA
31,3,valuation,15,3,fixationCross,5597984.0,5598583.0,599.0,115,R,5597577,5597687,112,1089.7,414.5,5346,NA
31,3,valuation,15,3,fixationCross,5597984.0,5598583.0,599.0,115,R,5597715,5597923,210,978.1,497.6,5138,NA
31,3,valuation,15,3,trial,5597984.0,5598583.0,599.0,115,R,5597935,5598127,194,961.0,527.2,4876,NA
31,3,valuation,15,3,trial,5597984.0,5598583.0,599.0,115,R,5598171,5598385,216,1305.3,517.6,4895,right
31,3,valuation,15,3,trial,5597984.0,5598583.0,599.0,115,R,5598449,5598575,128,423.9,578.9,4940,likertVertical
31,3,valuation,15,3,trial,5597984.0,5598583.0,599.0,115,R,5598599,5598851,254,466.8,638.6,4891,likertVertical
31,3,valuation,16,5,fixationCross,5599850.0,5600467.0,617.0,116,R,5599347,5599403,58,1635.1,346.7,4997,NA
31,3,valuation,16,5,fixationCross,5599850.0,5600467.0,617.0,116,R,5599451,5599565,116,1153.8,406.2,5404,NA
31,3,valuation,16,5,trial,5599850.0,5600467.0,617.0,116,R,5599603,5599995,394,976.9,534.0,5156,NA
31,3,valuation,16,5,trial,5599850.0,5600467.0,617.0,116,R,5600045,5600341,298,510.1,479.7,4901,likertVertical
31,3,valuation,16,5,trial,5599850.0,5600467.0,617.0,116,R,5600355,5600485,132,496.0,426.6,4992,likertVertical
31,3,valuation,16,5,trial,5599850.0,5600467.0,617.0,116,R,5600549,5600705,158,1458.1,517.6,4788,right
31,3,valuation,17,3,fixationCross,5601516.0,5602100.0,584.0,117,R,5601039,5601227,190,746.9,330.6,5085,NA
31,3,valuation,17,3,fixationCross,5601516.0,5602100.0,584.0,117,R,5601261,5601383,124,928.1,520.5,5286,NA
31,3,valuation,17,3,trial,5601516.0,5602100.0,584.0,117,R,5601395,5601687,294,952.5,557.6,5004,NA
31,3,valuation,17,3,trial,5601516.0,5602100.0,584.0,117,R,5601741,5602057,318,485.9,526.9,4837,likertVertical
31,3,valuation,17,3,postResponse,5601516.0,5602100.0,584.0,117,R,5602083,5602447,366,478.0,609.4,5017,likertVertical
31,3,valuation,18,3,fixationCross,5603417.0,5604033.0,616.0,118,R,5603061,5603121,62,1233.1,343.3,5147,NA
31,3,valuation,18,3,fixationCross,5603417.0,5604033.0,616.0,118,R,5603155,5603299,146,971.7,496.8,5386,NA
31,3,valuation,18,3,trial,5603417.0,5604033.0,616.0,118,R,5603317,5603581,266,950.1,556.7,5245,NA
31,3,valuation,18,3,trial,5603417.0,5604033.0,616.0,118,R,5603629,5603979,352,522.9,565.0,5021,likertVertical
31,3,valuation,18,3,trial,5603417.0,5604033.0,616.0,118,R,5603999,5604287,290,493.8,624.3,5120,likertVertical
31,3,valuation,19,2,fixationCross,5605266.0,5606283.0,1017.0,119,R,5604927,5604969,44,1453.6,339.9,5023,NA
31,3,valuation,19,2,fixationCross,5605266.0,5606283.0,1017.0,119,R,5605017,5605181,166,982.6,466.4,5378,NA
31,3,valuation,19,2,trial,5605266.0,5606283.0,1017.0,119,R,5605197,5605483,288,963.5,520.3,5090,NA
31,3,valuation,19,2,trial,5605266.0,5606283.0,1017.0,119,R,5605535,5605805,272,528.0,733.2,4822,likertVertical
31,3,valuation,19,2,trial,5605266.0,5606283.0,1017.0,119,R,5605825,5606211,388,460.3,673.9,4898,likertVertical
31,3,valuation,19,2,trial,5605266.0,5606283.0,1017.0,119,R,5606229,5606515,288,504.4,720.4,4971,likertVertical
31,3,valuation,20,6,fixationCross,5607333.0,5608233.0,900.0,120,R,5606819,5606867,50,1802.5,331.1,4818,NA
31,3,valuation,20,6,fixationCross,5607333.0,5608233.0,900.0,120,R,5606919,5607049,132,1192.2,344.4,5274,NA
31,3,valuation,20,6,fixationCross,5607333.0,5608233.0,900.0,120,R,5607085,5607213,130,987.8,538.3,5310,NA
31,3,valuation,20,6,trial,5607333.0,5608233.0,900.0,120,R,5607227,5607477,252,963.2,564.4,4948,NA
31,3,valuation,20,6,trial,5607333.0,5608233.0,900.0,120,R,5607521,5607727,208,1380.2,553.5,4782,right
31,3,valuation,20,6,trial,5607333.0,5608233.0,900.0,120,R,5607795,5608097,304,433.2,465.3,4641,likertVertical
31,3,valuation,20,6,trial,5607333.0,5608233.0,900.0,120,R,5608123,5608457,336,480.9,332.9,4642,likertVertical
31,3,valuation,21,3,fixationCross,5609300.0,5610033.0,733.0,121,R,5608753,5608841,90,1688.3,410.8,4710,right
