participantNo,block,task,blockTrial,response,trialStage,trialStartTime,trialFinishTime,rt,trial,eye,fixStart,fixEnd,fixLength,fixPosX,fixPosY,dilation,aoi
53,1,continuous,1,26,fixationCross,20482491.0,20489758.0,7267.0,1,L,20481966,20482374,410,902.6,522.0,5434,NA
53,1,continuous,1,26,trial,20482491.0,20489758.0,7267.0,1,L,20482392,20482724,334,955.0,551.5,5399,NA
53,1,continuous,1,26,trial,20482491.0,20489758.0,7267.0,1,L,20482766,20482880,116,623.4,531.5,5590,left
53,1,continuous,1,26,trial,20482491.0,20489758.0,7267.0,1,L,20482900,20483136,238,545.6,471.3,5347,left
53,1,continuous,1,26,trial,20482491.0,20489758.0,7267.0,1,L,20483146,20483346,202,515.4,468.2,5459,left
53,1,continuous,1,26,trial,20482491.0,20489758.0,7267.0,1,L,20483406,20483678,274,1393.9,492.8,5589,right
53,1,continuous,1,26,trial,20482491.0,20489758.0,7267.0,1,L,20483704,20484098,396,1463.6,586.6,5541,right
53,1,continuous,1,26,trial,20482491.0,20489758.0,7267.0,1,L,20484160,20484310,152,447.3,537.4,5334,left
53,1,continuous,1,26,trial,20482491.0,20489758.0,7267.0,1,L,20484330,20484580,252,514.0,482.7,5243,left
53,1,continuous,1,26,trial,20482491.0,20489758.0,7267.0,1,L,20484590,20485144,556,529.0,470.8,5204,left
53,1,continuous,1,26,trial,20482491.0,20489758.0,7267.0,1,L,20485174,20485644,472,500.2,618.3,5168,left
53,1,continuous,1,26,trial,20482491.0,20489758.0,7267.0,1,L,20485684,20485962,280,559.6,854.0,5302,NA
53,1,continuous,1,26,trial,20482491.0,20489758.0,7267.0,1,L,20485996,20486238,244,495.2,1031.8,5416,NA
53,1,continuous,1,26,trial,20482491.0,20489758.0,7267.0,1,L,20486248,20486436,190,528.4,1030.7,5428,NA
53,1,continuous,1,26,trial,20482491.0,20489758.0,7267.0,1,L,20486494,20486622,130,1329.9,983.6,5384,NA
53,1,continuous,1,26,trial,20482491.0,20489758.0,7267.0,1,L,20486646,20486798,154,1435.0,1032.0,5361,NA
53,1,continuous,1,26,trial,20482491.0,20489758.0,7267.0,1,L,20486858,20487210,354,570.5,674.9,5541,left
53,1,continuous,1,26,trial,20482491.0,20489758.0,7267.0,1,L,20487236,20487386,152,379.1,682.3,5587,left
53,1,continuous,1,26,trial,20482491.0,20489758.0,7267.0,1,L,20487422,20487622,202,606.8,942.7,5605,NA
53,1,continuous,1,26,trial,20482491.0,20489758.0,7267.0,1,L,20487644,20488242,600,527.6,976.8,5447,NA
53,1,continuous,1,26,trial,20482491.0,20489758.0,7267.0,1,L,20488264,20488794,532,656.6,968.6,5438,NA
53,1,continuous,1,26,trial,20482491.0,20489758.0,7267.0,1,L,20488810,20489666,858,722.0,959.8,5462,NA
53,1,continuous,1,26,trial,20482491.0,20489758.0,7267.0,1,L,20489694,20490032,340,726.6,829.4,5530,NA
53,1,continuous,1,26,postResponse,20482491.0,20489758.0,7267.0,1,L,20490082,20490142,62,809.2,453.2,5560,NA
53,1,continuous,2,1,fixationCross,20490907.0,20493125.0,2218.0,2,L,20490242,20490376,136,811.6,456.0,5715,NA
53,1,continuous,2,1,fixationCross,20490907.0,20493125.0,2218.0,2,L,20490538,20490558,22,869.1,442.8,5785,NA
53,1,continuous,2,1,fixationCross,20490907.0,20493125.0,2218.0,2,L,20490698,20490784,88,886.1,490.3,5664,NA
53,1,continuous,2,1,trial,20490907.0,20493125.0,2218.0,2,L,20490804,20491066,264,957.1,546.6,5786,NA
53,1,continuous,2,1,trial,20490907.0,20493125.0,2218.0,2,L,20491112,20491394,284,1381.4,529.6,5400,right
53,1,continuous,2,1,trial,20490907.0,20493125.0,2218.0,2,L,20491454,20491652,200,549.4,528.2,4919,left
53,1,continuous,2,1,trial,20490907.0,20493125.0,2218.0,2,L,20491670,20491928,260,493.5,550.2,4905,left
53,1,continuous,2,1,trial,20490907.0,20493125.0,2218.0,2,L,20491992,20492230,240,1451.7,532.2,4901,right
53,1,continuous,2,1,postResponse,20490907.0,20493125.0,2218.0,2,L,20492254,20493488,1236,1534.4,460.5,4918,right
53,1,continuous,3,100,fixationCross,20494241.0,20499091.0,4850.0,3,L,20493728,20493908,182,599.4,474.9,5451,left
53,1,continuous,3,100,fixationCross,20494241.0,20499091.0,4850.0,3,L,20493942,20494074,134,875.8,533.2,5668,NA
53,1,continuous,3,100,trial,20494241.0,20499091.0,4850.0,3,L,20494090,20494422,334,947.5,537.9,5580,NA
53,1,continuous,3,100,trial,20494241.0,20499091.0,4850.0,3,L,20494466,20494808,344,533.4,577.7,5164,left
53,1,continuous,3,100,trial,20494241.0,20499091.0,4850.0,3,L,20494866,20495102,238,1434.3,532.2,5044,right
53,1,continuous,3,100,trial,20494241.0,20499091.0,4850.0,3,L,20495122,20495510,390,1512.0,556.7,4984,right
53,1,continuous,3,100,trial,20494241.0,20499091.0,4850.0,3,L,20495570,20495692,124,767.0,573.7,4816,NA
53,1,continuous,3,100,trial,20494241.0,20499091.0,4850.0,3,L,20495722,20495992,272,543.2,582.9,4779,left
53,1,continuous,3,100,trial,20494241.0,20499091.0,4850.0,3,L,20496108,20496632,526,1521.3,586.1,4807,right
53,1,continuous,3,100,trial,20494241.0,20499091.0,4850.0,3,L,20496656,20496842,188,1610.7,563.7,4524,right
53,1,continuous,3,100,trial,20494241.0,20499091.0,4850.0,3,L,20496872,20497052,182,1366.3,636.0,4464,right
53,1,continuous,3,100,trial,20494241.0,20499091.0,4850.0,3,L,20497112,20497388,278,566.4,603.6,4536,left
53,1,continuous,3,100,trial,20494241.0,20499091.0,4850.0,3,L,20497400,20497664,266,537.6,595.7,4708,left
53,1,continuous,3,100,trial,20494241.0,20499091.0,4850.0,3,L,20497726,20498038,314,1482.4,535.7,4761,right
53,1,continuous,3,100,postResponse,20494241.0,20499091.0,4850.0,3,L,20498060,20499440,1382,1564.2,576.8,4707,right
53,1,continuous,4,1,fixationCross,20500024.0,20502891.0,2867.0,4,L,20499544,20499622,80,1545.1,569.9,5105,right
53,1,continuous,4,1,fixationCross,20500024.0,20502891.0,2867.0,4,L,20499672,20499934,264,1027.9,516.1,5393,NA
53,1,continuous,4,1,trial,20500024.0,20502891.0,2867.0,4,L,20499950,20500258,310,970.5,531.9,5570,NA
53,1,continuous,4,1,trial,20500024.0,20502891.0,2867.0,4,L,20500304,20500466,164,567.2,542.0,5340,left
53,1,continuous,4,1,trial,20500024.0,20502891.0,2867.0,4,L,20500488,20500686,200,487.2,552.7,4978,left
53,1,continuous,4,1,trial,20500024.0,20502891.0,2867.0,4,L,20500706,20500884,180,489.8,486.7,4864,left
53,1,continuous,4,1,trial,20500024.0,20502891.0,2867.0,4,L,20500942,20501222,282,1456.7,527.1,4730,right
53,1,continuous,4,1,trial,20500024.0,20502891.0,2867.0,4,L,20501240,20501590,352,1489.1,485.5,4642,right
53,1,continuous,4,1,trial,20500024.0,20502891.0,2867.0,4,L,20501726,20501820,96,1167.1,475.1,4539,NA
53,1,continuous,4,1,trial,20500024.0,20502891.0,2867.0,4,L,20501860,20501962,104,1456.8,481.7,4510,right
53,1,continuous,4,1,trial,20500024.0,20502891.0,2867.0,4,L,20502022,20502362,342,485.9,508.9,4650,left
53,1,continuous,4,1,trial,20500024.0,20502891.0,2867.0,4,L,20502382,20502926,546,509.0,580.1,4472,left
53,1,continuous,4,1,trial,20500024.0,20502891.0,2867.0,4,L,20502948,20503118,172,518.7,498.7,4611,left
53,1,continuous,5,15,fixationCross,20503857.0,20507142.0,3285.0,5,L,20503344,20503522,180,1259.4,482.6,5068,right
53,1,continuous,5,15,trial,20503857.0,20507142.0,3285.0,5,L,20503566,20504046,482,879.3,523.9,5437,NA
53,1,continuous,5,15,trial,20503857.0,20507142.0,3285.0,5,L,20504086,20504710,626,599.6,538.8,4979,left
53,1,continuous,5,15,trial,20503857.0,20507142.0,3285.0,5,L,20504724,20505102,380,647.1,550.5,4890,left
53,1,continuous,5,15,trial,20503857.0,20507142.0,3285.0,5,L,20505128,20505622,496,539.1,474.6,4868,left
53,1,continuous,5,15,trial,20503857.0,20507142.0,3285.0,5,L,20505682,20505832,152,1421.0,565.2,4925,right
53,1,continuous,5,15,trial,20503857.0,20507142.0,3285.0,5,L,20505854,20506118,266,1510.9,568.3,4914,right
53,1,continuous,5,15,trial,20503857.0,20507142.0,3285.0,5,L,20506128,20506230,104,1531.5,551.6,4888,right
53,1,continuous,5,15,trial,20503857.0,20507142.0,3285.0,5,L,20506286,20506582,298,714.9,658.7,4865,left
53,1,continuous,5,15,trial,20503857.0,20507142.0,3285.0,5,L,20506608,20507392,786,631.7,565.0,4878,left
53,1,continuous,6,1,fixationCross,20508207.0,20510374.0,2167.0,6,L,20507594,20507918,326,797.8,520.3,5066,NA
53,1,continuous,6,1,trial,20508207.0,20510374.0,2167.0,6,L,20507942,20508390,450,947.0,552.2,5215,NA
53,1,continuous,6,1,trial,20508207.0,20510374.0,2167.0,6,L,20508446,20508638,194,1478.0,570.3,4914,right
53,1,continuous,6,1,trial,20508207.0,20510374.0,2167.0,6,L,20508700,20508850,152,506.5,563.8,4753,left
53,1,continuous,6,1,trial,20508207.0,20510374.0,2167.0,6,L,20508872,20509314,444,408.6,579.6,4730,left
53,1,continuous,6,1,trial,20508207.0,20510374.0,2167.0,6,L,20509342,20509536,196,537.4,504.9,4572,left
53,1,continuous,6,1,trial,20508207.0,20510374.0,2167.0,6,L,20509598,20509790,194,1496.8,602.1,4450,right
53,1,continuous,6,1,trial,20508207.0,20510374.0,2167.0,6,L,20509810,20509966,158,1481.8,659.8,4500,right
53,1,continuous,6,1,trial,20508207.0,20510374.0,2167.0,6,L,20509976,20510096,122,1469.9,684.9,4594,right
53,1,continuous,6,1,trial,20508207.0,20510374.0,2167.0,6,L,20510156,20510686,532,596.9,545.7,4694,left
53,1,continuous,7,27,fixationCross,20511307.0,20515107.0,3800.0,7,L,20510830,20510958,130,1070.8,577.7,5030,NA
53,1,continuous,7,27,fixationCross,20511307.0,20515107.0,3800.0,7,L,20510984,20511248,266,895.6,544.3,5214,NA
53,1,continuous,7,27,trial,20511307.0,20515107.0,3800.0,7,L,20511262,20511676,416,939.8,553.1,5350,NA
53,1,continuous,7,27,trial,20511307.0,20515107.0,3800.0,7,L,20511718,20511890,174,542.0,591.0,4945,left
53,1,continuous,7,27,trial,20511307.0,20515107.0,3800.0,7,L,20511910,20512088,180,450.3,626.6,4905,left
53,1,continuous,7,27,trial,20511307.0,20515107.0,3800.0,7,L,20512152,20512290,140,1459.4,582.3,4803,right
53,1,continuous,7,27,trial,20511307.0,20515107.0,3800.0,7,L,20512314,20512498,186,1551.4,534.8,4692,right
53,1,continuous,7,27,trial,20511307.0,20515107.0,3800.0,7,L,20512516,20512846,332,1548.6,494.1,4696,right
53,1,continuous,7,27,trial,20511307.0,20515107.0,3800.0,7,L,20512872,20513050,180,1401.4,466.4,4719,right
53,1,continuous,7,27,trial,20511307.0,20515107.0,3800.0,7,L,20513114,20513994,882,449.6,618.0,4792,left
53,1,continuous,7,27,trial,20511307.0,20515107.0,3800.0,7,L,20514042,20514358,318,960.2,626.7,4745,NA
53,1,continuous,7,27,trial,20511307.0,20515107.0,3800.0,7,L,20514390,20514502,114,777.2,590.1,4861,NA
53,1,continuous,7,27,trial,20511307.0,20515107.0,3800.0,7,L,20514550,20514896,348,1336.6,634.5,4929,right
53,1,continuous,7,27,trial,20511307.0,20515107.0,3800.0,7,L,20514934,20515158,226,1361.2,429.7,4929,right
53,1,continuous,7,27,trial,20511307.0,20515107.0,3800.0,7,L,20515186,20515358,174,1527.5,507.0,4816,right
53,1,continuous,8,1,fixationCross,20516191.0,20517724.0,1533.0,8,L,20515596,20515870,276,731.3,505.0,5025,left
53,1,continuous,8,1,trial,20516191.0,20517724.0,1533.0,8,L,20515896,20516346,452,911.1,544.8,5177,NA
53,1,continuous,8,1,trial,20516191.0,20517724.0,1533.0,8,L,20516390,20516520,132,549.8,542.4,4906,left
53,1,continuous,8,1,trial,20516191.0,20517724.0,1533.0,8,L,20516536,20516962,428,497.9,534.0,4634,left
53,1,continuous,8,1,trial,20516191.0,20517724.0,1533.0,8,L,20517022,20517240,220,1445.4,525.4,4546,right
53,1,continuous,8,1,trial,20516191.0,20517724.0,1533.0,8,L,20517260,20517760,502,1464.7,475.8,4907,right
53,1,continuous,8,1,postResponse,20516191.0,20517724.0,1533.0,8,L,20517822,20518058,238,616.9,800.5,5369,NA
53,1,continuous,9,74,fixationCross,20519725.0,20526858.0,7133.0,9,L,20518300,20518492,194,606.2,545.4,5690,left
53,1,continuous,9,74,fixationCross,20519725.0,20526858.0,7133.0,9,L,20518520,20519418,900,832.8,555.5,5527,NA
53,1,continuous,9,74,trial,20519725.0,20526858.0,7133.0,9,L,20519440,20519938,500,946.6,563.9,5375,NA
53,1,continuous,9,74,trial,20519725.0,20526858.0,7133.0,9,L,20519982,20520156,176,547.4,578.7,5467,left
53,1,continuous,9,74,trial,20519725.0,20526858.0,7133.0,9,L,20520178,20520376,200,424.3,557.2,5154,left
53,1,continuous,9,74,trial,20519725.0,20526858.0,7133.0,9,L,20520436,20520748,314,1386.2,540.2,4997,right
53,1,continuous,9,74,trial,20519725.0,20526858.0,7133.0,9,L,20520766,20521140,376,1460.5,528.0,4780,right
53,1,continuous,9,74,trial,20519725.0,20526858.0,7133.0,9,L,20521214,20521520,308,487.1,513.3,4663,left
53,1,continuous,9,74,trial,20519725.0,20526858.0,7133.0,9,L,20521538,20521766,230,418.9,526.3,4701,left
53,1,continuous,9,74,trial,20519725.0,20526858.0,7133.0,9,L,20521790,20522104,316,567.1,549.0,4717,left
53,1,continuous,9,74,trial,20519725.0,20526858.0,7133.0,9,L,20522116,20522560,446,560.8,582.2,4645,left
53,1,continuous,9,74,trial,20519725.0,20526858.0,7133.0,9,L,20522680,20522762,84,1343.7,544.9,4596,right
53,1,continuous,9,74,trial,20519725.0,20526858.0,7133.0,9,L,20522870,20523114,246,1420.7,634.5,4815,right
53,1,continuous,9,74,trial,20519725.0,20526858.0,7133.0,9,L,20523142,20523580,440,1522.6,550.1,4825,right
53,1,continuous,9,74,trial,20519725.0,20526858.0,7133.0,9,L,20523602,20523826,226,1632.1,568.0,4543,right
53,1,continuous,9,74,trial,20519725.0,20526858.0,7133.0,9,L,20523854,20524194,342,1460.9,543.3,4501,right
53,1,continuous,9,74,trial,20519725.0,20526858.0,7133.0,9,L,20524262,20524728,468,482.9,582.1,4637,left
53,1,continuous,9,74,trial,20519725.0,20526858.0,7133.0,9,L,20524878,20525424,548,527.2,566.4,4756,left
53,1,continuous,9,74,trial,20519725.0,20526858.0,7133.0,9,L,20525474,20525640,168,1008.0,603.0,4775,NA
53,1,continuous,9,74,trial,20519725.0,20526858.0,7133.0,9,L,20525688,20525818,132,1319.8,985.8,4816,NA
53,1,continuous,9,74,trial,20519725.0,20526858.0,7133.0,9,L,20525840,20526002,164,1409.5,1022.1,4841,NA
53,1,continuous,9,74,trial,20519725.0,20526858.0,7133.0,9,L,20526032,20526578,548,1200.4,915.2,4988,NA
53,1,continuous,9,74,trial,20519725.0,20526858.0,7133.0,9,L,20526624,20526804,182,1349.0,563.0,5031,right
53,1,continuous,9,74,trial,20519725.0,20526858.0,7133.0,9,L,20526848,20527158,312,1202.6,843.4,4874,NA
53,1,continuous,10,17,fixationCross,20527808.0,20533708.0,5900.0,10,L,20527306,20527504,200,696.2,453.0,5059,left
53,1,continuous,10,17,trial,20527808.0,20533708.0,5900.0,10,L,20527532,20527948,418,890.3,521.9,5322,NA
53,1,continuous,10,17,trial,20527808.0,20533708.0,5900.0,10,L,20527990,20528130,142,580.2,491.0,5246,left
53,1,continuous,10,17,trial,20527808.0,20533708.0,5900.0,10,L,20528144,20528326,184,532.6,492.2,4893,left
53,1,continuous,10,17,trial,20527808.0,20533708.0,5900.0,10,L,20528346,20528508,164,588.3,542.2,4745,left
53,1,continuous,10,17,trial,20527808.0,20533708.0,5900.0,10,L,20528530,20528972,444,524.5,623.3,4871,left
53,1,continuous,10,17,trial,20527808.0,20533708.0,5900.0,10,L,20529030,20529308,280,1358.9,555.8,4797,right
53,1,continuous,10,17,trial,20527808.0,20533708.0,5900.0,10,L,20529328,20530274,948,1411.1,514.8,4941,right
53,1,continuous,10,17,trial,20527808.0,20533708.0,5900.0,10,L,20530290,20530556,268,1460.7,508.8,5076,right
53,1,continuous,10,17,trial,20527808.0,20533708.0,5900.0,10,L,20530618,20530794,178,683.3,518.8,4975,left
53,1,continuous,10,17,trial,20527808.0,20533708.0,5900.0,10,L,20530818,20531096,280,535.7,549.9,4857,left
53,1,continuous,10,17,trial,20527808.0,20533708.0,5900.0,10,L,20531112,20531320,210,490.9,587.3,4889,left
53,1,continuous,10,17,trial,20527808.0,20533708.0,5900.0,10,L,20531336,20531500,166,434.5,596.9,4829,left
53,1,continuous,10,17,trial,20527808.0,20533708.0,5900.0,10,L,20531522,20531802,282,544.9,616.0,4824,left
53,1,continuous,10,17,trial,20527808.0,20533708.0,5900.0,10,L,20531826,20532118,294,540.3,515.1,4820,left
53,1,continuous,10,17,trial,20527808.0,20533708.0,5900.0,10,L,20532130,20532456,328,584.2,517.5,4683,left
53,1,continuous,10,17,trial,20527808.0,20533708.0,5900.0,10,L,20532518,20532952,436,1428.1,546.7,4537,right
53,1,continuous,10,17,trial,20527808.0,20533708.0,5900.0,10,L,20533016,20533354,340,558.7,543.4,4477,left
53,1,continuous,10,17,trial,20527808.0,20533708.0,5900.0,10,L,20533372,20533632,262,537.2,492.8,4495,left
53,1,continuous,10,17,postResponse,20527808.0,20533708.0,5900.0,10,L,20533654,20534056,404,506.6,571.6,4496,left
53,1,continuous,11,80,fixationCross,20535624.0,20538324.0,2700.0,11,L,20534178,20534336,160,1010.9,525.4,4738,NA
53,1,continuous,11,80,fixationCross,20535624.0,20538324.0,2700.0,11,L,20534360,20535388,1030,834.1,545.4,5022,NA
53,1,continuous,11,80,trial,20535624.0,20538324.0,2700.0,11,L,20535410,20535772,364,951.2,553.0,4978,NA
53,1,continuous,11,80,trial,20535624.0,20538324.0,2700.0,11,L,20535814,20535938,126,1264.6,533.6,5069,right
53,1,continuous,11,80,trial,20535624.0,20538324.0,2700.0,11,L,20535966,20536182,218,1445.2,561.9,4717,right
53,1,continuous,11,80,trial,20535624.0,20538324.0,2700.0,11,L,20536198,20536448,252,1483.0,595.5,4600,right
53,1,continuous,11,80,trial,20535624.0,20538324.0,2700.0,11,L,20536478,20536628,152,1610.1,482.8,4491,right
53,1,continuous,11,80,trial,20535624.0,20538324.0,2700.0,11,L,20536690,20536956,268,595.4,642.1,4508,left
53,1,continuous,11,80,trial,20535624.0,20538324.0,2700.0,11,L,20536982,20537328,348,540.2,525.8,4392,left
53,1,continuous,11,80,trial,20535624.0,20538324.0,2700.0,11,L,20537390,20538098,710,1503.4,596.0,4352,right
53,1,continuous,11,80,trial,20535624.0,20538324.0,2700.0,11,L,20538124,20538600,478,1326.5,646.3,4484,right
53,1,continuous,11,80,postResponse,20535624.0,20538324.0,2700.0,11,L,20538614,20538670,58,1299.0,575.0,4611,right
53,1,continuous,12,1,fixationCross,20539391.0,20541508.0,2117.0,12,L,20538770,20538824,56,1216.2,554.6,4727,right
53,1,continuous,12,1,fixationCross,20539391.0,20541508.0,2117.0,12,L,20538880,20539096,218,698.2,541.0,4982,left
53,1,continuous,12,1,fixationCross,20539391.0,20541508.0,2117.0,12,L,20539124,20539350,228,910.5,555.6,5178,NA
53,1,continuous,12,1,trial,20539391.0,20541508.0,2117.0,12,L,20539376,20539548,174,752.2,543.4,5039,NA
53,1,continuous,12,1,trial,20539391.0,20541508.0,2117.0,12,L,20539582,20539778,198,536.2,550.9,4898,left
53,1,continuous,12,1,trial,20539391.0,20541508.0,2117.0,12,L,20539796,20539950,156,506.2,508.5,4694,left
53,1,continuous,12,1,trial,20539391.0,20541508.0,2117.0,12,L,20540066,20540380,316,1450.9,548.4,4771,right
53,1,continuous,12,1,trial,20539391.0,20541508.0,2117.0,12,L,20540394,20540844,452,1424.8,509.8,4859,right
53,1,continuous,12,1,trial,20539391.0,20541508.0,2117.0,12,L,20540906,20541292,388,525.9,558.1,4738,left
53,1,continuous,12,1,trial,20539391.0,20541508.0,2117.0,12,L,20541348,20541400,54,500.9,1162.7,5003,NA
53,1,continuous,12,1,trial,20539391.0,20541508.0,2117.0,12,L,20541424,20541546,124,513.3,1061.6,5026,NA
53,1,continuous,12,1,postResponse,20539391.0,20541508.0,2117.0,12,L,20541564,20541832,270,502.1,1015.8,5033,NA
53,1,continuous,13,1,fixationCross,20542441.0,20545325.0,2884.0,13,L,20541958,20542036,80,882.7,546.4,5065,NA
53,1,continuous,13,1,trial,20542441.0,20545325.0,2884.0,13,L,20542192,20542644,454,918.9,497.8,5349,NA
53,1,continuous,13,1,trial,20542441.0,20545325.0,2884.0,13,L,20542688,20542904,218,545.5,556.4,5082,left
53,1,continuous,13,1,trial,20542441.0,20545325.0,2884.0,13,L,20542920,20543082,164,508.6,585.4,4740,left
53,1,continuous,13,1,trial,20542441.0,20545325.0,2884.0,13,L,20543098,20543294,198,575.6,609.8,4659,left
53,1,continuous,13,1,trial,20542441.0,20545325.0,2884.0,13,L,20543354,20543970,618,1439.7,578.3,4558,right
53,1,continuous,13,1,trial,20542441.0,20545325.0,2884.0,13,L,20544020,20544232,214,970.8,837.6,4389,likertHorizontal
53,1,continuous,13,1,trial,20542441.0,20545325.0,2884.0,13,L,20544278,20544548,272,709.3,552.5,4602,left
53,1,continuous,13,1,postResponse,20542441.0,20545325.0,2884.0,13,L,20544570,20545670,1102,601.7,603.4,5028,left
53,1,continuous,14,91,fixationCross,20546474.0,20549142.0,2668.0,14,L,20545746,20545896,152,976.6,532.4,5125,NA
53,1,continuous,14,91,fixationCross,20546474.0,20549142.0,2668.0,14,L,20545920,20546176,258,827.8,540.8,5244,NA
53,1,continuous,14,91,trial,20546474.0,20549142.0,2668.0,14,L,20546198,20546662,466,934.3,542.9,5301,NA
53,1,continuous,14,91,trial,20546474.0,20549142.0,2668.0,14,L,20546708,20546882,176,612.4,573.6,5023,left
53,1,continuous,14,91,trial,20546474.0,20549142.0,2668.0,14,L,20546902,20547258,358,548.1,490.5,4774,left
53,1,continuous,14,91,trial,20546474.0,20549142.0,2668.0,14,L,20547318,20547584,268,1415.6,532.1,4674,right
53,1,continuous,14,91,trial,20546474.0,20549142.0,2668.0,14,L,20547610,20547932,324,1469.7,652.7,4772,right
53,1,continuous,14,91,trial,20546474.0,20549142.0,2668.0,14,L,20547952,20548424,474,1384.5,671.1,4797,right
53,1,continuous,14,91,postResponse,20546474.0,20549142.0,2668.0,14,L,20548442,20549490,1050,1337.1,706.3,4821,right
53,1,continuous,15,6,fixationCross,20550258.0,20553441.0,3183.0,15,L,20549594,20549836,244,1003.9,530.8,4985,NA
53,1,continuous,15,6,fixationCross,20550258.0,20553441.0,3183.0,15,L,20549880,20550056,178,713.6,503.5,5292,left
53,1,continuous,15,6,trial,20550258.0,20553441.0,3183.0,15,L,20550080,20550424,346,880.9,533.5,5315,NA
53,1,continuous,15,6,trial,20550258.0,20553441.0,3183.0,15,L,20550466,20550642,178,558.6,533.3,5199,left
53,1,continuous,15,6,trial,20550258.0,20553441.0,3183.0,15,L,20550664,20551026,364,454.3,541.0,4784,left
53,1,continuous,15,6,trial,20550258.0,20553441.0,3183.0,15,L,20551088,20551266,180,1333.4,494.0,4637,right
53,1,continuous,15,6,trial,20550258.0,20553441.0,3183.0,15,L,20551288,20552354,1068,1437.9,512.8,4583,right
53,1,continuous,15,6,trial,20550258.0,20553441.0,3183.0,15,L,20552418,20552634,218,529.1,551.3,4596,left
53,1,continuous,15,6,trial,20550258.0,20553441.0,3183.0,15,L,20552652,20552816,166,436.7,555.9,4549,left
53,1,continuous,15,6,trial,20550258.0,20553441.0,3183.0,15,L,20552840,20553666,828,591.5,577.4,4571,left
53,1,continuous,15,6,postResponse,20550258.0,20553441.0,3183.0,15,L,20553702,20553796,96,792.8,526.0,4645,NA
53,1,continuous,16,86,fixationCross,20554557.0,20557058.0,2501.0,16,L,20553896,20554248,354,783.7,532.9,4826,NA
53,1,continuous,16,86,trial,20554557.0,20557058.0,2501.0,16,L,20554272,20554698,428,920.1,552.9,4881,NA
53,1,continuous,16,86,trial,20554557.0,20557058.0,2501.0,16,L,20554738,20554876,140,614.7,534.5,4900,left
53,1,continuous,16,86,trial,20554557.0,20557058.0,2501.0,16,L,20554896,20555176,282,511.7,492.3,4603,left
53,1,continuous,16,86,trial,20554557.0,20557058.0,2501.0,16,L,20555188,20555372,186,491.5,467.0,4496,left
53,1,continuous,16,86,trial,20554557.0,20557058.0,2501.0,16,L,20555432,20555664,234,1397.5,555.0,4456,right
53,1,continuous,16,86,trial,20554557.0,20557058.0,2501.0,16,L,20555688,20556160,474,1458.3,458.9,4417,right
53,1,continuous,16,86,trial,20554557.0,20557058.0,2501.0,16,L,20556180,20556466,288,1363.7,498.9,4425,right
53,1,continuous,16,86,trial,20554557.0,20557058.0,2501.0,16,L,20556510,20556782,274,1039.5,538.2,4547,NA
53,1,continuous,16,86,trial,20554557.0,20557058.0,2501.0,16,L,20556810,20557340,532,1231.9,630.1,4593,right
53,1,continuous,17,1,fixationCross,20558141.0,20560241.0,2100.0,17,L,20557494,20557812,320,698.0,458.2,4775,left
53,1,continuous,17,1,trial,20558141.0,20560241.0,2100.0,17,L,20557840,20558276,438,913.6,546.1,5013,NA
53,1,continuous,17,1,trial,20558141.0,20560241.0,2100.0,17,L,20558316,20558478,164,635.7,524.8,5113,left
53,1,continuous,17,1,trial,20558141.0,20560241.0,2100.0,17,L,20558502,20558724,224,517.4,532.0,4863,left
53,1,continuous,17,1,trial,20558141.0,20560241.0,2100.0,17,L,20558736,20558898,164,497.9,564.3,4840,left
53,1,continuous,17,1,trial,20558141.0,20560241.0,2100.0,17,L,20559022,20559306,286,1427.8,585.0,4848,right
53,1,continuous,17,1,trial,20558141.0,20560241.0,2100.0,17,L,20559326,20559444,120,1528.5,549.7,4874,right
53,1,continuous,17,1,trial,20558141.0,20560241.0,2100.0,17,L,20559504,20560008,506,556.5,522.3,4727,left
53,1,continuous,17,1,trial,20558141.0,20560241.0,2100.0,17,L,20560052,20560262,212,522.5,806.0,4844,NA
53,1,continuous,17,1,trial,20558141.0,20560241.0,2100.0,17,L,20560290,20560510,222,486.7,975.1,4912,NA
53,1,continuous,17,1,postResponse,20558141.0,20560241.0,2100.0,17,L,20560562,20560590,30,744.1,673.6,4876,NA
53,1,continuous,18,1,fixationCross,20562091.0,20564808.0,2717.0,18,L,20560692,20560720,30,756.9,678.9,4926,NA
53,1,continuous,18,1,fixationCross,20562091.0,20564808.0,2717.0,18,L,20560754,20560914,162,974.1,527.1,4966,NA
53,1,continuous,18,1,fixationCross,20562091.0,20564808.0,2717.0,18,L,20560934,20561752,820,845.7,524.4,5057,NA
53,1,continuous,18,1,trial,20562091.0,20564808.0,2717.0,18,L,20561912,20562234,324,899.8,573.2,5112,NA
53,1,continuous,18,1,trial,20562091.0,20564808.0,2717.0,18,L,20562276,20562402,128,574.3,540.9,5344,left
53,1,continuous,18,1,trial,20562091.0,20564808.0,2717.0,18,L,20562430,20562580,152,501.0,462.9,5024,left
53,1,continuous,18,1,trial,20562091.0,20564808.0,2717.0,18,L,20562590,20562826,238,476.1,459.4,4779,left
53,1,continuous,18,1,trial,20562091.0,20564808.0,2717.0,18,L,20562850,20563022,174,523.0,536.9,4777,left
53,1,continuous,18,1,trial,20562091.0,20564808.0,2717.0,18,L,20563086,20563294,210,1518.4,514.6,4784,right
53,1,continuous,18,1,trial,20562091.0,20564808.0,2717.0,18,L,20563316,20563850,536,1637.2,489.3,4629,right
53,1,continuous,18,1,trial,20562091.0,20564808.0,2717.0,18,L,20563918,20564068,152,591.9,512.4,4619,left
53,1,continuous,18,1,trial,20562091.0,20564808.0,2717.0,18,L,20564090,20564260,172,503.5,476.2,4563,left
53,1,continuous,18,1,trial,20562091.0,20564808.0,2717.0,18,L,20564270,20564980,712,469.7,468.6,4647,left
53,1,continuous,18,1,postResponse,20562091.0,20564808.0,2717.0,18,L,20565104,20565156,54,1636.0,486.8,4723,right
53,1,continuous,19,11,fixationCross,20565892.0,20568392.0,2500.0,19,L,20565390,20565578,190,715.1,563.2,4968,left
53,1,continuous,19,11,trial,20565892.0,20568392.0,2500.0,19,L,20565606,20566024,420,930.3,549.4,5077,NA
53,1,continuous,19,11,trial,20565892.0,20568392.0,2500.0,19,L,20566058,20566252,196,661.3,534.2,4731,left
53,1,continuous,19,11,trial,20565892.0,20568392.0,2500.0,19,L,20566272,20566654,384,555.4,571.6,4528,left
53,1,continuous,19,11,trial,20565892.0,20568392.0,2500.0,19,L,20566672,20567014,344,489.0,581.8,4452,left
53,1,continuous,19,11,trial,20565892.0,20568392.0,2500.0,19,L,20567028,20567222,196,546.3,602.2,4534,left
53,1,continuous,19,11,trial,20565892.0,20568392.0,2500.0,19,L,20567276,20567532,258,1335.7,583.1,4552,right
53,1,continuous,19,11,trial,20565892.0,20568392.0,2500.0,19,L,20567588,20568390,804,553.8,592.2,4524,left
53,1,continuous,19,11,postResponse,20565892.0,20568392.0,2500.0,19,L,20568444,20568740,298,1280.3,606.5,4467,right
53,1,continuous,20,93,fixationCross,20570558.0,20572592.0,2034.0,20,L,20569030,20569360,332,811.3,594.1,4951,NA
53,1,continuous,20,93,fixationCross,20570558.0,20572592.0,2034.0,20,L,20569378,20570066,690,792.4,534.7,4734,NA
53,1,continuous,20,93,fixationCross,20570558.0,20572592.0,2034.0,20,L,20570120,20570292,174,1213.4,580.6,4449,right
53,1,continuous,20,93,trial,20570558.0,20572592.0,2034.0,20,L,20570330,20570696,368,928.7,578.5,4642,NA
53,1,continuous,20,93,trial,20570558.0,20572592.0,2034.0,20,L,20570736,20570848,114,609.2,552.9,4827,left
53,1,continuous,20,93,trial,20570558.0,20572592.0,2034.0,20,L,20570872,20571028,158,495.3,556.0,4563,left
53,1,continuous,20,93,trial,20570558.0,20572592.0,2034.0,20,L,20571042,20571236,196,454.2,545.2,4369,left
53,1,continuous,20,93,trial,20570558.0,20572592.0,2034.0,20,L,20571294,20571460,168,1379.3,571.6,4289,right
53,1,continuous,20,93,trial,20570558.0,20572592.0,2034.0,20,L,20571482,20572366,886,1507.9,598.6,4334,right
53,1,continuous,20,93,postResponse,20570558.0,20572592.0,2034.0,20,L,20572378,20572940,564,1541.9,601.1,4394,right
53,1,continuous,21,100,fixationCross,20573808.0,20576392.0,2584.0,21,L,20573040,20573322,284,1531.9,601.0,4515,right
53,1,continuous,21,100,fixationCross,20573808.0,20576392.0,2584.0,21,L,20573384,20573558,176,798.5,583.1,4767,NA
53,1,continuous,21,100,fixationCross,20573808.0,20576392.0,2584.0,21,L,20573580,20573730,152,907.1,547.9,4793,NA
53,1,continuous,21,100,trial,20573808.0,20576392.0,2584.0,21,L,20573754,20573954,202,764.6,514.1,4872,NA
53,1,continuous,21,100,trial,20573808.0,20576392.0,2584.0,21,L,20573984,20574162,180,535.1,521.2,4811,left
53,1,continuous,21,100,trial,20573808.0,20576392.0,2584.0,21,L,20574176,20574364,190,498.8,513.6,4543,left
53,1,continuous,21,100,trial,20573808.0,20576392.0,2584.0,21,L,20574426,20574578,154,1440.2,566.9,4421,right
53,1,continuous,21,100,trial,20573808.0,20576392.0,2584.0,21,L,20574592,20574906,316,1485.9,573.5,4373,right
53,1,continuous,21,100,trial,20573808.0,20576392.0,2584.0,21,L,20574926,20575160,236,1542.6,525.8,4286,right
53,1,continuous,21,100,trial,20573808.0,20576392.0,2584.0,21,L,20575222,20575346,126,632.5,536.1,4270,left
53,1,continuous,21,100,trial,20573808.0,20576392.0,2584.0,21,L,20575368,20575634,268,507.8,529.6,4358,left
53,1,continuous,21,100,trial,20573808.0,20576392.0,2584.0,21,L,20575698,20576070,374,1327.5,832.2,4632,NA
53,1,continuous,21,100,trial,20573808.0,20576392.0,2584.0,21,L,20576108,20576590,484,1440.1,638.0,4609,right
53,1,continuous,21,100,postResponse,20573808.0,20576392.0,2584.0,21,L,20576660,20576720,62,934.4,481.1,4497,NA
53,1,continuous,22,86,fixationCross,20577608.0,20582092.0,4484.0,22,L,20576846,20576934,90,1395.8,578.3,4637,right
53,1,continuous,22,86,fixationCross,20577608.0,20582092.0,4484.0,22,L,20576988,20577316,330,747.0,527.1,5063,NA
53,1,continuous,22,86,trial,20577608.0,20582092.0,4484.0,22,L,20577344,20577616,274,932.3,548.1,5061,NA
53,1,continuous,22,86,trial,20577608.0,20582092.0,4484.0,22,L,20577636,20577766,132,840.0,532.5,4807,NA
53,1,continuous,22,86,trial,20577608.0,20582092.0,4484.0,22,L,20577806,20577938,134,551.8,499.6,4786,left
53,1,continuous,22,86,trial,20577608.0,20582092.0,4484.0,22,L,20577958,20578136,180,526.7,429.3,4622,left
53,1,continuous,22,86,trial,20577608.0,20582092.0,4484.0,22,L,20578158,20578284,128,566.5,519.8,4569,left
53,1,continuous,22,86,trial,20577608.0,20582092.0,4484.0,22,L,20578306,20578368,64,654.9,554.6,4592,left
53,1,continuous,22,86,trial,20577608.0,20582092.0,4484.0,22,L,20578422,20578594,174,1428.3,524.9,4577,right
53,1,continuous,22,86,trial,20577608.0,20582092.0,4484.0,22,L,20578626,20578954,330,1624.8,503.0,4574,right
53,1,continuous,22,86,trial,20577608.0,20582092.0,4484.0,22,L,20578968,20579080,114,1668.0,496.9,4525,right
53,1,continuous,22,86,trial,20577608.0,20582092.0,4484.0,22,L,20579152,20579484,334,490.9,538.1,4560,left
53,1,continuous,22,86,trial,20577608.0,20582092.0,4484.0,22,L,20579506,20579746,242,401.7,559.5,4588,left
53,1,continuous,22,86,trial,20577608.0,20582092.0,4484.0,22,L,20579768,20579966,200,503.0,561.0,4573,left
53,1,continuous,22,86,trial,20577608.0,20582092.0,4484.0,22,L,20579986,20580088,104,616.9,567.6,4503,left
53,1,continuous,22,86,trial,20577608.0,20582092.0,4484.0,22,L,20580142,20580454,314,1400.3,499.4,4433,right
53,1,continuous,22,86,trial,20577608.0,20582092.0,4484.0,22,L,20580480,20580662,184,1591.2,509.6,4513,right
53,1,continuous,22,86,trial,20577608.0,20582092.0,4484.0,22,L,20580682,20581082,402,1709.2,503.6,4541,NA
53,1,continuous,22,86,trial,20577608.0,20582092.0,4484.0,22,L,20581128,20581456,330,1269.2,523.2,4595,right
53,1,continuous,22,86,trial,20577608.0,20582092.0,4484.0,22,L,20581516,20581624,110,763.8,481.2,4835,NA
53,1,continuous,22,86,trial,20577608.0,20582092.0,4484.0,22,L,20581662,20581972,312,523.2,427.0,4782,left
53,1,continuous,22,86,trial,20577608.0,20582092.0,4484.0,22,L,20581996,20582278,284,494.7,536.9,4640,left
53,1,continuous,22,86,postResponse,20577608.0,20582092.0,4484.0,22,L,20582386,20582440,56,1685.2,894.6,4568,NA
53,1,continuous,23,96,fixationCross,20583208.0,20585925.0,2717.0,23,L,20582572,20582750,180,1133.4,473.8,4710,NA
53,1,continuous,23,96,fixationCross,20583208.0,20585925.0,2717.0,23,L,20582784,20582956,174,834.8,498.0,4994,NA
53,1,continuous,23,96,trial,20583208.0,20585925.0,2717.0,23,L,20582980,20583300,322,954.6,523.2,5056,NA
53,1,continuous,23,96,trial,20583208.0,20585925.0,2717.0,23,L,20583380,20583496,118,677.8,532.1,4926,left
53,1,continuous,23,96,trial,20583208.0,20585925.0,2717.0,23,L,20583516,20583792,278,562.6,532.0,4766,left
53,1,continuous,23,96,trial,20583208.0,20585925.0,2717.0,23,L,20583844,20584094,252,1298.5,524.8,4777,right
53,1,continuous,23,96,trial,20583208.0,20585925.0,2717.0,23,L,20584116,20584246,132,1308.4,451.3,4780,right
53,1,continuous,23,96,trial,20583208.0,20585925.0,2717.0,23,L,20584286,20584578,294,1534.2,649.5,4860,right
53,1,continuous,23,96,trial,20583208.0,20585925.0,2717.0,23,L,20584616,20584734,120,1323.7,526.0,4820,right
53,1,continuous,23,96,trial,20583208.0,20585925.0,2717.0,23,L,20584760,20585012,254,1312.1,412.3,4711,right
53,1,continuous,23,96,trial,20583208.0,20585925.0,2717.0,23,L,20585068,20585264,198,547.6,548.1,4760,left
53,1,continuous,23,96,trial,20583208.0,20585925.0,2717.0,23,L,20585280,20585436,158,524.6,516.1,4744,left
53,1,continuous,23,96,trial,20583208.0,20585925.0,2717.0,23,L,20585460,20585580,122,656.8,580.9,4770,left
53,1,continuous,23,96,trial,20583208.0,20585925.0,2717.0,23,L,20585630,20585898,270,1270.2,563.0,4681,right
53,1,continuous,23,96,trial,20583208.0,20585925.0,2717.0,23,L,20585920,20586150,232,1306.8,485.2,4751,right
53,1,continuous,23,96,postResponse,20583208.0,20585925.0,2717.0,23,L,20586214,20586274,62,1691.5,763.2,4777,NA
53,1,continuous,24,100,fixationCross,20587026.0,20590825.0,3799.0,24,L,20586376,20586418,44,1685.0,765.3,4821,NA
53,1,continuous,24,100,fixationCross,20587026.0,20590825.0,3799.0,24,L,20586508,20586702,196,584.0,444.0,4993,left
53,1,continuous,24,100,trial,20587026.0,20590825.0,3799.0,24,L,20586734,20587176,444,888.9,519.5,5030,NA
53,1,continuous,24,100,trial,20587026.0,20590825.0,3799.0,24,L,20587222,20587360,140,606.5,537.7,4983,left
53,1,continuous,24,100,trial,20587026.0,20590825.0,3799.0,24,L,20587380,20587528,150,512.5,571.3,4764,left
53,1,continuous,24,100,trial,20587026.0,20590825.0,3799.0,24,L,20587586,20587748,164,1417.7,455.5,4605,right
53,1,continuous,24,100,trial,20587026.0,20590825.0,3799.0,24,L,20587768,20588018,252,1461.6,407.0,4518,right
53,1,continuous,24,100,trial,20587026.0,20590825.0,3799.0,24,L,20588038,20588290,254,1468.9,474.1,4667,right
53,1,continuous,24,100,trial,20587026.0,20590825.0,3799.0,24,L,20588306,20588762,458,1459.9,424.7,4686,right
53,1,continuous,24,100,trial,20587026.0,20590825.0,3799.0,24,L,20588884,20588984,102,1538.6,646.9,4647,right
53,1,continuous,24,100,trial,20587026.0,20590825.0,3799.0,24,L,20589046,20589292,248,528.6,569.2,4821,left
53,1,continuous,24,100,trial,20587026.0,20590825.0,3799.0,24,L,20589304,20589444,142,498.6,587.9,4844,left
53,1,continuous,24,100,trial,20587026.0,20590825.0,3799.0,24,L,20589504,20589844,342,1402.1,605.7,4534,right
53,1,continuous,24,100,trial,20587026.0,20590825.0,3799.0,24,L,20589870,20590120,252,1524.3,685.5,4626,right
53,1,continuous,24,100,trial,20587026.0,20590825.0,3799.0,24,L,20590164,20591066,904,1433.3,976.8,4869,NA
53,1,continuous,25,100,fixationCross,20591875.0,20594759.0,2884.0,25,L,20591328,20591588,262,817.3,533.9,5354,NA
53,1,continuous,25,100,trial,20591875.0,20594759.0,2884.0,25,L,20591610,20592034,426,910.2,535.9,5281,NA
53,1,continuous,25,100,trial,20591875.0,20594759.0,2884.0,25,L,20592078,20592306,230,598.6,534.5,4837,left
53,1,continuous,25,100,trial,20591875.0,20594759.0,2884.0,25,L,20592362,20592612,252,1424.9,569.2,4573,right
53,1,continuous,25,100,trial,20591875.0,20594759.0,2884.0,25,L,20592636,20592854,220,1370.4,499.9,4503,right
53,1,continuous,25,100,trial,20591875.0,20594759.0,2884.0,25,L,20592912,20593396,486,520.2,547.6,4677,left
53,1,continuous,25,100,trial,20591875.0,20594759.0,2884.0,25,L,20593456,20593788,334,1416.8,558.8,4448,right
53,1,continuous,25,100,trial,20591875.0,20594759.0,2884.0,25,L,20593814,20594042,230,1596.3,546.8,4341,right
53,1,continuous,25,100,trial,20591875.0,20594759.0,2884.0,25,L,20594054,20594330,278,1633.6,534.0,4389,right
53,1,continuous,25,100,trial,20591875.0,20594759.0,2884.0,25,L,20594354,20594990,638,1489.5,585.3,4627,right
53,1,continuous,26,1,fixationCross,20617808.0,20620208.0,2400.0,26,L,20617053,20617271,220,163.0,0.5,4600,NA
53,1,continuous,26,1,fixationCross,20617808.0,20620208.0,2400.0,26,L,20617331,20617497,168,840.7,341.5,4371,NA
53,1,continuous,26,1,trial,20617808.0,20620208.0,2400.0,26,L,20617533,20618041,510,964.9,572.4,4721,NA
53,1,continuous,26,1,trial,20617808.0,20620208.0,2400.0,26,L,20618087,20618309,224,590.7,543.0,4865,left
53,1,continuous,26,1,trial,20617808.0,20620208.0,2400.0,26,L,20618327,20618487,162,589.1,484.3,4684,left
53,1,continuous,26,1,trial,20617808.0,20620208.0,2400.0,26,L,20618543,20618869,328,1429.1,553.3,4681,right
53,1,continuous,26,1,trial,20617808.0,20620208.0,2400.0,26,L,20618885,20618951,68,1365.9,582.1,4731,right
53,1,continuous,26,1,trial,20617808.0,20620208.0,2400.0,26,L,20619011,20619169,160,481.4,574.5,4747,left
53,1,continuous,26,1,trial,20617808.0,20620208.0,2400.0,26,L,20619195,20619521,328,591.7,500.5,4673,left
53,1,continuous,26,1,trial,20617808.0,20620208.0,2400.0,26,L,20619545,20619839,296,472.3,536.7,4559,left
53,1,continuous,26,1,trial,20617808.0,20620208.0,2400.0,26,L,20619857,20620453,598,400.4,572.4,4598,left
53,1,continuous,26,1,postResponse,20617808.0,20620208.0,2400.0,26,L,20620527,20620559,34,1153.1,475.5,4452,NA
53,1,continuous,27,9,fixationCross,20621626.0,20623792.0,2166.0,27,L,20620775,20621341,568,778.0,466.6,4920,NA
53,1,continuous,27,9,trial,20621626.0,20623792.0,2166.0,27,L,20621365,20621829,466,919.8,489.3,4717,NA
53,1,continuous,27,9,trial,20621626.0,20623792.0,2166.0,27,L,20621869,20622111,244,632.7,550.1,4705,left
53,1,continuous,27,9,trial,20621626.0,20623792.0,2166.0,27,L,20622127,20622415,290,587.7,585.9,4638,left
53,1,continuous,27,9,trial,20621626.0,20623792.0,2166.0,27,L,20622475,20622851,378,1460.1,576.6,4473,right
53,1,continuous,27,9,trial,20621626.0,20623792.0,2166.0,27,L,20622905,20623163,260,709.0,549.4,4427,left
53,1,continuous,27,9,trial,20621626.0,20623792.0,2166.0,27,L,20623181,20623549,370,641.1,571.3,4524,left
53,1,continuous,27,9,trial,20621626.0,20623792.0,2166.0,27,L,20623573,20623809,238,555.3,479.3,4592,left
53,1,continuous,27,9,trial,20621626.0,20623792.0,2166.0,27,L,20623821,20624081,262,521.4,476.2,4607,left
53,1,continuous,28,100,fixationCross,20625959.0,20627809.0,1850.0,28,L,20624241,20624397,158,1156.0,506.1,4711,NA
53,1,continuous,28,100,fixationCross,20625959.0,20627809.0,1850.0,28,L,20624549,20625085,538,843.7,531.0,4905,NA
53,1,continuous,28,100,fixationCross,20625959.0,20627809.0,1850.0,28,L,20625109,20625633,526,748.9,454.8,4601,NA
53,1,continuous,28,100,fixationCross,20625959.0,20627809.0,1850.0,28,L,20625659,20625813,156,884.0,518.1,4646,NA
53,1,continuous,28,100,trial,20625959.0,20627809.0,1850.0,28,L,20625835,20626103,270,971.2,559.1,4820,NA
53,1,continuous,28,100,trial,20625959.0,20627809.0,1850.0,28,L,20626141,20626353,214,673.4,527.6,4950,left
53,1,continuous,28,100,trial,20625959.0,20627809.0,1850.0,28,L,20626369,20626475,108,623.7,548.0,4679,left
53,1,continuous,28,100,trial,20625959.0,20627809.0,1850.0,28,L,20626533,20626701,170,1514.3,549.9,4478,right
53,1,continuous,28,100,trial,20625959.0,20627809.0,1850.0,28,L,20626719,20626911,194,1596.6,523.4,4390,right
53,1,continuous,28,100,trial,20625959.0,20627809.0,1850.0,28,L,20626921,20627121,202,1607.7,500.9,4372,right
53,1,continuous,28,100,trial,20625959.0,20627809.0,1850.0,28,L,20627147,20627443,298,1379.3,498.7,4387,right
53,1,continuous,28,100,trial,20625959.0,20627809.0,1850.0,28,L,20627461,20627881,422,1300.7,519.1,4473,right
53,1,continuous,28,100,trial,20625959.0,20627809.0,1850.0,28,L,20627921,20628099,180,1418.8,867.1,4675,NA
53,1,continuous,29,100,fixationCross,20629309.0,20631326.0,2017.0,29,L,20628245,20628281,38,1509.2,641.3,4716,right
53,1,continuous,29,100,fixationCross,20629309.0,20631326.0,2017.0,29,L,20628367,20628579,214,748.0,520.0,4974,NA
53,1,continuous,29,100,fixationCross,20629309.0,20631326.0,2017.0,29,L,20628757,20629083,328,1065.5,556.7,5022,NA
53,1,continuous,29,100,trial,20629309.0,20631326.0,2017.0,29,L,20629109,20629441,334,888.6,527.4,4942,NA
53,1,continuous,29,100,trial,20629309.0,20631326.0,2017.0,29,L,20629485,20629677,194,589.5,508.2,4592,left
53,1,continuous,29,100,trial,20629309.0,20631326.0,2017.0,29,L,20629697,20629901,206,521.6,479.5,4443,left
53,1,continuous,29,100,trial,20629309.0,20631326.0,2017.0,29,L,20629915,20630057,144,558.8,503.9,4434,left
53,1,continuous,29,100,trial,20629309.0,20631326.0,2017.0,29,L,20630117,20630319,204,1477.4,505.4,4423,right
53,1,continuous,29,100,trial,20629309.0,20631326.0,2017.0,29,L,20630343,20630597,256,1547.3,433.1,4456,right
53,1,continuous,29,100,trial,20629309.0,20631326.0,2017.0,29,L,20630609,20630787,180,1538.8,410.2,4446,right
53,1,continuous,29,100,trial,20629309.0,20631326.0,2017.0,29,L,20630853,20631125,274,480.8,513.9,4535,left
53,1,continuous,29,100,trial,20629309.0,20631326.0,2017.0,29,L,20631145,20631311,168,478.2,439.2,4660,left
53,1,continuous,29,100,trial,20629309.0,20631326.0,2017.0,29,L,20631323,20631563,242,462.1,426.6,4555,left
53,1,continuous,29,100,postResponse,20629309.0,20631326.0,2017.0,29,L,20631639,20631675,38,1222.3,790.4,4601,NA
53,1,continuous,30,1,fixationCross,20632442.0,20634975.0,2533.0,30,L,20631749,20631805,58,1219.9,798.0,4656,NA
53,1,continuous,30,1,fixationCross,20632442.0,20634975.0,2533.0,30,L,20631863,20632147,286,852.9,509.2,4895,NA
53,1,continuous,30,1,fixationCross,20632442.0,20634975.0,2533.0,30,L,20632159,20632397,240,875.6,528.7,5105,NA
53,1,continuous,30,1,trial,20632442.0,20634975.0,2533.0,30,L,20632689,20632763,76,955.1,534.2,4879,NA
53,1,continuous,30,1,trial,20632442.0,20634975.0,2533.0,30,L,20632807,20633057,252,528.5,533.5,4917,left
53,1,continuous,30,1,trial,20632442.0,20634975.0,2533.0,30,L,20633073,20633289,218,510.2,502.2,4708,left
53,1,continuous,30,1,trial,20632442.0,20634975.0,2533.0,30,L,20633311,20633397,88,420.9,555.1,4509,left
53,1,continuous,30,1,trial,20632442.0,20634975.0,2533.0,30,L,20633457,20633945,490,1407.0,536.5,4505,right
53,1,continuous,30,1,trial,20632442.0,20634975.0,2533.0,30,L,20633969,20634109,142,1521.5,494.3,4767,right
53,1,continuous,30,1,trial,20632442.0,20634975.0,2533.0,30,L,20634135,20634281,148,1360.3,482.1,4886,right
53,1,continuous,30,1,trial,20632442.0,20634975.0,2533.0,30,L,20634337,20634921,586,526.4,515.7,5178,left
53,1,continuous,30,1,postResponse,20632442.0,20634975.0,2533.0,30,L,20634945,20635325,382,414.0,552.6,5294,left
53,1,continuous,31,1,fixationCross,20636176.0,20640509.0,4333.0,31,L,20635425,20635661,238,1087.5,456.2,5258,NA
53,1,continuous,31,1,fixationCross,20636176.0,20640509.0,4333.0,31,L,20635705,20635915,212,686.2,496.8,5313,left
53,1,continuous,31,1,trial,20636176.0,20640509.0,4333.0,31,L,20635953,20636241,290,961.2,522.5,5342,NA
53,1,continuous,31,1,trial,20636176.0,20640509.0,4333.0,31,L,20636341,20636501,162,679.8,515.8,5192,left
53,1,continuous,31,1,trial,20636176.0,20640509.0,4333.0,31,L,20636525,20636979,456,529.3,611.2,4922,left
53,1,continuous,31,1,trial,20636176.0,20640509.0,4333.0,31,L,20637041,20637255,216,1458.8,544.6,4715,right
53,1,continuous,31,1,trial,20636176.0,20640509.0,4333.0,31,L,20637277,20637429,154,1544.7,498.1,4611,right
53,1,continuous,31,1,trial,20636176.0,20640509.0,4333.0,31,L,20637449,20637645,198,1587.3,451.5,4547,right
53,1,continuous,31,1,trial,20636176.0,20640509.0,4333.0,31,L,20637663,20637753,92,1527.6,481.0,4501,right
53,1,continuous,31,1,trial,20636176.0,20640509.0,4333.0,31,L,20637815,20638099,286,528.7,585.0,4555,left
53,1,continuous,31,1,trial,20636176.0,20640509.0,4333.0,31,L,20638111,20638509,400,498.6,599.9,4459,left
53,1,continuous,31,1,trial,20636176.0,20640509.0,4333.0,31,L,20638571,20638779,210,1440.9,567.9,4311,right
53,1,continuous,31,1,trial,20636176.0,20640509.0,4333.0,31,L,20638841,20639203,364,519.8,587.5,4372,left
53,1,continuous,31,1,trial,20636176.0,20640509.0,4333.0,31,L,20639215,20639567,354,500.5,602.4,4352,left
53,1,continuous,31,1,trial,20636176.0,20640509.0,4333.0,31,L,20639591,20639867,278,629.1,640.9,4311,left
53,1,continuous,31,1,trial,20636176.0,20640509.0,4333.0,31,L,20639889,20640735,848,542.4,591.7,4424,left
53,1,continuous,32,93,fixationCross,20642109.0,20643893.0,1784.0,32,L,20640955,20641219,266,795.4,550.6,4928,NA
53,1,continuous,32,93,fixationCross,20642109.0,20643893.0,1784.0,32,L,20641249,20641789,542,710.0,501.7,4890,left
53,1,continuous,32,93,trial,20642109.0,20643893.0,1784.0,32,L,20641817,20642245,430,882.4,528.7,4629,NA
53,1,continuous,32,93,trial,20642109.0,20643893.0,1784.0,32,L,20642283,20642451,170,629.9,520.1,4693,left
53,1,continuous,32,93,trial,20642109.0,20643893.0,1784.0,32,L,20642471,20642661,192,575.6,551.3,4405,left
53,1,continuous,32,93,trial,20642109.0,20643893.0,1784.0,32,L,20642723,20643559,838,1488.9,577.2,4247,right
53,1,continuous,32,93,postResponse,20642109.0,20643893.0,1784.0,32,L,20643615,20644243,630,721.9,578.4,4443,left
53,1,continuous,33,13,fixationCross,20645176.0,20648209.0,3033.0,33,L,20644317,20644503,188,1025.6,497.6,4569,NA
53,1,continuous,33,13,fixationCross,20645176.0,20648209.0,3033.0,33,L,20644645,20644935,292,843.5,547.3,4759,NA
53,1,continuous,33,13,trial,20645176.0,20648209.0,3033.0,33,L,20644959,20645311,354,975.7,538.0,4738,NA
53,1,continuous,33,13,trial,20645176.0,20648209.0,3033.0,33,L,20645353,20645451,100,696.3,530.8,4551,left
53,1,continuous,33,13,trial,20645176.0,20648209.0,3033.0,33,L,20645475,20645613,140,503.7,530.4,4396,left
53,1,continuous,33,13,trial,20645176.0,20648209.0,3033.0,33,L,20645635,20645791,158,384.9,526.2,4295,left
53,1,continuous,33,13,trial,20645176.0,20648209.0,3033.0,33,L,20645813,20645917,106,522.5,502.5,4336,left
53,1,continuous,33,13,trial,20645176.0,20648209.0,3033.0,33,L,20645975,20646217,244,1497.2,495.2,4315,right
53,1,continuous,33,13,trial,20645176.0,20648209.0,3033.0,33,L,20646239,20646465,228,1535.0,432.5,4305,right
53,1,continuous,33,13,trial,20645176.0,20648209.0,3033.0,33,L,20646529,20646857,330,492.1,518.6,4348,left
53,1,continuous,33,13,trial,20645176.0,20648209.0,3033.0,33,L,20646869,20647143,276,531.3,539.1,4265,left
53,1,continuous,33,13,trial,20645176.0,20648209.0,3033.0,33,L,20647169,20647595,428,361.2,518.1,4187,left
53,1,continuous,33,13,trial,20645176.0,20648209.0,3033.0,33,L,20647609,20647811,204,411.9,493.0,4181,left
53,1,continuous,33,13,trial,20645176.0,20648209.0,3033.0,33,L,20647829,20648181,354,407.3,433.9,4208,left
53,1,continuous,33,13,postResponse,20645176.0,20648209.0,3033.0,33,L,20648249,20648555,308,1482.3,490.8,4279,right
53,1,continuous,34,18,fixationCross,20649226.0,20653226.0,4000.0,34,L,20648631,20648809,180,1466.0,501.9,4464,right
53,1,continuous,34,18,trial,20649226.0,20653226.0,4000.0,34,L,20649001,20649379,380,881.1,583.9,4588,NA
53,1,continuous,34,18,trial,20649226.0,20653226.0,4000.0,34,L,20649419,20649627,210,642.1,509.9,4592,left
53,1,continuous,34,18,trial,20649226.0,20653226.0,4000.0,34,L,20649685,20649913,230,1487.8,569.4,4229,right
53,1,continuous,34,18,trial,20649226.0,20653226.0,4000.0,34,L,20649933,20650109,178,1573.8,521.1,4121,right
53,1,continuous,34,18,trial,20649226.0,20653226.0,4000.0,34,L,20650123,20650327,206,1554.0,484.1,4077,right
53,1,continuous,34,18,trial,20649226.0,20653226.0,4000.0,34,L,20650387,20650649,264,631.7,492.2,4208,left
53,1,continuous,34,18,trial,20649226.0,20653226.0,4000.0,34,L,20650673,20651083,412,500.6,534.4,4221,left
53,1,continuous,34,18,trial,20649226.0,20653226.0,4000.0,34,L,20651101,20651387,288,456.3,500.3,4237,left
53,1,continuous,34,18,trial,20649226.0,20653226.0,4000.0,34,L,20651409,20652155,748,581.2,537.6,4316,left
53,1,continuous,34,18,trial,20649226.0,20653226.0,4000.0,34,L,20652219,20652451,234,1523.8,560.0,4203,right
53,1,continuous,34,18,trial,20649226.0,20653226.0,4000.0,34,L,20652469,20652687,220,1558.7,524.4,4153,right
53,1,continuous,34,18,trial,20649226.0,20653226.0,4000.0,34,L,20652705,20653087,384,1547.0,478.4,4074,right
53,1,continuous,34,18,postResponse,20649226.0,20653226.0,4000.0,34,L,20653111,20653543,434,1525.6,588.1,4130,right
53,1,continuous,35,2,fixationCross,20654309.0,20657626.0,3317.0,35,L,20653785,20653999,216,677.2,451.8,4430,left
53,1,continuous,35,2,fixationCross,20654309.0,20657626.0,3317.0,35,L,20654029,20654239,212,921.7,495.3,4717,NA
53,1,continuous,35,2,trial,20654309.0,20657626.0,3317.0,35,L,20654263,20654451,190,804.9,499.0,4503,NA
53,1,continuous,35,2,trial,20654309.0,20657626.0,3317.0,35,L,20654491,20654725,236,508.6,526.7,4301,left
53,1,continuous,35,2,trial,20654309.0,20657626.0,3317.0,35,L,20654741,20655243,504,521.6,487.2,4088,left
53,1,continuous,35,2,trial,20654309.0,20657626.0,3317.0,35,L,20655255,20655685,432,499.9,513.5,4131,left
53,1,continuous,35,2,trial,20654309.0,20657626.0,3317.0,35,L,20655749,20655933,186,1521.5,548.0,4221,right
53,1,continuous,35,2,trial,20654309.0,20657626.0,3317.0,35,L,20655955,20656127,174,1584.2,563.0,4154,right
53,1,continuous,35,2,trial,20654309.0,20657626.0,3317.0,35,L,20656155,20656393,240,1562.3,722.0,4209,right
53,1,continuous,35,2,trial,20654309.0,20657626.0,3317.0,35,L,20656435,20656813,380,1370.3,466.7,4132,right
53,1,continuous,35,2,trial,20654309.0,20657626.0,3317.0,35,L,20656875,20657153,280,488.9,539.7,4164,left
53,1,continuous,35,2,trial,20654309.0,20657626.0,3317.0,35,L,20657167,20657877,712,509.7,503.4,4177,left
53,1,continuous,36,1,fixationCross,20658942.0,20660226.0,1284.0,36,L,20658049,20658255,208,1678.5,525.4,4462,right
53,1,continuous,36,1,fixationCross,20658942.0,20660226.0,1284.0,36,L,20658463,20658691,230,791.0,555.6,4589,NA
53,1,continuous,36,1,trial,20658942.0,20660226.0,1284.0,36,L,20658725,20659071,348,974.4,526.6,4649,NA
53,1,continuous,36,1,trial,20658942.0,20660226.0,1284.0,36,L,20659111,20659279,170,657.1,538.5,4455,left
53,1,continuous,36,1,trial,20658942.0,20660226.0,1284.0,36,L,20659303,20659525,224,567.2,566.6,4294,left
53,1,continuous,36,1,trial,20658942.0,20660226.0,1284.0,36,L,20659541,20659755,216,573.0,517.4,4253,left
53,1,continuous,36,1,trial,20658942.0,20660226.0,1284.0,36,L,20659811,20660533,724,1397.9,514.5,4367,right
53,1,continuous,37,100,fixationCross,20661226.0,20663226.0,2000.0,37,L,20660727,20660927,202,823.2,518.5,4832,NA
53,1,continuous,37,100,trial,20661226.0,20663226.0,2000.0,37,L,20660953,20661467,516,1023.4,537.8,4950,NA
53,1,continuous,37,100,trial,20661226.0,20663226.0,2000.0,37,L,20661493,20661657,166,1225.0,528.4,4507,right
53,1,continuous,37,100,trial,20661226.0,20663226.0,2000.0,37,L,20661683,20661943,262,1354.6,417.8,4254,right
53,1,continuous,37,100,trial,20661226.0,20663226.0,2000.0,37,L,20661983,20662133,152,1631.3,497.1,4245,right
53,1,continuous,37,100,trial,20661226.0,20663226.0,2000.0,37,L,20662153,20662349,198,1678.4,538.9,4277,right
53,1,continuous,37,100,trial,20661226.0,20663226.0,2000.0,37,L,20662415,20662669,256,531.7,526.4,4317,left
53,1,continuous,37,100,trial,20661226.0,20663226.0,2000.0,37,L,20662691,20662853,164,471.2,581.1,4211,left
53,1,continuous,37,100,trial,20661226.0,20663226.0,2000.0,37,L,20662915,20663195,282,1471.1,529.8,4155,right
53,1,continuous,37,100,trial,20661226.0,20663226.0,2000.0,37,L,20663221,20663475,256,1339.8,476.4,4230,right
53,1,continuous,38,1,fixationCross,20664293.0,20667809.0,3516.0,38,L,20663667,20663805,140,689.5,553.8,4459,left
53,1,continuous,38,1,trial,20664293.0,20667809.0,3516.0,38,L,20663831,20664441,612,868.0,504.8,4629,NA
53,1,continuous,38,1,trial,20664293.0,20667809.0,3516.0,38,L,20664483,20664623,142,576.5,539.2,4439,left
53,1,continuous,38,1,trial,20664293.0,20667809.0,3516.0,38,L,20664687,20664989,304,1496.6,560.2,4277,right
53,1,continuous,38,1,trial,20664293.0,20667809.0,3516.0,38,L,20665011,20665385,376,1471.3,639.9,4370,right
53,1,continuous,38,1,trial,20664293.0,20667809.0,3516.0,38,L,20665399,20665653,256,1506.9,641.9,4528,right
53,1,continuous,38,1,trial,20664293.0,20667809.0,3516.0,38,L,20665677,20665873,198,1543.0,575.5,4464,right
53,1,continuous,38,1,trial,20664293.0,20667809.0,3516.0,38,L,20665937,20666205,270,560.7,545.9,4449,left
53,1,continuous,38,1,trial,20664293.0,20667809.0,3516.0,38,L,20666229,20666457,230,441.2,488.2,4381,left
53,1,continuous,38,1,trial,20664293.0,20667809.0,3516.0,38,L,20666473,20666919,448,388.3,440.5,4241,left
53,1,continuous,38,1,trial,20664293.0,20667809.0,3516.0,38,L,20666943,20667101,160,509.8,496.4,4171,left
53,1,continuous,38,1,trial,20664293.0,20667809.0,3516.0,38,L,20667123,20667711,590,588.8,547.4,4192,left
53,1,continuous,38,1,trial,20664293.0,20667809.0,3516.0,38,L,20667775,20668021,248,1414.7,505.6,4137,right
53,1,continuous,39,1,fixationCross,20669309.0,20670709.0,1400.0,39,L,20668259,20668379,122,1112.8,597.7,4459,NA
53,1,continuous,39,1,fixationCross,20669309.0,20670709.0,1400.0,39,L,20668415,20669041,628,851.5,477.6,4623,NA
53,1,continuous,39,1,trial,20669309.0,20670709.0,1400.0,39,L,20669065,20669457,394,941.3,540.9,4371,NA
53,1,continuous,39,1,trial,20669309.0,20670709.0,1400.0,39,L,20669499,20669617,120,657.3,563.5,4533,left
53,1,continuous,39,1,trial,20669309.0,20670709.0,1400.0,39,L,20669639,20669821,184,561.4,566.7,4430,left
53,1,continuous,39,1,trial,20669309.0,20670709.0,1400.0,39,L,20669837,20670613,778,507.0,565.2,4319,left
53,1,continuous,39,1,trial,20669309.0,20670709.0,1400.0,39,L,20670675,20670999,326,1320.5,585.0,4358,right
53,1,continuous,40,1,fixationCross,20671726.0,20673426.0,1700.0,40,L,20671157,20671295,140,362.8,558.0,4604,left
53,1,continuous,40,1,fixationCross,20671726.0,20673426.0,1700.0,40,L,20671353,20671415,64,949.6,542.8,4655,NA
53,1,continuous,40,1,trial,20671726.0,20673426.0,1700.0,40,L,20671523,20671873,352,859.5,557.5,4524,NA
53,1,continuous,40,1,trial,20671726.0,20673426.0,1700.0,40,L,20671901,20672055,156,634.0,547.3,4569,left
53,1,continuous,40,1,trial,20671726.0,20673426.0,1700.0,40,L,20672109,20672287,180,1406.2,524.5,4199,right
53,1,continuous,40,1,trial,20671726.0,20673426.0,1700.0,40,L,20672309,20672889,582,1419.7,421.4,4049,right
53,1,continuous,40,1,trial,20671726.0,20673426.0,1700.0,40,L,20672947,20673313,368,582.9,524.6,4160,left
53,1,continuous,40,1,trial,20671726.0,20673426.0,1700.0,40,L,20673367,20673653,288,1339.5,455.7,4054,right
53,1,continuous,41,10,fixationCross,20675710.0,20678026.0,2316.0,41,L,20673875,20674109,236,836.9,518.5,4518,NA
53,1,continuous,41,10,fixationCross,20675710.0,20678026.0,2316.0,41,L,20674131,20674999,870,721.6,539.7,4492,left
53,1,continuous,41,10,fixationCross,20675710.0,20678026.0,2316.0,41,L,20675037,20675397,362,869.9,638.5,4463,NA
53,1,continuous,41,10,fixationCross,20675710.0,20678026.0,2316.0,41,L,20675417,20675671,256,957.5,595.6,4627,NA
53,1,continuous,41,10,trial,20675710.0,20678026.0,2316.0,41,L,20675863,20676025,164,995.5,568.0,4642,NA
53,1,continuous,41,10,trial,20675710.0,20678026.0,2316.0,41,L,20676075,20676403,330,513.8,559.3,4626,left
53,1,continuous,41,10,trial,20675710.0,20678026.0,2316.0,41,L,20676465,20676729,266,1394.4,505.3,4261,right
53,1,continuous,41,10,trial,20675710.0,20678026.0,2316.0,41,L,20676751,20677097,348,1462.2,535.6,4219,right
53,1,continuous,41,10,trial,20675710.0,20678026.0,2316.0,41,L,20677107,20677237,132,1424.9,536.1,4263,right
53,1,continuous,41,10,trial,20675710.0,20678026.0,2316.0,41,L,20677287,20677541,256,768.3,542.7,4311,NA
53,1,continuous,41,10,trial,20675710.0,20678026.0,2316.0,41,L,20677591,20677791,202,1269.9,625.1,4291,right
53,1,continuous,41,10,trial,20675710.0,20678026.0,2316.0,41,L,20677815,20678333,520,1383.5,565.0,4364,right
53,1,continuous,42,92,fixationCross,20679176.0,20683826.0,4650.0,42,L,20678565,20678649,86,586.7,520.3,4707,left
53,1,continuous,42,92,fixationCross,20679176.0,20683826.0,4650.0,42,L,20678771,20678863,94,492.1,568.0,4955,left
53,1,continuous,42,92,trial,20679176.0,20683826.0,4650.0,42,L,20678905,20679307,404,901.2,568.7,4939,NA
53,1,continuous,42,92,trial,20679176.0,20683826.0,4650.0,42,L,20679347,20679539,194,551.6,545.7,4502,left
53,1,continuous,42,92,trial,20679176.0,20683826.0,4650.0,42,L,20679561,20680039,480,481.9,463.9,4202,left
53,1,continuous,42,92,trial,20679176.0,20683826.0,4650.0,42,L,20680103,20680461,360,1448.3,545.1,4096,right
53,1,continuous,42,92,trial,20679176.0,20683826.0,4650.0,42,L,20680483,20680775,294,1546.4,478.2,4184,right
53,1,continuous,42,92,trial,20679176.0,20683826.0,4650.0,42,L,20680799,20681189,392,1430.7,515.8,4292,right
53,1,continuous,42,92,trial,20679176.0,20683826.0,4650.0,42,L,20681253,20681521,270,541.6,526.3,4402,left
53,1,continuous,42,92,trial,20679176.0,20683826.0,4650.0,42,L,20681543,20682427,886,481.2,449.0,4234,left
53,1,continuous,42,92,trial,20679176.0,20683826.0,4650.0,42,L,20682491,20684053,1564,1420.8,524.5,4229,right
53,1,continuous,42,92,trial,20679176.0,20683826.0,4650.0,42,L,20684067,20684087,22,1356.0,518.9,4363,right
53,1,continuous,42,92,postResponse,20679176.0,20683826.0,4650.0,42,L,20684097,20684175,80,1249.2,507.6,4396,right
53,1,continuous,43,86,fixationCross,20685276.0,20690310.0,5034.0,43,L,20684251,20684413,164,1226.3,516.8,4512,right
53,1,continuous,43,86,fixationCross,20685276.0,20690310.0,5034.0,43,L,20684469,20684973,506,720.9,528.9,4712,left
53,1,continuous,43,86,fixationCross,20685276.0,20690310.0,5034.0,43,L,20684997,20685111,116,866.7,519.5,4519,NA
53,1,continuous,43,86,trial,20685276.0,20690310.0,5034.0,43,L,20685127,20685425,300,930.7,522.6,4480,NA
53,1,continuous,43,86,trial,20685276.0,20690310.0,5034.0,43,L,20685475,20685607,134,508.9,562.8,4649,left
53,1,continuous,43,86,trial,20685276.0,20690310.0,5034.0,43,L,20685627,20685765,140,439.7,588.6,4404,left
53,1,continuous,43,86,trial,20685276.0,20690310.0,5034.0,43,L,20685783,20685899,118,477.6,635.3,4235,left
53,1,continuous,43,86,trial,20685276.0,20690310.0,5034.0,43,L,20685959,20686237,280,1374.3,544.6,4117,right
53,1,continuous,43,86,trial,20685276.0,20690310.0,5034.0,43,L,20686261,20686851,592,1464.9,598.2,4241,right
53,1,continuous,43,86,trial,20685276.0,20690310.0,5034.0,43,L,20686875,20687101,228,1522.0,497.0,4083,right
53,1,continuous,43,86,trial,20685276.0,20690310.0,5034.0,43,L,20687127,20687417,292,1639.7,423.6,4056,right
53,1,continuous,43,86,trial,20685276.0,20690310.0,5034.0,43,L,20687441,20687703,264,1485.0,475.9,4241,right
53,1,continuous,43,86,trial,20685276.0,20690310.0,5034.0,43,L,20687737,20688359,624,1469.5,607.3,4166,right
53,1,continuous,43,86,trial,20685276.0,20690310.0,5034.0,43,L,20688373,20688547,176,1463.9,651.9,4049,right
53,1,continuous,43,86,trial,20685276.0,20690310.0,5034.0,43,L,20688609,20688733,126,639.3,650.9,4206,left
53,1,continuous,43,86,trial,20685276.0,20690310.0,5034.0,43,L,20688757,20689025,270,479.0,642.4,4203,left
53,1,continuous,43,86,trial,20685276.0,20690310.0,5034.0,43,L,20689079,20689249,172,1220.6,561.5,4080,right
53,1,continuous,43,86,trial,20685276.0,20690310.0,5034.0,43,L,20689367,20689539,174,546.6,608.7,4082,left
53,1,continuous,43,86,trial,20685276.0,20690310.0,5034.0,43,L,20689555,20689749,196,482.8,641.4,4221,left
53,1,continuous,43,86,trial,20685276.0,20690310.0,5034.0,43,L,20689761,20689999,240,493.6,668.8,4202,left
53,1,continuous,43,86,trial,20685276.0,20690310.0,5034.0,43,L,20690061,20690325,266,1386.0,563.4,4067,right
53,1,continuous,43,86,trial,20685276.0,20690310.0,5034.0,43,L,20690349,20690609,262,1282.0,529.8,4071,right
53,1,continuous,44,82,fixationCross,20691493.0,20695210.0,3717.0,44,L,20690763,20691165,404,705.2,623.1,4518,left
53,1,continuous,44,82,trial,20691493.0,20695210.0,3717.0,44,L,20691193,20691555,364,934.6,550.1,4568,NA
53,1,continuous,44,82,trial,20691493.0,20695210.0,3717.0,44,L,20691573,20691689,118,856.0,555.9,4550,NA
53,1,continuous,44,82,trial,20691493.0,20695210.0,3717.0,44,L,20691735,20691935,202,523.4,563.3,4484,left
53,1,continuous,44,82,trial,20691493.0,20695210.0,3717.0,44,L,20691951,20692257,308,456.5,564.2,4251,left
53,1,continuous,44,82,trial,20691493.0,20695210.0,3717.0,44,L,20692317,20692491,176,1345.2,533.3,4189,right
53,1,continuous,44,82,trial,20691493.0,20695210.0,3717.0,44,L,20692515,20692653,140,1492.0,487.7,4156,right
53,1,continuous,44,82,trial,20691493.0,20695210.0,3717.0,44,L,20692673,20692929,258,1573.3,482.2,4219,right
53,1,continuous,44,82,trial,20691493.0,20695210.0,3717.0,44,L,20692941,20693129,190,1601.1,471.8,4299,right
53,1,continuous,44,82,trial,20691493.0,20695210.0,3717.0,44,L,20693147,20693617,472,1538.7,487.2,4268,right
53,1,continuous,44,82,trial,20691493.0,20695210.0,3717.0,44,L,20693637,20693841,206,1445.5,483.2,4260,right
53,1,continuous,44,82,trial,20691493.0,20695210.0,3717.0,44,L,20693853,20694493,642,1411.6,463.7,4299,right
53,1,continuous,44,82,trial,20691493.0,20695210.0,3717.0,44,L,20694515,20695485,972,1268.8,525.4,4554,right
53,1,continuous,44,82,postResponse,20691493.0,20695210.0,3717.0,44,L,20695499,20695557,60,1180.7,491.6,4797,NA
53,1,continuous,45,16,fixationCross,20696626.0,20701310.0,4684.0,45,L,20695633,20695755,124,779.0,515.3,4797,NA
53,1,continuous,45,16,fixationCross,20696626.0,20701310.0,4684.0,45,L,20695869,20695979,112,633.6,512.6,4906,left
53,1,continuous,45,16,fixationCross,20696626.0,20701310.0,4684.0,45,L,20696117,20696345,230,830.0,564.8,4959,NA
53,1,continuous,45,16,trial,20696626.0,20701310.0,4684.0,45,L,20696367,20696767,402,933.7,558.4,4678,NA
53,1,continuous,45,16,trial,20696626.0,20701310.0,4684.0,45,L,20696805,20696935,132,700.2,549.5,4521,left
53,1,continuous,45,16,trial,20696626.0,20701310.0,4684.0,45,L,20696967,20697263,298,476.0,599.2,4432,left
53,1,continuous,45,16,trial,20696626.0,20701310.0,4684.0,45,L,20697355,20697585,232,1354.1,549.9,4468,right
53,1,continuous,45,16,trial,20696626.0,20701310.0,4684.0,45,L,20697607,20697837,232,1438.3,573.3,4538,right
53,1,continuous,45,16,trial,20696626.0,20701310.0,4684.0,45,L,20697863,20697963,102,1460.2,466.6,4565,right
53,1,continuous,45,16,trial,20696626.0,20701310.0,4684.0,45,L,20698029,20698249,222,415.2,567.6,4616,left
53,1,continuous,45,16,trial,20696626.0,20701310.0,4684.0,45,L,20698263,20698493,232,468.3,572.3,4692,left
53,1,continuous,45,16,trial,20696626.0,20701310.0,4684.0,45,L,20698501,20698723,224,448.2,579.7,4587,left
53,1,continuous,45,16,trial,20696626.0,20701310.0,4684.0,45,L,20698779,20699053,276,1326.9,546.5,4425,right
53,1,continuous,45,16,trial,20696626.0,20701310.0,4684.0,45,L,20699077,20699417,342,1420.1,601.8,4463,right
53,1,continuous,45,16,trial,20696626.0,20701310.0,4684.0,45,L,20699439,20699611,174,1476.4,532.1,4510,right
53,1,continuous,45,16,trial,20696626.0,20701310.0,4684.0,45,L,20699631,20699747,118,1464.5,462.5,4469,right
53,1,continuous,45,16,trial,20696626.0,20701310.0,4684.0,45,L,20699811,20700231,422,477.5,572.4,4404,left
53,1,continuous,45,16,trial,20696626.0,20701310.0,4684.0,45,L,20700253,20700757,506,586.9,526.3,4272,left
53,1,continuous,45,16,trial,20696626.0,20701310.0,4684.0,45,L,20700775,20701531,758,654.4,564.1,4478,left
53,1,continuous,46,26,fixationCross,20703893.0,20706543.0,2650.0,46,L,20701757,20701789,34,1566.8,651.1,4583,right
53,1,continuous,46,26,fixationCross,20703893.0,20706543.0,2650.0,46,L,20701963,20702695,734,720.6,520.4,4860,left
53,1,continuous,46,26,fixationCross,20703893.0,20706543.0,2650.0,46,L,20702713,20703569,858,644.4,548.2,4506,left
53,1,continuous,46,26,fixationCross,20703893.0,20706543.0,2650.0,46,L,20703615,20703881,268,993.1,590.6,4699,NA
53,1,continuous,46,26,trial,20703893.0,20706543.0,2650.0,46,L,20703903,20704085,184,941.8,547.3,4760,NA
53,1,continuous,46,26,trial,20703893.0,20706543.0,2650.0,46,L,20704129,20704401,274,543.3,534.7,4666,left
53,1,continuous,46,26,trial,20703893.0,20706543.0,2650.0,46,L,20704415,20704723,310,494.5,530.1,4343,left
53,1,continuous,46,26,trial,20703893.0,20706543.0,2650.0,46,L,20704743,20704929,188,396.7,507.8,4275,left
53,1,continuous,46,26,trial,20703893.0,20706543.0,2650.0,46,L,20704955,20705059,106,589.3,502.1,4294,left
53,1,continuous,46,26,trial,20703893.0,20706543.0,2650.0,46,L,20705203,20705387,186,1407.4,575.0,4307,right
53,1,continuous,46,26,trial,20703893.0,20706543.0,2650.0,46,L,20705399,20706123,726,1442.2,561.9,4225,right
53,1,continuous,46,26,trial,20703893.0,20706543.0,2650.0,46,L,20706167,20706299,134,994.4,638.9,4133,NA
53,1,continuous,46,26,trial,20703893.0,20706543.0,2650.0,46,L,20706345,20706795,452,667.0,531.5,4306,left
53,1,continuous,47,1,fixationCross,20707794.0,20711010.0,3216.0,47,L,20707237,20707499,264,590.1,575.8,4895,left
53,1,continuous,47,1,trial,20707794.0,20711010.0,3216.0,47,L,20707541,20707941,402,873.8,508.6,4673,NA
53,1,continuous,47,1,trial,20707794.0,20711010.0,3216.0,47,L,20707973,20708103,132,676.6,481.2,4379,left
53,1,continuous,47,1,trial,20707794.0,20711010.0,3216.0,47,L,20708127,20708343,218,627.9,419.9,4285,left
53,1,continuous,47,1,trial,20707794.0,20711010.0,3216.0,47,L,20708411,20708581,172,1511.3,493.0,4443,right
53,1,continuous,47,1,trial,20707794.0,20711010.0,3216.0,47,L,20708601,20708807,208,1478.0,438.1,4462,right
53,1,continuous,47,1,trial,20707794.0,20711010.0,3216.0,47,L,20708873,20708971,100,698.3,1025.1,4606,NA
53,1,continuous,47,1,trial,20707794.0,20711010.0,3216.0,47,L,20708997,20709169,174,538.5,1008.0,4601,NA
53,1,continuous,47,1,trial,20707794.0,20711010.0,3216.0,47,L,20709229,20709361,134,793.2,446.3,4632,NA
53,1,continuous,47,1,trial,20707794.0,20711010.0,3216.0,47,L,20709387,20709573,188,662.4,426.5,4666,left
53,1,continuous,47,1,trial,20707794.0,20711010.0,3216.0,47,L,20709585,20709755,172,640.2,410.0,4711,left
53,1,continuous,47,1,trial,20707794.0,20711010.0,3216.0,47,L,20709823,20710007,186,1474.9,485.8,4628,right
53,1,continuous,47,1,trial,20707794.0,20711010.0,3216.0,47,L,20710031,20710603,574,1483.2,431.7,4468,right
53,1,continuous,47,1,trial,20707794.0,20711010.0,3216.0,47,L,20710617,20711025,410,1426.7,437.5,4481,right
53,1,continuous,47,1,trial,20707794.0,20711010.0,3216.0,47,L,20711079,20711311,234,673.8,425.7,4652,left
53,1,continuous,48,100,fixationCross,20712243.0,20714093.0,1850.0,48,L,20711457,20711501,46,1149.6,574.5,4720,NA
53,1,continuous,48,100,fixationCross,20712243.0,20714093.0,1850.0,48,L,20711709,20711931,224,760.0,511.6,5107,NA
53,1,continuous,48,100,trial,20712243.0,20714093.0,1850.0,48,L,20711955,20712381,428,913.4,522.0,5061,NA
53,1,continuous,48,100,trial,20712243.0,20714093.0,1850.0,48,L,20712427,20712573,148,658.6,545.7,4759,left
53,1,continuous,48,100,trial,20712243.0,20714093.0,1850.0,48,L,20712595,20712807,214,548.9,569.6,4501,left
53,1,continuous,48,100,trial,20712243.0,20714093.0,1850.0,48,L,20712867,20713107,242,1413.7,617.7,4362,right
53,1,continuous,48,100,trial,20712243.0,20714093.0,1850.0,48,L,20713127,20713447,322,1486.8,658.6,4352,right
53,1,continuous,48,100,trial,20712243.0,20714093.0,1850.0,48,L,20713475,20713813,340,1288.3,661.1,4334,right
53,1,continuous,48,100,trial,20712243.0,20714093.0,1850.0,48,L,20713861,20713941,82,913.8,568.9,4427,NA
53,1,continuous,48,100,postResponse,20712243.0,20714093.0,1850.0,48,L,20713983,20714441,460,586.6,578.4,4528,left
53,1,continuous,49,1,fixationCross,20715160.0,20717910.0,2750.0,49,L,20714635,20714843,210,646.6,535.9,4710,left
53,1,continuous,49,1,trial,20715160.0,20717910.0,2750.0,49,L,20714879,20715343,466,902.9,551.7,4764,NA
53,1,continuous,49,1,trial,20715160.0,20717910.0,2750.0,49,L,20715361,20715403,44,928.3,554.6,4583,NA
53,1,continuous,49,1,trial,20715160.0,20717910.0,2750.0,49,L,20715447,20715617,172,589.6,576.8,4453,left
53,1,continuous,49,1,trial,20715160.0,20717910.0,2750.0,49,L,20715679,20715931,254,1353.0,574.3,4452,right
53,1,continuous,49,1,trial,20715160.0,20717910.0,2750.0,49,L,20715959,20716427,470,1490.0,572.0,4346,right
53,1,continuous,49,1,trial,20715160.0,20717910.0,2750.0,49,L,20716451,20716555,106,1415.8,504.1,4233,right
53,1,continuous,49,1,trial,20715160.0,20717910.0,2750.0,49,L,20716613,20716945,334,612.4,584.9,4222,left
53,1,continuous,49,1,trial,20715160.0,20717910.0,2750.0,49,L,20717009,20717369,362,1448.1,597.8,4315,right
53,1,continuous,49,1,trial,20715160.0,20717910.0,2750.0,49,L,20717397,20717629,234,1620.3,614.2,4227,right
53,1,continuous,49,1,trial,20715160.0,20717910.0,2750.0,49,L,20717657,20717863,208,1474.1,478.5,4089,right
53,1,continuous,49,1,trial,20715160.0,20717910.0,2750.0,49,L,20717931,20718187,258,576.8,958.6,4181,NA
53,1,continuous,50,83,fixationCross,20718976.0,20722626.0,3650.0,50,L,20718457,20718679,224,714.9,571.0,4599,left
53,1,continuous,50,83,trial,20718976.0,20722626.0,3650.0,50,L,20718709,20718977,270,938.0,576.9,4797,NA
53,1,continuous,50,83,trial,20718976.0,20722626.0,3650.0,50,L,20718999,20719187,190,835.7,567.2,4604,NA
53,1,continuous,50,83,trial,20718976.0,20722626.0,3650.0,50,L,20719219,20719433,216,611.5,573.3,4408,left
53,1,continuous,50,83,trial,20718976.0,20722626.0,3650.0,50,L,20719455,20719705,252,501.2,586.5,4169,left
53,1,continuous,50,83,trial,20718976.0,20722626.0,3650.0,50,L,20719765,20719961,198,1261.4,509.3,4137,right
53,1,continuous,50,83,trial,20718976.0,20722626.0,3650.0,50,L,20719983,20720193,212,1375.6,504.8,4172,right
53,1,continuous,50,83,trial,20718976.0,20722626.0,3650.0,50,L,20720211,20720421,212,1436.7,482.4,4242,right
53,1,continuous,50,83,trial,20718976.0,20722626.0,3650.0,50,L,20720485,20720819,336,511.1,529.9,4234,left
53,1,continuous,50,83,trial,20718976.0,20722626.0,3650.0,50,L,20720853,20721127,276,491.4,681.5,4209,left
53,1,continuous,50,83,trial,20718976.0,20722626.0,3650.0,50,L,20721189,20721423,236,1376.0,544.3,4098,right
53,1,continuous,50,83,trial,20718976.0,20722626.0,3650.0,50,L,20721445,20721719,276,1469.1,479.6,4121,right
53,1,continuous,50,83,trial,20718976.0,20722626.0,3650.0,50,L,20721741,20722865,1126,1351.3,496.0,4462,right
53,2,binary,1,2,fixationCross,20783244.0,20792877.0,9633.0,51,L,20782566,20782922,358,904.2,847.6,4978,likertHorizontal
53,2,binary,1,2,fixationCross,20783244.0,20792877.0,9633.0,51,L,20782968,20783090,124,872.7,547.9,4986,NA
53,2,binary,1,2,trial,20783244.0,20792877.0,9633.0,51,L,20783110,20783386,278,954.1,529.6,4966,NA
53,2,binary,1,2,trial,20783244.0,20792877.0,9633.0,51,L,20783430,20783600,172,629.4,542.3,4987,left
53,2,binary,1,2,trial,20783244.0,20792877.0,9633.0,51,L,20783654,20783760,108,877.5,949.9,4856,likertHorizontal
53,2,binary,1,2,trial,20783244.0,20792877.0,9633.0,51,L,20783784,20783942,160,951.6,991.0,4859,likertHorizontal
53,2,binary,1,2,trial,20783244.0,20792877.0,9633.0,51,L,20783992,20784206,216,449.3,1074.2,4991,NA
53,2,binary,1,2,trial,20783244.0,20792877.0,9633.0,51,L,20784222,20784460,240,497.1,1062.6,4976,NA
53,2,binary,1,2,trial,20783244.0,20792877.0,9633.0,51,L,20784520,20784768,250,669.5,566.3,4765,left
53,2,binary,1,2,trial,20783244.0,20792877.0,9633.0,51,L,20784824,20785242,420,971.8,990.4,4904,likertHorizontal
53,2,binary,1,2,trial,20783244.0,20792877.0,9633.0,51,L,20785286,20785630,346,531.2,996.0,5190,NA
53,2,binary,1,2,trial,20783244.0,20792877.0,9633.0,51,L,20785648,20785782,136,483.9,1010.7,5255,NA
53,2,binary,1,2,trial,20783244.0,20792877.0,9633.0,51,L,20785842,20786074,234,501.2,509.8,4936,left
53,2,binary,1,2,trial,20783244.0,20792877.0,9633.0,51,L,20786090,20786260,172,557.2,534.0,4807,left
53,2,binary,1,2,trial,20783244.0,20792877.0,9633.0,51,L,20786270,20786426,158,525.6,531.1,4756,left
53,2,binary,1,2,trial,20783244.0,20792877.0,9633.0,51,L,20786486,20786834,350,1443.9,539.9,4581,right
53,2,binary,1,2,trial,20783244.0,20792877.0,9633.0,51,L,20786886,20787262,378,1371.7,837.1,4689,NA
53,2,binary,1,2,trial,20783244.0,20792877.0,9633.0,51,L,20787294,20787456,164,1429.3,981.7,4888,NA
53,2,binary,1,2,trial,20783244.0,20792877.0,9633.0,51,L,20787516,20787692,178,1341.8,539.2,4930,right
53,2,binary,1,2,trial,20783244.0,20792877.0,9633.0,51,L,20787802,20787956,156,1329.0,493.0,4870,right
53,2,binary,1,2,trial,20783244.0,20792877.0,9633.0,51,L,20787978,20788590,614,1252.8,467.9,4979,right
53,2,binary,1,2,trial,20783244.0,20792877.0,9633.0,51,L,20788616,20788838,224,1394.4,492.7,4890,right
53,2,binary,1,2,trial,20783244.0,20792877.0,9633.0,51,L,20788860,20789034,176,1482.0,463.6,4828,right
53,2,binary,1,2,trial,20783244.0,20792877.0,9633.0,51,L,20789094,20789350,258,618.6,510.7,4977,left
53,2,binary,1,2,trial,20783244.0,20792877.0,9633.0,51,L,20789372,20789530,160,552.5,516.5,4964,left
53,2,binary,1,2,trial,20783244.0,20792877.0,9633.0,51,L,20789544,20790068,526,504.1,529.6,4750,left
53,2,binary,1,2,trial,20783244.0,20792877.0,9633.0,51,L,20790098,20790734,638,533.9,432.7,4653,left
53,2,binary,1,2,trial,20783244.0,20792877.0,9633.0,51,L,20790794,20791018,226,1359.3,534.1,4678,right
53,2,binary,1,2,trial,20783244.0,20792877.0,9633.0,51,L,20791042,20791222,182,1444.2,490.1,4640,right
53,2,binary,1,2,trial,20783244.0,20792877.0,9633.0,51,L,20791238,20791574,338,1486.5,469.4,4691,right
53,2,binary,1,2,trial,20783244.0,20792877.0,9633.0,51,L,20791600,20791832,234,1315.6,481.7,4726,right
53,2,binary,1,2,trial,20783244.0,20792877.0,9633.0,51,L,20791854,20792098,246,1441.7,503.6,4789,right
53,2,binary,1,2,trial,20783244.0,20792877.0,9633.0,51,L,20792130,20792294,166,1430.9,665.6,4895,right
53,2,binary,1,2,trial,20783244.0,20792877.0,9633.0,51,L,20792360,20792768,410,499.3,490.2,4820,left
53,2,binary,1,2,trial,20783244.0,20792877.0,9633.0,51,L,20792784,20793110,328,524.0,529.2,4732,left
53,2,binary,1,2,postResponse,20783244.0,20792877.0,9633.0,51,L,20793180,20793228,50,1071.4,502.4,4747,NA
53,2,binary,2,2,fixationCross,20794161.0,20795944.0,1783.0,52,L,20793334,20793528,196,691.1,469.3,4760,left
53,2,binary,2,2,fixationCross,20794161.0,20795944.0,1783.0,52,L,20793664,20793840,178,762.8,501.6,4999,NA
53,2,binary,2,2,fixationCross,20794161.0,20795944.0,1783.0,52,L,20793866,20794032,168,938.7,526.7,4976,NA
53,2,binary,2,2,trial,20794161.0,20795944.0,1783.0,52,L,20794040,20794310,272,964.3,535.3,4853,NA
53,2,binary,2,2,trial,20794161.0,20795944.0,1783.0,52,L,20794356,20794518,164,1334.0,547.5,4655,right
53,2,binary,2,2,trial,20794161.0,20795944.0,1783.0,52,L,20794534,20794796,264,1382.6,554.9,4419,right
53,2,binary,2,2,trial,20794161.0,20795944.0,1783.0,52,L,20794852,20795212,362,590.6,576.4,4414,left
53,2,binary,2,2,trial,20794161.0,20795944.0,1783.0,52,L,20795222,20795562,342,572.4,563.8,4387,left
53,2,binary,2,2,trial,20794161.0,20795944.0,1783.0,52,L,20795620,20795846,228,1335.6,568.0,4290,right
53,2,binary,2,2,trial,20794161.0,20795944.0,1783.0,52,L,20795860,20796176,318,1379.0,556.0,4337,right
53,2,binary,3,1,fixationCross,20797111.0,20798711.0,1600.0,53,L,20796392,20796810,420,783.7,557.6,4799,NA
53,2,binary,3,1,trial,20797111.0,20798711.0,1600.0,53,L,20796834,20797126,294,905.9,540.7,4729,NA
53,2,binary,3,1,trial,20797111.0,20798711.0,1600.0,53,L,20797146,20797304,160,785.6,551.0,4621,NA
53,2,binary,3,1,trial,20797111.0,20798711.0,1600.0,53,L,20797330,20797536,208,583.0,570.7,4568,left
53,2,binary,3,1,trial,20797111.0,20798711.0,1600.0,53,L,20797552,20797836,286,514.6,569.4,4420,left
53,2,binary,3,1,trial,20797111.0,20798711.0,1600.0,53,L,20797892,20798112,222,1269.5,535.1,4385,right
53,2,binary,3,1,trial,20797111.0,20798711.0,1600.0,53,L,20798154,20798284,132,1597.8,464.7,4330,right
53,2,binary,3,1,trial,20797111.0,20798711.0,1600.0,53,L,20798302,20798448,148,1639.8,445.5,4328,right
53,2,binary,3,1,trial,20797111.0,20798711.0,1600.0,53,L,20798514,20798714,202,518.3,563.8,4403,left
53,2,binary,3,1,trial,20797111.0,20798711.0,1600.0,53,L,20798734,20798942,210,457.7,589.0,4510,left
53,2,binary,4,2,fixationCross,20799794.0,20803762.0,3968.0,54,L,20799238,20799460,224,627.1,559.2,4809,left
53,2,binary,4,2,fixationCross,20799794.0,20803762.0,3968.0,54,L,20799498,20799640,144,892.1,550.5,5018,NA
53,2,binary,4,2,trial,20799794.0,20803762.0,3968.0,54,L,20799660,20799986,328,945.3,540.4,4809,NA
53,2,binary,4,2,trial,20799794.0,20803762.0,3968.0,54,L,20800030,20800486,458,523.8,569.0,4510,left
53,2,binary,4,2,trial,20799794.0,20803762.0,3968.0,54,L,20800552,20800998,448,1437.3,559.4,4346,right
53,2,binary,4,2,trial,20799794.0,20803762.0,3968.0,54,L,20801062,20801272,212,551.0,564.4,4540,left
53,2,binary,4,2,trial,20799794.0,20803762.0,3968.0,54,L,20801292,20801632,342,477.3,574.3,4523,left
53,2,binary,4,2,trial,20799794.0,20803762.0,3968.0,54,L,20801694,20801978,286,1422.7,582.4,4441,right
53,2,binary,4,2,trial,20799794.0,20803762.0,3968.0,54,L,20802032,20802172,142,1443.9,926.3,4518,NA
53,2,binary,4,2,trial,20799794.0,20803762.0,3968.0,54,L,20802234,20802422,190,781.1,623.2,4553,NA
53,2,binary,4,2,trial,20799794.0,20803762.0,3968.0,54,L,20802448,20803364,918,531.2,584.8,4465,left
53,2,binary,4,2,trial,20799794.0,20803762.0,3968.0,54,L,20803426,20803626,202,1352.4,516.8,4405,right
53,2,binary,4,2,trial,20799794.0,20803762.0,3968.0,54,L,20803648,20803934,288,1451.9,512.0,4420,right
53,2,binary,5,1,fixationCross,20805894.0,20807727.0,1833.0,55,L,20804182,20804436,256,1821.8,979.2,4724,NA
53,2,binary,5,1,fixationCross,20805894.0,20807727.0,1833.0,55,L,20804514,20804706,194,693.8,457.4,4976,left
53,2,binary,5,1,fixationCross,20805894.0,20807727.0,1833.0,55,L,20804734,20805114,382,859.1,502.5,4862,NA
53,2,binary,5,1,fixationCross,20805894.0,20807727.0,1833.0,55,L,20805136,20805434,300,768.9,519.8,4859,NA
53,2,binary,5,1,fixationCross,20805894.0,20807727.0,1833.0,55,L,20805474,20805616,144,728.7,653.9,4869,left
53,2,binary,5,1,fixationCross,20805894.0,20807727.0,1833.0,55,L,20805658,20805844,188,970.0,554.5,4934,NA
53,2,binary,5,1,trial,20805894.0,20807727.0,1833.0,55,L,20805858,20806046,190,938.2,538.1,5015,NA
53,2,binary,5,1,trial,20805894.0,20807727.0,1833.0,55,L,20806082,20806196,116,758.1,532.3,5091,NA
53,2,binary,5,1,trial,20805894.0,20807727.0,1833.0,55,L,20806222,20806558,338,543.6,563.9,4895,left
53,2,binary,5,1,trial,20805894.0,20807727.0,1833.0,55,L,20806612,20806824,214,1374.4,553.8,4764,right
53,2,binary,5,1,trial,20805894.0,20807727.0,1833.0,55,L,20806842,20807024,184,1390.4,503.4,4559,right
53,2,binary,5,1,trial,20805894.0,20807727.0,1833.0,55,L,20807086,20807356,272,444.4,526.5,4554,left
53,2,binary,5,1,trial,20805894.0,20807727.0,1833.0,55,L,20807372,20807690,320,493.0,534.9,4794,left
53,2,binary,5,1,trial,20805894.0,20807727.0,1833.0,55,L,20807712,20808012,302,492.4,592.7,4769,left
53,2,binary,6,1,fixationCross,20809145.0,20811444.0,2299.0,56,L,20808172,20808790,620,755.2,377.8,5026,NA
53,2,binary,6,1,trial,20809145.0,20811444.0,2299.0,56,L,20808890,20809290,402,926.4,494.1,5047,NA
53,2,binary,6,1,trial,20809145.0,20811444.0,2299.0,56,L,20809334,20809574,242,580.0,493.0,5037,left
53,2,binary,6,1,trial,20809145.0,20811444.0,2299.0,56,L,20809592,20809908,318,567.7,464.1,4616,left
53,2,binary,6,1,trial,20809145.0,20811444.0,2299.0,56,L,20809974,20810400,428,1443.0,564.1,4513,right
53,2,binary,6,1,trial,20809145.0,20811444.0,2299.0,56,L,20810422,20810532,112,1415.5,643.5,4482,right
53,2,binary,6,1,trial,20809145.0,20811444.0,2299.0,56,L,20810588,20811002,416,661.4,537.7,4501,left
53,2,binary,6,1,trial,20809145.0,20811444.0,2299.0,56,L,20811018,20811288,272,613.0,529.3,4465,left
53,2,binary,6,1,trial,20809145.0,20811444.0,2299.0,56,L,20811344,20811668,326,1345.0,534.6,4545,right
53,2,binary,7,2,fixationCross,20812628.0,20814461.0,1833.0,57,L,20811892,20812134,244,1516.7,548.4,4913,right
53,2,binary,7,2,fixationCross,20812628.0,20814461.0,1833.0,57,L,20812194,20812370,178,771.3,545.5,5109,NA
53,2,binary,7,2,trial,20812628.0,20814461.0,1833.0,57,L,20812396,20812658,264,892.6,525.9,4834,NA
53,2,binary,7,2,trial,20812628.0,20814461.0,1833.0,57,L,20812678,20812828,152,757.4,535.8,4754,NA
53,2,binary,7,2,trial,20812628.0,20814461.0,1833.0,57,L,20812858,20813156,300,551.1,576.2,4579,left
53,2,binary,7,2,trial,20812628.0,20814461.0,1833.0,57,L,20813174,20813336,164,532.0,528.1,4358,left
53,2,binary,7,2,trial,20812628.0,20814461.0,1833.0,57,L,20813394,20813792,400,1374.2,607.7,4281,right
53,2,binary,7,2,trial,20812628.0,20814461.0,1833.0,57,L,20813814,20814174,362,1350.0,523.8,4261,right
53,2,binary,7,2,trial,20812628.0,20814461.0,1833.0,57,L,20814192,20814330,140,1340.1,483.0,4258,right
53,2,binary,7,2,trial,20812628.0,20814461.0,1833.0,57,L,20814370,20814670,302,1608.2,612.0,4268,right
53,2,binary,8,2,fixationCross,20815395.0,20817945.0,2550.0,58,L,20814908,20815286,380,945.7,473.4,4655,NA
53,2,binary,8,2,trial,20815395.0,20817945.0,2550.0,58,L,20815302,20815522,222,939.2,506.8,4792,NA
53,2,binary,8,2,trial,20815395.0,20817945.0,2550.0,58,L,20815562,20815750,190,660.1,511.8,4651,left
53,2,binary,8,2,trial,20815395.0,20817945.0,2550.0,58,L,20815774,20815948,176,554.8,511.2,4461,left
53,2,binary,8,2,trial,20815395.0,20817945.0,2550.0,58,L,20816006,20816236,232,1408.2,517.2,4322,right
53,2,binary,8,2,trial,20815395.0,20817945.0,2550.0,58,L,20816262,20816518,258,1470.1,411.9,4277,right
53,2,binary,8,2,trial,20815395.0,20817945.0,2550.0,58,L,20816542,20816818,278,1374.6,461.9,4254,right
53,2,binary,8,2,trial,20815395.0,20817945.0,2550.0,58,L,20816828,20817146,320,1354.3,481.6,4366,right
53,2,binary,8,2,trial,20815395.0,20817945.0,2550.0,58,L,20817166,20817346,182,1445.0,454.3,4423,right
53,2,binary,8,2,trial,20815395.0,20817945.0,2550.0,58,L,20817362,20817650,290,1465.0,410.2,4309,right
53,2,binary,8,2,trial,20815395.0,20817945.0,2550.0,58,L,20817718,20817994,278,517.9,518.3,4223,left
53,2,binary,8,2,trial,20815395.0,20817945.0,2550.0,58,L,20818016,20818148,134,631.8,507.1,4196,left
53,2,binary,9,1,fixationCross,20819928.0,20822962.0,3034.0,59,L,20818376,20818532,158,1514.8,1009.5,4232,NA
53,2,binary,9,1,fixationCross,20819928.0,20822962.0,3034.0,59,L,20818602,20819510,910,775.0,546.9,4657,NA
53,2,binary,9,1,fixationCross,20819928.0,20822962.0,3034.0,59,L,20819632,20819826,196,867.3,579.6,4627,NA
53,2,binary,9,1,trial,20819928.0,20822962.0,3034.0,59,L,20819850,20820092,244,981.1,546.9,4806,NA
53,2,binary,9,1,trial,20819928.0,20822962.0,3034.0,59,L,20820138,20820328,192,623.0,585.4,4782,left
53,2,binary,9,1,trial,20819928.0,20822962.0,3034.0,59,L,20820386,20820716,332,1423.5,507.0,4391,right
53,2,binary,9,1,trial,20819928.0,20822962.0,3034.0,59,L,20820736,20820924,190,1504.4,476.1,4298,right
53,2,binary,9,1,trial,20819928.0,20822962.0,3034.0,59,L,20820944,20821118,176,1546.5,434.8,4268,right
53,2,binary,9,1,trial,20819928.0,20822962.0,3034.0,59,L,20821140,20821286,148,1465.0,428.6,4305,right
53,2,binary,9,1,trial,20819928.0,20822962.0,3034.0,59,L,20821346,20821534,190,549.8,569.9,4484,left
53,2,binary,9,1,trial,20819928.0,20822962.0,3034.0,59,L,20821554,20821736,184,618.3,535.0,4544,left
53,2,binary,9,1,trial,20819928.0,20822962.0,3034.0,59,L,20821748,20821938,192,607.0,505.9,4449,left
53,2,binary,9,1,trial,20819928.0,20822962.0,3034.0,59,L,20821958,20822352,396,674.2,567.8,4365,left
53,2,binary,9,1,trial,20819928.0,20822962.0,3034.0,59,L,20822362,20822546,186,682.6,593.5,4372,left
53,2,binary,9,1,trial,20819928.0,20822962.0,3034.0,59,L,20822586,20822766,182,440.7,584.1,4378,left
53,2,binary,9,1,trial,20819928.0,20822962.0,3034.0,59,L,20822784,20822954,172,352.9,585.9,4361,left
53,2,binary,9,1,trial,20819928.0,20822962.0,3034.0,59,L,20822970,20823218,250,289.6,597.2,4277,left
53,2,binary,10,1,fixationCross,20824028.0,20825595.0,1567.0,60,L,20823408,20823540,134,1661.4,846.2,4353,NA
53,2,binary,10,1,trial,20824028.0,20825595.0,1567.0,60,L,20823742,20824170,430,938.8,600.2,4751,NA
53,2,binary,10,1,trial,20824028.0,20825595.0,1567.0,60,L,20824208,20824316,110,1144.1,495.4,4590,NA
53,2,binary,10,1,trial,20824028.0,20825595.0,1567.0,60,L,20824342,20824578,238,1323.9,449.1,4217,right
53,2,binary,10,1,trial,20824028.0,20825595.0,1567.0,60,L,20824636,20824870,236,440.8,522.6,4100,left
53,2,binary,10,1,trial,20824028.0,20825595.0,1567.0,60,L,20824886,20825088,204,391.0,500.4,4075,left
53,2,binary,10,1,trial,20824028.0,20825595.0,1567.0,60,L,20825102,20825782,682,396.7,476.4,4094,left
53,2,binary,10,1,postResponse,20824028.0,20825595.0,1567.0,60,L,20825866,20825944,80,1518.9,684.0,4302,right
53,2,binary,11,2,fixationCross,20826695.0,20830611.0,3916.0,61,L,20826044,20826058,16,1517.3,691.7,4379,right
53,2,binary,11,2,fixationCross,20826695.0,20830611.0,3916.0,61,L,20826212,20826382,172,807.1,507.4,4764,NA
53,2,binary,11,2,trial,20826695.0,20830611.0,3916.0,61,L,20826410,20826870,462,948.5,522.0,4977,NA
53,2,binary,11,2,trial,20826695.0,20830611.0,3916.0,61,L,20826926,20827076,152,1423.2,528.6,4668,right
53,2,binary,11,2,trial,20826695.0,20830611.0,3916.0,61,L,20827098,20827346,250,1569.8,518.2,4425,right
53,2,binary,11,2,trial,20826695.0,20830611.0,3916.0,61,L,20827360,20827570,212,1581.8,484.0,4344,right
53,2,binary,11,2,trial,20826695.0,20830611.0,3916.0,61,L,20827636,20827784,150,515.4,533.1,4411,left
53,2,binary,11,2,trial,20826695.0,20830611.0,3916.0,61,L,20827812,20828210,400,352.9,553.9,4550,left
53,2,binary,11,2,trial,20826695.0,20830611.0,3916.0,61,L,20828278,20828396,120,1501.6,641.4,4631,right
53,2,binary,11,2,trial,20826695.0,20830611.0,3916.0,61,L,20828492,20828794,304,2563.5,767.5,4383,NA
53,2,binary,11,2,trial,20826695.0,20830611.0,3916.0,61,L,20828852,20829190,340,1499.2,573.7,4620,right
53,2,binary,11,2,trial,20826695.0,20830611.0,3916.0,61,L,20829216,20829598,384,1559.2,477.2,4616,right
53,2,binary,11,2,trial,20826695.0,20830611.0,3916.0,61,L,20829622,20829816,196,1445.4,514.9,4596,right
53,2,binary,11,2,trial,20826695.0,20830611.0,3916.0,61,L,20829828,20830528,702,1408.4,539.2,4534,right
53,2,binary,11,2,postResponse,20826695.0,20830611.0,3916.0,61,L,20830552,20830954,404,1275.8,538.9,4522,right
53,2,binary,12,1,fixationCross,20831778.0,20833995.0,2217.0,62,L,20831206,20831446,242,1104.0,537.9,4699,NA
53,2,binary,12,1,fixationCross,20831778.0,20833995.0,2217.0,62,L,20831468,20831646,180,1026.0,549.6,4908,NA
53,2,binary,12,1,trial,20831778.0,20833995.0,2217.0,62,L,20831670,20831920,252,891.6,530.7,4812,NA
53,2,binary,12,1,trial,20831778.0,20833995.0,2217.0,62,L,20831964,20832484,522,575.0,555.4,4375,left
53,2,binary,12,1,trial,20831778.0,20833995.0,2217.0,62,L,20832538,20832768,232,1383.4,578.6,4138,right
53,2,binary,12,1,trial,20831778.0,20833995.0,2217.0,62,L,20832792,20833064,274,1506.4,536.6,4134,right
53,2,binary,12,1,trial,20831778.0,20833995.0,2217.0,62,L,20833126,20833358,234,583.3,578.7,4218,left
53,2,binary,12,1,trial,20831778.0,20833995.0,2217.0,62,L,20833378,20834210,834,500.9,614.5,4046,left
53,2,binary,13,1,fixationCross,20835078.0,20841294.0,6216.0,63,L,20834438,20834780,344,846.6,537.6,4594,NA
53,2,binary,13,1,trial,20835078.0,20841294.0,6216.0,63,L,20834802,20835284,484,949.8,542.5,4711,NA
53,2,binary,13,1,trial,20835078.0,20841294.0,6216.0,63,L,20835332,20835524,194,1327.1,514.7,4530,right
53,2,binary,13,1,trial,20835078.0,20841294.0,6216.0,63,L,20835540,20835700,162,1369.6,473.5,4430,right
53,2,binary,13,1,trial,20835078.0,20841294.0,6216.0,63,L,20835756,20836016,262,569.3,476.1,4725,left
53,2,binary,13,1,trial,20835078.0,20841294.0,6216.0,63,L,20836032,20836722,692,522.3,484.6,4857,left
53,2,binary,13,1,trial,20835078.0,20841294.0,6216.0,63,L,20836738,20837124,388,471.9,506.1,4810,left
53,2,binary,13,1,trial,20835078.0,20841294.0,6216.0,63,L,20837140,20837402,264,435.5,483.0,4926,left
53,2,binary,13,1,trial,20835078.0,20841294.0,6216.0,63,L,20837418,20837620,204,502.2,493.8,4900,left
53,2,binary,13,1,trial,20835078.0,20841294.0,6216.0,63,L,20837676,20837912,238,1356.0,568.7,4879,right
53,2,binary,13,1,trial,20835078.0,20841294.0,6216.0,63,L,20837934,20838258,326,1390.9,497.8,4793,right
53,2,binary,13,1,trial,20835078.0,20841294.0,6216.0,63,L,20838270,20838460,192,1373.5,477.0,4729,right
53,2,binary,13,1,trial,20835078.0,20841294.0,6216.0,63,L,20838520,20838724,206,483.8,507.4,4719,left
53,2,binary,13,1,trial,20835078.0,20841294.0,6216.0,63,L,20838748,20839238,492,347.9,589.8,4643,left
53,2,binary,13,1,trial,20835078.0,20841294.0,6216.0,63,L,20839264,20839506,244,472.5,499.1,4510,left
53,2,binary,13,1,trial,20835078.0,20841294.0,6216.0,63,L,20839566,20839948,384,1351.5,547.4,4429,right
53,2,binary,13,1,trial,20835078.0,20841294.0,6216.0,63,L,20840008,20840376,370,496.2,519.4,4352,left
53,2,binary,13,1,trial,20835078.0,20841294.0,6216.0,63,L,20840396,20840984,590,434.6,491.2,4354,left
53,2,binary,13,1,trial,20835078.0,20841294.0,6216.0,63,L,20841050,20841178,130,1241.5,522.9,4410,right
53,2,binary,13,1,trial,20835078.0,20841294.0,6216.0,63,L,20841202,20841498,298,1373.6,526.8,4377,right
53,2,binary,14,1,fixationCross,20843712.0,20845644.0,1932.0,64,L,20841724,20841854,132,725.9,570.5,4546,left
53,2,binary,14,1,fixationCross,20843712.0,20845644.0,1932.0,64,L,20841882,20843426,1546,857.0,507.4,4600,NA
53,2,binary,14,1,trial,20843712.0,20845644.0,1932.0,64,L,20843442,20843902,462,911.0,531.7,4767,NA
53,2,binary,14,1,trial,20843712.0,20845644.0,1932.0,64,L,20843944,20844184,242,573.6,584.4,4695,left
53,2,binary,14,1,trial,20843712.0,20845644.0,1932.0,64,L,20844208,20844652,446,467.8,565.9,4475,left
53,2,binary,14,1,trial,20843712.0,20845644.0,1932.0,64,L,20844714,20844910,198,1395.4,496.7,4410,right
53,2,binary,14,1,trial,20843712.0,20845644.0,1932.0,64,L,20844930,20845126,198,1335.5,494.1,4298,right
53,2,binary,14,1,trial,20843712.0,20845644.0,1932.0,64,L,20845188,20845544,358,468.9,580.0,4223,left
53,2,binary,14,1,postResponse,20843712.0,20845644.0,1932.0,64,L,20845568,20845992,426,339.3,569.5,4300,left
53,2,binary,15,2,fixationCross,20846828.0,20848745.0,1917.0,65,L,20846094,20846210,118,346.7,570.4,4421,left
53,2,binary,15,2,fixationCross,20846828.0,20848745.0,1917.0,65,L,20846258,20846526,270,696.7,600.6,4611,left
53,2,binary,15,2,fixationCross,20846828.0,20848745.0,1917.0,65,L,20846562,20846708,148,921.9,555.5,4756,NA
53,2,binary,15,2,fixationCross,20846828.0,20848745.0,1917.0,65,L,20846720,20846780,62,959.0,553.8,4854,NA
53,2,binary,15,2,trial,20846828.0,20848745.0,1917.0,65,L,20846828,20847264,438,1374.0,550.3,4841,right
53,2,binary,15,2,trial,20846828.0,20848745.0,1917.0,65,L,20847374,20847602,230,665.6,539.5,4563,left
53,2,binary,15,2,trial,20846828.0,20848745.0,1917.0,65,L,20847628,20847840,214,521.8,509.4,4581,left
53,2,binary,15,2,trial,20846828.0,20848745.0,1917.0,65,L,20847862,20848124,264,460.9,448.3,4400,left
53,2,binary,15,2,trial,20846828.0,20848745.0,1917.0,65,L,20848150,20848230,82,537.1,532.9,4331,left
53,2,binary,15,2,trial,20846828.0,20848745.0,1917.0,65,L,20848284,20848688,406,1396.4,522.9,4606,right
53,2,binary,15,2,postResponse,20846828.0,20848745.0,1917.0,65,L,20848706,20849090,386,1448.0,515.8,5031,right
53,2,binary,16,1,fixationCross,20849811.0,20852479.0,2668.0,66,L,20849166,20849470,306,1445.7,526.9,4980,right
53,2,binary,16,1,fixationCross,20849811.0,20852479.0,2668.0,66,L,20849516,20849688,174,978.6,520.8,4950,NA
53,2,binary,16,1,trial,20849811.0,20852479.0,2668.0,66,L,20849696,20849950,256,977.9,538.8,4922,NA
53,2,binary,16,1,trial,20849811.0,20852479.0,2668.0,66,L,20849998,20850122,126,595.8,541.9,4883,left
53,2,binary,16,1,trial,20849811.0,20852479.0,2668.0,66,L,20850146,20850298,154,450.4,475.3,4576,left
53,2,binary,16,1,trial,20849811.0,20852479.0,2668.0,66,L,20850312,20850842,532,409.6,473.5,4359,left
53,2,binary,16,1,trial,20849811.0,20852479.0,2668.0,66,L,20850854,20851232,380,390.4,462.1,4288,left
53,2,binary,16,1,trial,20849811.0,20852479.0,2668.0,66,L,20851264,20851394,132,557.0,518.7,4300,left
53,2,binary,16,1,trial,20849811.0,20852479.0,2668.0,66,L,20851452,20851768,318,1430.4,563.5,4238,right
53,2,binary,16,1,trial,20849811.0,20852479.0,2668.0,66,L,20851784,20852044,262,1488.1,595.1,4206,right
53,2,binary,16,1,trial,20849811.0,20852479.0,2668.0,66,L,20852108,20852424,318,529.6,545.5,4215,left
53,2,binary,16,1,trial,20849811.0,20852479.0,2668.0,66,L,20852446,20852654,210,436.7,491.4,4259,left
53,2,binary,16,1,postResponse,20849811.0,20852479.0,2668.0,66,L,20852762,20852812,52,1649.9,595.7,4345,right
53,2,binary,17,2,fixationCross,20854745.0,20858328.0,3583.0,67,L,20852914,20852942,30,1644.6,604.9,4463,right
53,2,binary,17,2,fixationCross,20854745.0,20858328.0,3583.0,67,L,20853102,20853554,454,746.9,506.0,4824,NA
53,2,binary,17,2,fixationCross,20854745.0,20858328.0,3583.0,67,L,20853576,20854152,578,651.2,512.1,4538,left
53,2,binary,17,2,fixationCross,20854745.0,20858328.0,3583.0,67,L,20854170,20854412,244,545.9,521.0,4625,left
53,2,binary,17,2,fixationCross,20854745.0,20858328.0,3583.0,67,L,20854458,20854598,142,902.5,542.0,4741,NA
53,2,binary,17,2,trial,20854745.0,20858328.0,3583.0,67,L,20854612,20854896,286,909.8,524.9,4777,NA
53,2,binary,17,2,trial,20854745.0,20858328.0,3583.0,67,L,20854936,20855182,248,601.0,551.1,4893,left
53,2,binary,17,2,trial,20854745.0,20858328.0,3583.0,67,L,20855248,20855444,198,1437.9,561.8,4539,right
53,2,binary,17,2,trial,20854745.0,20858328.0,3583.0,67,L,20855464,20855658,196,1373.0,574.7,4452,right
53,2,binary,17,2,trial,20854745.0,20858328.0,3583.0,67,L,20855696,20855894,200,1552.7,471.2,4471,right
53,2,binary,17,2,trial,20854745.0,20858328.0,3583.0,67,L,20855904,20856184,282,1533.2,461.6,4505,right
53,2,binary,17,2,trial,20854745.0,20858328.0,3583.0,67,L,20856212,20856390,180,1357.3,547.2,4573,right
53,2,binary,17,2,trial,20854745.0,20858328.0,3583.0,67,L,20856402,20856572,172,1323.8,565.9,4669,right
53,2,binary,17,2,trial,20854745.0,20858328.0,3583.0,67,L,20856630,20856902,274,571.7,536.1,4871,left
53,2,binary,17,2,trial,20854745.0,20858328.0,3583.0,67,L,20856922,20857050,130,482.7,548.4,4726,left
53,2,binary,17,2,trial,20854745.0,20858328.0,3583.0,67,L,20857158,20857264,108,965.1,526.4,4581,NA
53,2,binary,17,2,trial,20854745.0,20858328.0,3583.0,67,L,20857308,20857522,216,1354.4,550.5,4596,right
53,2,binary,17,2,trial,20854745.0,20858328.0,3583.0,67,L,20857560,20857792,234,1515.6,469.1,4797,right
53,2,binary,17,2,trial,20854745.0,20858328.0,3583.0,67,L,20857820,20858004,186,1357.1,545.5,4727,right
53,2,binary,17,2,trial,20854745.0,20858328.0,3583.0,67,L,20858016,20858216,202,1352.5,565.3,4613,right
53,2,binary,17,2,postResponse,20854745.0,20858328.0,3583.0,67,L,20858256,20858678,424,1002.1,532.4,4580,NA
53,2,binary,18,1,trial,20859245.0,20861179.0,1934.0,68,L,20858956,20859386,432,886.2,531.8,4986,NA
53,2,binary,18,1,trial,20859245.0,20861179.0,1934.0,68,L,20859432,20859546,116,569.5,506.6,4698,left
53,2,binary,18,1,trial,20859245.0,20861179.0,1934.0,68,L,20859570,20859820,252,433.7,482.5,4278,left
53,2,binary,18,1,trial,20859245.0,20861179.0,1934.0,68,L,20859836,20860158,324,384.1,454.9,4090,left
53,2,binary,18,1,trial,20859245.0,20861179.0,1934.0,68,L,20860178,20860284,108,454.7,432.0,4100,left
53,2,binary,18,1,trial,20859245.0,20861179.0,1934.0,68,L,20860344,20860570,228,1453.0,547.7,4142,right
53,2,binary,18,1,trial,20859245.0,20861179.0,1934.0,68,L,20860592,20860794,204,1394.3,618.7,4339,right
53,2,binary,18,1,trial,20859245.0,20861179.0,1934.0,68,L,20860858,20861114,258,440.4,498.0,4429,left
53,2,binary,18,1,postResponse,20859245.0,20861179.0,1934.0,68,L,20861134,20861514,382,385.6,471.6,4279,left
53,2,binary,19,1,fixationCross,20862328.0,20864228.0,1900.0,69,L,20861722,20862012,292,796.2,524.7,4436,NA
53,2,binary,19,1,trial,20862328.0,20864228.0,1900.0,69,L,20862036,20862502,468,895.6,511.4,4600,NA
53,2,binary,19,1,trial,20862328.0,20864228.0,1900.0,69,L,20862548,20862680,134,1264.8,528.4,4418,right
53,2,binary,19,1,trial,20862328.0,20864228.0,1900.0,69,L,20862704,20862854,152,1432.2,521.3,4234,right
53,2,binary,19,1,trial,20862328.0,20864228.0,1900.0,69,L,20862870,20863086,218,1494.9,535.7,4223,right
53,2,binary,19,1,trial,20862328.0,20864228.0,1900.0,69,L,20863150,20863320,172,489.3,539.8,4248,left
53,2,binary,19,1,trial,20862328.0,20864228.0,1900.0,69,L,20863346,20863520,176,353.2,622.5,4215,left
53,2,binary,19,1,trial,20862328.0,20864228.0,1900.0,69,L,20863538,20863714,178,295.4,645.8,4182,left
53,2,binary,19,1,trial,20862328.0,20864228.0,1900.0,69,L,20863756,20864198,444,567.3,485.7,4093,left
53,2,binary,19,1,trial,20862328.0,20864228.0,1900.0,69,L,20864260,20864502,244,1418.0,561.6,4195,right
53,2,binary,20,2,fixationCross,20865862.0,20869029.0,3167.0,70,L,20864680,20864898,220,994.6,492.0,4507,NA
53,2,binary,20,2,fixationCross,20865862.0,20869029.0,3167.0,70,L,20864920,20865612,694,850.2,499.4,4641,NA
53,2,binary,20,2,fixationCross,20865862.0,20869029.0,3167.0,70,L,20865634,20865830,198,889.4,599.9,4594,NA
53,2,binary,20,2,trial,20865862.0,20869029.0,3167.0,70,L,20865870,20865990,122,1207.4,669.0,4670,right
53,2,binary,20,2,trial,20865862.0,20869029.0,3167.0,70,L,20866034,20866154,122,771.3,581.2,4856,NA
53,2,binary,20,2,trial,20865862.0,20869029.0,3167.0,70,L,20866182,20866482,302,550.7,597.0,4608,left
53,2,binary,20,2,trial,20865862.0,20869029.0,3167.0,70,L,20866594,20866620,28,1414.4,575.7,4337,right
53,2,binary,20,2,trial,20865862.0,20869029.0,3167.0,70,L,20866758,20867016,260,1421.7,584.0,4395,right
53,2,binary,20,2,trial,20865862.0,20869029.0,3167.0,70,L,20867030,20867342,314,1450.5,562.2,4723,right
53,2,binary,20,2,trial,20865862.0,20869029.0,3167.0,70,L,20867358,20868300,944,1409.3,565.5,4770,right
53,2,binary,20,2,trial,20865862.0,20869029.0,3167.0,70,L,20868316,20868670,356,1452.4,558.2,4883,right
53,2,binary,20,2,trial,20865862.0,20869029.0,3167.0,70,L,20868686,20868832,148,1401.5,568.1,4824,right
53,2,binary,20,2,trial,20865862.0,20869029.0,3167.0,70,L,20868894,20869210,318,585.4,543.4,4754,left
53,2,binary,21,2,fixationCross,20870212.0,20871846.0,1634.0,71,L,20869454,20869512,60,1462.3,703.4,4606,right
53,2,binary,21,2,fixationCross,20870212.0,20871846.0,1634.0,71,L,20869658,20869872,216,769.6,553.8,4962,NA
53,2,binary,21,2,trial,20870212.0,20871846.0,1634.0,71,L,20869902,20870352,452,927.9,529.2,4972,NA
53,2,binary,21,2,trial,20870212.0,20871846.0,1634.0,71,L,20870398,20870538,142,611.6,542.5,4714,left
53,2,binary,21,2,trial,20870212.0,20871846.0,1634.0,71,L,20870562,20870700,140,457.2,540.0,4471,left
53,2,binary,21,2,trial,20870212.0,20871846.0,1634.0,71,L,20870760,20870994,236,1461.3,608.4,4316,right
53,2,binary,21,2,trial,20870212.0,20871846.0,1634.0,71,L,20871030,20871276,248,1485.6,487.6,4275,right
53,2,binary,21,2,trial,20870212.0,20871846.0,1634.0,71,L,20871300,20871690,392,1365.8,585.7,4323,right
53,2,binary,21,2,trial,20870212.0,20871846.0,1634.0,71,L,20871756,20872118,364,428.2,525.7,4447,left
53,2,binary,22,2,fixationCross,20872928.0,20876529.0,3601.0,72,L,20872296,20872628,334,1101.5,515.5,4510,NA
53,2,binary,22,2,trial,20872928.0,20876529.0,3601.0,72,L,20872654,20873142,490,978.8,548.8,4767,NA
53,2,binary,22,2,trial,20872928.0,20876529.0,3601.0,72,L,20873190,20873378,190,565.2,558.4,4577,left
53,2,binary,22,2,trial,20872928.0,20876529.0,3601.0,72,L,20873388,20873956,570,535.8,566.2,4412,left
53,2,binary,22,2,trial,20872928.0,20876529.0,3601.0,72,L,20874012,20874520,510,1351.4,542.6,4346,right
53,2,binary,22,2,trial,20872928.0,20876529.0,3601.0,72,L,20874600,20874830,232,492.9,545.8,4320,left
53,2,binary,22,2,trial,20872928.0,20876529.0,3601.0,72,L,20874846,20875190,346,539.4,559.4,4301,left
53,2,binary,22,2,trial,20872928.0,20876529.0,3601.0,72,L,20875198,20875514,318,517.9,569.3,4243,left
53,2,binary,22,2,trial,20872928.0,20876529.0,3601.0,72,L,20875572,20875942,372,1372.1,572.3,4210,right
53,2,binary,22,2,trial,20872928.0,20876529.0,3601.0,72,L,20875966,20876448,484,1391.7,478.5,4158,right
53,2,binary,22,2,trial,20872928.0,20876529.0,3601.0,72,L,20876506,20876738,234,608.2,486.7,4273,left
53,2,binary,23,1,fixationCross,20877595.0,20881496.0,3901.0,73,L,20876958,20877276,320,704.9,504.0,4658,left
53,2,binary,23,1,trial,20877595.0,20881496.0,3901.0,73,L,20877306,20877736,432,885.8,521.1,4615,NA
53,2,binary,23,1,trial,20877595.0,20881496.0,3901.0,73,L,20877778,20877908,132,590.3,538.9,4514,left
