participantNo,block,task,blockTrial,response,trialStage,trialStartTime,trialFinishTime,rt,trial,eye,fixStart,fixEnd,fixLength,fixPosX,fixPosY,dilation,aoi
62,1,binary,1,2,fixationCross,2445259.0,2449392.0,4133.0,1,L,2444415,2444797,384,934.2,876.5,3843,likertHorizontal
62,1,binary,1,2,fixationCross,2445259.0,2449392.0,4133.0,1,L,2444843,2445035,194,990.2,574.6,3819,NA
62,1,binary,1,2,trial,2445259.0,2449392.0,4133.0,1,L,2445045,2445463,420,970.4,567.6,3799,NA
62,1,binary,1,2,trial,2445259.0,2449392.0,4133.0,1,L,2445505,2445635,132,672.2,542.0,3727,left
62,1,binary,1,2,trial,2445259.0,2449392.0,4133.0,1,L,2445655,2445747,94,593.3,568.5,3583,left
62,1,binary,1,2,trial,2445259.0,2449392.0,4133.0,1,L,2445807,2445915,110,466.0,988.3,3543,NA
62,1,binary,1,2,trial,2445259.0,2449392.0,4133.0,1,L,2445935,2446201,268,462.4,1039.3,3710,NA
62,1,binary,1,2,trial,2445259.0,2449392.0,4133.0,1,L,2446215,2446379,166,478.9,1004.7,3798,NA
62,1,binary,1,2,trial,2445259.0,2449392.0,4133.0,1,L,2446433,2446633,202,550.2,541.2,3784,left
62,1,binary,1,2,trial,2445259.0,2449392.0,4133.0,1,L,2446703,2447047,346,1344.7,745.5,3727,NA
62,1,binary,1,2,trial,2445259.0,2449392.0,4133.0,1,L,2447069,2447677,610,1345.7,658.1,3624,right
62,1,binary,1,2,trial,2445259.0,2449392.0,4133.0,1,L,2447747,2447867,122,723.2,525.9,3872,left
62,1,binary,1,2,trial,2445259.0,2449392.0,4133.0,1,L,2447893,2448333,442,579.7,556.9,3787,left
62,1,binary,1,2,trial,2445259.0,2449392.0,4133.0,1,L,2448343,2448455,114,609.6,536.8,3624,left
62,1,binary,1,2,trial,2445259.0,2449392.0,4133.0,1,L,2448519,2448967,450,1364.5,591.2,3538,right
62,1,binary,1,2,trial,2445259.0,2449392.0,4133.0,1,L,2449509,2449657,150,625.7,575.8,3855,left
62,1,binary,2,2,fixationCross,2450559.0,2453993.0,3434.0,2,L,2449831,2449881,52,1508.6,702.9,3746,right
62,1,binary,2,2,fixationCross,2450559.0,2453993.0,3434.0,2,L,2450155,2450211,58,903.6,1151.6,4131,likertHorizontal
62,1,binary,2,2,fixationCross,2450559.0,2453993.0,3434.0,2,L,2450279,2450409,132,927.8,537.1,4121,NA
62,1,binary,2,2,trial,2450559.0,2453993.0,3434.0,2,L,2450423,2450735,314,974.1,555.5,3896,NA
62,1,binary,2,2,trial,2450559.0,2453993.0,3434.0,2,L,2450789,2451077,290,623.1,559.2,3655,left
62,1,binary,2,2,trial,2450559.0,2453993.0,3434.0,2,L,2451125,2451241,118,516.2,879.5,3499,NA
62,1,binary,2,2,trial,2450559.0,2453993.0,3434.0,2,L,2451283,2451479,198,511.0,644.4,3574,left
62,1,binary,2,2,trial,2450559.0,2453993.0,3434.0,2,L,2451495,2451553,60,510.7,585.5,3522,left
62,1,binary,2,2,trial,2450559.0,2453993.0,3434.0,2,L,2451575,2451827,254,526.3,491.6,3444,left
62,1,binary,2,2,trial,2450559.0,2453993.0,3434.0,2,L,2451891,2452095,206,1332.3,488.0,3368,right
62,1,binary,2,2,trial,2450559.0,2453993.0,3434.0,2,L,2452107,2452771,666,1372.6,496.8,3408,right
62,1,binary,2,2,trial,2450559.0,2453993.0,3434.0,2,L,2452811,2452991,182,1316.3,671.4,3521,right
62,1,binary,2,2,trial,2450559.0,2453993.0,3434.0,2,L,2453045,2453111,68,749.7,595.6,3684,NA
62,1,binary,2,2,trial,2450559.0,2453993.0,3434.0,2,L,2453141,2453359,220,573.9,578.6,3774,left
62,1,binary,2,2,trial,2450559.0,2453993.0,3434.0,2,L,2453383,2453609,228,510.1,503.9,3685,left
62,1,binary,2,2,trial,2450559.0,2453993.0,3434.0,2,L,2453623,2454223,602,530.6,456.8,3536,left
62,1,binary,2,2,postResponse,2450559.0,2453993.0,3434.0,2,L,2454305,2454341,38,934.4,669.6,3582,NA
62,1,binary,3,1,fixationCross,2455259.0,2459359.0,4100.0,3,L,2454531,2454695,166,1361.9,623.0,3722,right
62,1,binary,3,1,fixationCross,2455259.0,2459359.0,4100.0,3,L,2454745,2454777,34,1271.0,863.7,3942,NA
62,1,binary,3,1,fixationCross,2455259.0,2459359.0,4100.0,3,L,2454825,2454931,108,940.2,647.3,4020,NA
62,1,binary,3,1,fixationCross,2455259.0,2459359.0,4100.0,3,L,2454953,2455081,130,975.4,585.0,3879,NA
62,1,binary,3,1,trial,2455259.0,2459359.0,4100.0,3,L,2455093,2455425,334,969.1,563.8,3681,NA
62,1,binary,3,1,trial,2455259.0,2459359.0,4100.0,3,L,2455481,2455651,172,630.5,563.3,3609,left
62,1,binary,3,1,trial,2455259.0,2459359.0,4100.0,3,L,2455671,2455929,260,570.9,586.0,3360,left
62,1,binary,3,1,trial,2455259.0,2459359.0,4100.0,3,L,2455993,2456213,222,1349.9,627.5,3253,right
62,1,binary,3,1,trial,2455259.0,2459359.0,4100.0,3,L,2456239,2456519,282,1475.7,655.5,3321,right
62,1,binary,3,1,trial,2455259.0,2459359.0,4100.0,3,L,2456531,2456665,136,1430.8,642.8,3382,right
62,1,binary,3,1,trial,2455259.0,2459359.0,4100.0,3,L,2456691,2456983,294,1326.4,528.8,3402,right
62,1,binary,3,1,trial,2455259.0,2459359.0,4100.0,3,L,2456997,2457203,208,1281.6,518.5,3411,right
62,1,binary,3,1,trial,2455259.0,2459359.0,4100.0,3,L,2457275,2457619,346,438.8,588.4,3525,left
62,1,binary,3,1,trial,2455259.0,2459359.0,4100.0,3,L,2457645,2457785,142,611.6,589.5,3452,left
62,1,binary,3,1,trial,2455259.0,2459359.0,4100.0,3,L,2457811,2458201,392,536.5,468.1,3377,left
62,1,binary,3,1,trial,2455259.0,2459359.0,4100.0,3,L,2458225,2458363,140,660.7,520.5,3382,left
62,1,binary,3,1,trial,2455259.0,2459359.0,4100.0,3,L,2458429,2458663,236,1376.7,533.6,3346,right
62,1,binary,3,1,trial,2455259.0,2459359.0,4100.0,3,L,2458687,2458893,208,1448.8,653.1,3340,right
62,1,binary,3,1,trial,2455259.0,2459359.0,4100.0,3,L,2458963,2459103,142,660.5,958.8,3553,NA
62,1,binary,3,1,trial,2455259.0,2459359.0,4100.0,3,L,2459131,2459311,182,469.6,975.9,3649,NA
62,1,binary,3,1,trial,2455259.0,2459359.0,4100.0,3,L,2459327,2459541,216,483.8,1021.5,3745,NA
62,1,binary,3,1,postResponse,2455259.0,2459359.0,4100.0,3,L,2459605,2459697,94,912.0,622.0,3743,NA
62,1,binary,4,1,fixationCross,2460442.0,2463093.0,2651.0,4,L,2459773,2459863,92,1015.6,485.5,3650,NA
62,1,binary,4,1,fixationCross,2460442.0,2463093.0,2651.0,4,L,2459877,2459985,110,1082.1,445.3,3665,NA
62,1,binary,4,1,fixationCross,2460442.0,2463093.0,2651.0,4,L,2460025,2460125,102,1204.5,382.5,3760,right
62,1,binary,4,1,fixationCross,2460442.0,2463093.0,2651.0,4,L,2460169,2460303,136,930.9,596.6,3943,NA
62,1,binary,4,1,trial,2460442.0,2463093.0,2651.0,4,L,2460321,2460635,316,962.0,569.0,3996,NA
62,1,binary,4,1,trial,2460442.0,2463093.0,2651.0,4,L,2460679,2460871,194,595.2,637.7,3798,left
62,1,binary,4,1,trial,2460442.0,2463093.0,2651.0,4,L,2460893,2461337,446,509.5,616.6,3511,left
62,1,binary,4,1,trial,2460442.0,2463093.0,2651.0,4,L,2461363,2461541,180,600.2,570.7,3399,left
62,1,binary,4,1,trial,2460442.0,2463093.0,2651.0,4,L,2461599,2461819,222,1258.4,546.2,3345,right
62,1,binary,4,1,trial,2460442.0,2463093.0,2651.0,4,L,2461843,2462013,172,1359.1,565.2,3360,right
62,1,binary,4,1,trial,2460442.0,2463093.0,2651.0,4,L,2462031,2462211,182,1372.2,511.6,3358,right
62,1,binary,4,1,trial,2460442.0,2463093.0,2651.0,4,L,2462231,2462567,338,1278.7,550.9,3442,right
62,1,binary,4,1,trial,2460442.0,2463093.0,2651.0,4,L,2462633,2462995,364,561.5,628.1,3671,left
62,1,binary,4,1,trial,2460442.0,2463093.0,2651.0,4,L,2463013,2463315,304,492.8,609.2,3538,left
62,1,binary,5,2,fixationCross,2464210.0,2467109.0,2899.0,5,L,2463707,2463763,58,1644.5,973.6,3673,NA
62,1,binary,5,2,fixationCross,2464210.0,2467109.0,2899.0,5,L,2463939,2464067,130,1023.7,590.8,3902,NA
62,1,binary,5,2,trial,2464210.0,2467109.0,2899.0,5,L,2464089,2464373,286,973.8,559.8,3796,NA
62,1,binary,5,2,trial,2464210.0,2467109.0,2899.0,5,L,2464423,2464603,182,1354.1,592.4,3672,right
62,1,binary,5,2,trial,2464210.0,2467109.0,2899.0,5,L,2464625,2464767,144,1278.4,628.1,3484,right
62,1,binary,5,2,trial,2464210.0,2467109.0,2899.0,5,L,2464779,2465083,306,1249.7,636.8,3441,right
62,1,binary,5,2,trial,2464210.0,2467109.0,2899.0,5,L,2465101,2465205,106,1221.7,558.1,3484,right
62,1,binary,5,2,trial,2464210.0,2467109.0,2899.0,5,L,2465265,2465697,434,565.3,551.4,3542,left
62,1,binary,5,2,trial,2464210.0,2467109.0,2899.0,5,L,2465717,2465935,220,490.7,532.0,3503,left
62,1,binary,5,2,trial,2464210.0,2467109.0,2899.0,5,L,2465955,2466349,396,459.2,493.0,3539,left
62,1,binary,5,2,trial,2464210.0,2467109.0,2899.0,5,L,2466365,2466459,96,408.5,509.3,3609,left
62,1,binary,5,2,trial,2464210.0,2467109.0,2899.0,5,L,2466529,2467347,820,1274.2,592.2,3568,right
62,1,binary,5,2,postResponse,2464210.0,2467109.0,2899.0,5,L,2467399,2467449,52,949.6,610.3,3636,NA
62,1,binary,6,2,fixationCross,2468225.0,2470159.0,1934.0,6,L,2467577,2467583,8,1447.2,578.7,3584,right
62,1,binary,6,2,fixationCross,2468225.0,2470159.0,1934.0,6,L,2467605,2467815,212,1568.3,651.0,3619,right
62,1,binary,6,2,fixationCross,2468225.0,2470159.0,1934.0,6,L,2467859,2467899,42,1623.6,831.0,3785,NA
62,1,binary,6,2,fixationCross,2468225.0,2470159.0,1934.0,6,L,2467965,2468099,136,966.4,601.3,3919,NA
62,1,binary,6,2,trial,2468225.0,2470159.0,1934.0,6,L,2468115,2468387,274,979.1,568.5,3837,NA
62,1,binary,6,2,trial,2468225.0,2470159.0,1934.0,6,L,2468445,2468601,158,578.6,558.9,3734,left
62,1,binary,6,2,trial,2468225.0,2470159.0,1934.0,6,L,2468623,2468911,290,489.0,559.8,3556,left
62,1,binary,6,2,trial,2468225.0,2470159.0,1934.0,6,L,2468979,2469055,78,1237.3,570.6,3493,right
62,1,binary,6,2,trial,2468225.0,2470159.0,1934.0,6,L,2469077,2469287,212,1329.7,569.7,3462,right
62,1,binary,6,2,trial,2468225.0,2470159.0,1934.0,6,L,2469299,2470077,780,1363.0,571.2,3408,right
62,1,binary,6,2,trial,2468225.0,2470159.0,1934.0,6,L,2470147,2470395,250,550.0,556.8,3616,left
62,1,binary,7,2,fixationCross,2471210.0,2473376.0,2166.0,7,L,2470567,2470785,220,1271.4,575.7,3615,right
62,1,binary,7,2,fixationCross,2471210.0,2473376.0,2166.0,7,L,2470795,2470901,108,1262.4,622.1,3733,right
62,1,binary,7,2,fixationCross,2471210.0,2473376.0,2166.0,7,L,2470945,2471091,148,940.3,575.5,3756,NA
62,1,binary,7,2,trial,2471210.0,2473376.0,2166.0,7,L,2471101,2471349,250,973.8,571.0,3749,NA
62,1,binary,7,2,trial,2471210.0,2473376.0,2166.0,7,L,2471397,2471547,152,571.7,560.3,3744,left
62,1,binary,7,2,trial,2471210.0,2473376.0,2166.0,7,L,2471571,2471717,148,550.8,465.8,3538,left
62,1,binary,7,2,trial,2471210.0,2473376.0,2166.0,7,L,2471729,2471877,150,560.8,435.7,3440,left
62,1,binary,7,2,trial,2471210.0,2473376.0,2166.0,7,L,2471943,2472223,282,1442.0,433.8,3302,right
62,1,binary,7,2,trial,2471210.0,2473376.0,2166.0,7,L,2472249,2472509,262,1486.8,560.8,3367,right
62,1,binary,7,2,trial,2471210.0,2473376.0,2166.0,7,L,2472535,2473017,484,1367.4,558.5,3451,right
62,1,binary,7,2,trial,2471210.0,2473376.0,2166.0,7,L,2473041,2473381,342,1486.4,626.4,3524,right
62,1,binary,7,2,trial,2471210.0,2473376.0,2166.0,7,L,2473389,2473617,230,1508.8,651.3,3603,right
62,1,binary,7,2,trial,2471210.0,2473376.0,2166.0,7,L,2473639,2473663,26,1383.1,627.8,3622,right
62,1,binary,7,2,postResponse,2471210.0,2473376.0,2166.0,7,L,2473685,2473709,26,1230.8,648.8,3660,right
62,1,binary,8,2,fixationCross,2474459.0,2477776.0,3317.0,8,L,2473809,2473957,150,1203.6,655.9,3669,right
62,1,binary,8,2,fixationCross,2474459.0,2477776.0,3317.0,8,L,2474011,2474135,126,1610.9,844.2,3745,NA
62,1,binary,8,2,fixationCross,2474459.0,2477776.0,3317.0,8,L,2474193,2474309,118,1042.1,582.3,3800,NA
62,1,binary,8,2,trial,2474459.0,2477776.0,3317.0,8,L,2474331,2474613,284,982.6,556.6,3691,NA
62,1,binary,8,2,trial,2474459.0,2477776.0,3317.0,8,L,2474667,2474959,294,558.1,520.7,3597,left
62,1,binary,8,2,trial,2474459.0,2477776.0,3317.0,8,L,2474973,2475341,370,512.3,523.6,3439,left
62,1,binary,8,2,trial,2474459.0,2477776.0,3317.0,8,L,2475413,2475567,156,1458.4,497.7,3296,right
62,1,binary,8,2,trial,2474459.0,2477776.0,3317.0,8,L,2475585,2476361,778,1474.4,471.8,3330,right
62,1,binary,8,2,trial,2474459.0,2477776.0,3317.0,8,L,2476437,2476585,150,654.8,523.9,3505,left
62,1,binary,8,2,trial,2474459.0,2477776.0,3317.0,8,L,2476607,2476879,274,540.2,524.4,3484,left
62,1,binary,8,2,trial,2474459.0,2477776.0,3317.0,8,L,2476895,2477243,350,491.4,541.9,3401,left
62,1,binary,8,2,trial,2474459.0,2477776.0,3317.0,8,L,2477319,2477485,168,1420.9,498.0,3289,right
62,1,binary,8,2,trial,2474459.0,2477776.0,3317.0,8,L,2477501,2478003,504,1461.5,489.5,3334,right
62,1,binary,9,1,fixationCross,2478993.0,2481410.0,2417.0,9,L,2478477,2478647,172,1024.9,1226.1,3758,likertHorizontal
62,1,binary,9,1,fixationCross,2478993.0,2481410.0,2417.0,9,L,2478717,2478905,190,991.7,551.9,3763,NA
62,1,binary,9,1,trial,2478993.0,2481410.0,2417.0,9,L,2478917,2479133,218,976.8,559.4,3719,NA
62,1,binary,9,1,trial,2478993.0,2481410.0,2417.0,9,L,2479183,2479351,170,563.5,498.4,3646,left
62,1,binary,9,1,trial,2478993.0,2481410.0,2417.0,9,L,2479375,2479551,178,503.8,569.4,3359,left
62,1,binary,9,1,trial,2478993.0,2481410.0,2417.0,9,L,2479577,2479881,306,646.6,656.9,3312,left
62,1,binary,9,1,trial,2478993.0,2481410.0,2417.0,9,L,2479947,2480089,144,1377.3,563.2,3328,right
62,1,binary,9,1,trial,2478993.0,2481410.0,2417.0,9,L,2480109,2480423,316,1462.7,545.1,3257,right
62,1,binary,9,1,trial,2478993.0,2481410.0,2417.0,9,L,2480437,2480877,442,1412.3,528.0,3267,right
62,1,binary,9,1,trial,2478993.0,2481410.0,2417.0,9,L,2480955,2481107,154,491.6,519.6,3397,left
62,1,binary,9,1,trial,2478993.0,2481410.0,2417.0,9,L,2481125,2481627,504,421.1,509.3,3402,left
62,1,binary,10,1,fixationCross,2482592.0,2485409.0,2817.0,10,L,2482237,2482349,114,1018.9,633.7,3809,NA
62,1,binary,10,1,trial,2482592.0,2485409.0,2817.0,10,L,2482371,2482767,398,989.0,556.5,3662,NA
62,1,binary,10,1,trial,2482592.0,2485409.0,2817.0,10,L,2482813,2482939,128,606.0,555.1,3657,left
62,1,binary,10,1,trial,2482592.0,2485409.0,2817.0,10,L,2482965,2483349,386,458.1,539.8,3377,left
62,1,binary,10,1,trial,2482592.0,2485409.0,2817.0,10,L,2483421,2483699,280,1362.2,541.1,3344,right
62,1,binary,10,1,trial,2482592.0,2485409.0,2817.0,10,L,2483719,2484521,804,1432.2,554.7,3256,right
62,1,binary,10,1,trial,2482592.0,2485409.0,2817.0,10,L,2484541,2484935,396,1329.3,528.6,3248,right
62,1,binary,10,1,trial,2482592.0,2485409.0,2817.0,10,L,2485007,2485401,396,476.7,590.1,3361,left
62,1,binary,10,1,trial,2482592.0,2485409.0,2817.0,10,L,2485425,2485611,188,429.8,490.2,3431,left
62,1,binary,10,1,postResponse,2482592.0,2485409.0,2817.0,10,L,2485707,2485743,38,1374.1,608.2,3425,right
62,1,binary,11,1,fixationCross,2486442.0,2488510.0,2068.0,11,L,2485819,2485929,112,1383.6,612.2,3472,right
62,1,binary,11,1,fixationCross,2486442.0,2488510.0,2068.0,11,L,2486169,2486365,198,993.4,570.2,3718,NA
62,1,binary,11,1,trial,2486442.0,2488510.0,2068.0,11,L,2486373,2486649,278,981.1,557.8,3669,NA
62,1,binary,11,1,trial,2486442.0,2488510.0,2068.0,11,L,2486695,2486877,184,1263.4,562.6,3536,right
62,1,binary,11,1,trial,2486442.0,2488510.0,2068.0,11,L,2486899,2487263,366,1350.8,500.7,3331,right
62,1,binary,11,1,trial,2486442.0,2488510.0,2068.0,11,L,2487329,2487567,240,611.5,520.5,3412,left
62,1,binary,11,1,trial,2486442.0,2488510.0,2068.0,11,L,2487591,2487849,260,466.6,501.3,3436,left
62,1,binary,11,1,trial,2486442.0,2488510.0,2068.0,11,L,2487921,2488261,342,1409.4,546.2,3370,right
62,1,binary,11,1,trial,2486442.0,2488510.0,2068.0,11,L,2488285,2488463,180,1526.5,501.0,3359,right
62,1,binary,11,1,trial,2486442.0,2488510.0,2068.0,11,L,2488475,2488809,336,1567.1,512.4,3367,right
62,1,binary,12,2,fixationCross,2489676.0,2493259.0,3583.0,12,L,2488917,2489033,118,1573.8,746.6,3429,NA
62,1,binary,12,2,fixationCross,2489676.0,2493259.0,3583.0,12,L,2489105,2489183,80,1102.2,580.0,3625,NA
62,1,binary,12,2,fixationCross,2489676.0,2493259.0,3583.0,12,L,2489229,2489367,140,1027.2,401.9,3682,NA
62,1,binary,12,2,fixationCross,2489676.0,2493259.0,3583.0,12,L,2489395,2489665,272,971.1,538.5,3754,NA
62,1,binary,12,2,trial,2489676.0,2493259.0,3583.0,12,L,2489675,2489847,174,980.2,562.1,3799,NA
62,1,binary,12,2,trial,2489676.0,2493259.0,3583.0,12,L,2489897,2490171,276,590.0,520.6,3689,left
62,1,binary,12,2,trial,2489676.0,2493259.0,3583.0,12,L,2490235,2490647,414,1336.0,552.1,3352,right
62,1,binary,12,2,trial,2489676.0,2493259.0,3583.0,12,L,2490667,2491011,346,1393.9,533.3,3323,right
62,1,binary,12,2,trial,2489676.0,2493259.0,3583.0,12,L,2491027,2491179,154,1340.2,550.0,3327,right
62,1,binary,12,2,trial,2489676.0,2493259.0,3583.0,12,L,2491257,2491465,210,524.6,548.8,3439,left
62,1,binary,12,2,trial,2489676.0,2493259.0,3583.0,12,L,2491485,2491833,350,517.6,500.2,3418,left
62,1,binary,12,2,trial,2489676.0,2493259.0,3583.0,12,L,2491865,2492239,376,417.7,614.3,3378,left
62,1,binary,12,2,trial,2489676.0,2493259.0,3583.0,12,L,2492267,2492545,280,557.9,622.0,3410,left
62,1,binary,12,2,trial,2489676.0,2493259.0,3583.0,12,L,2492611,2493345,736,1293.1,547.3,3321,right
62,1,binary,12,2,trial,2489676.0,2493259.0,3583.0,12,L,2493363,2493499,138,1335.8,509.4,3372,right
62,1,binary,13,1,fixationCross,2494310.0,2497443.0,3133.0,13,L,2493799,2493985,188,1159.9,661.7,3659,NA
62,1,binary,13,1,fixationCross,2494310.0,2497443.0,3133.0,13,L,2494031,2494189,160,947.5,448.0,3890,NA
62,1,binary,13,1,trial,2494310.0,2497443.0,3133.0,13,L,2494209,2494469,262,984.5,516.1,3721,NA
62,1,binary,13,1,trial,2494310.0,2497443.0,3133.0,13,L,2494517,2494661,146,579.4,502.0,3599,left
62,1,binary,13,1,trial,2494310.0,2497443.0,3133.0,13,L,2494681,2494841,162,510.4,491.1,3413,left
62,1,binary,13,1,trial,2494310.0,2497443.0,3133.0,13,L,2494859,2495177,320,501.9,435.2,3331,left
62,1,binary,13,1,trial,2494310.0,2497443.0,3133.0,13,L,2495249,2495409,162,1418.9,494.2,3249,right
62,1,binary,13,1,trial,2494310.0,2497443.0,3133.0,13,L,2495423,2495605,184,1434.2,514.6,3279,right
62,1,binary,13,1,trial,2494310.0,2497443.0,3133.0,13,L,2495627,2496021,396,1539.8,541.1,3290,right
62,1,binary,13,1,trial,2494310.0,2497443.0,3133.0,13,L,2496049,2496531,484,1309.7,486.5,3401,right
62,1,binary,13,1,trial,2494310.0,2497443.0,3133.0,13,L,2496545,2496697,154,1289.9,519.2,3448,right
62,1,binary,13,1,trial,2494310.0,2497443.0,3133.0,13,L,2496721,2496907,188,1413.1,534.5,3471,right
62,1,binary,13,1,trial,2494310.0,2497443.0,3133.0,13,L,2496983,2497373,392,508.0,485.4,3533,left
62,1,binary,13,1,trial,2494310.0,2497443.0,3133.0,13,L,2497385,2497693,310,480.1,503.1,3498,left
62,1,binary,14,1,fixationCross,2498560.0,2500342.0,1782.0,14,L,2497849,2497937,90,1122.9,588.9,3533,NA
62,1,binary,14,1,fixationCross,2498560.0,2500342.0,1782.0,14,L,2497963,2498091,130,1300.8,574.4,3535,right
62,1,binary,14,1,fixationCross,2498560.0,2500342.0,1782.0,14,L,2498139,2498259,122,1125.6,463.0,3628,NA
62,1,binary,14,1,fixationCross,2498560.0,2500342.0,1782.0,14,L,2498283,2498503,222,968.9,545.8,3724,NA
62,1,binary,14,1,trial,2498560.0,2500342.0,1782.0,14,L,2498515,2498713,200,996.5,563.8,3763,NA
62,1,binary,14,1,trial,2498560.0,2500342.0,1782.0,14,L,2498757,2498869,114,636.2,540.7,3719,left
62,1,binary,14,1,trial,2498560.0,2500342.0,1782.0,14,L,2498891,2499301,412,527.9,570.8,3414,left
62,1,binary,14,1,trial,2498560.0,2500342.0,1782.0,14,L,2499373,2499709,338,1404.5,584.2,3298,right
62,1,binary,14,1,trial,2498560.0,2500342.0,1782.0,14,L,2499729,2500597,870,1320.6,554.1,3391,right
62,1,binary,14,1,postResponse,2498560.0,2500342.0,1782.0,14,L,2500643,2500677,36,1399.2,709.4,3467,right
62,1,binary,15,2,fixationCross,2501476.0,2504810.0,3334.0,15,L,2500913,2501171,260,1083.0,496.5,3687,NA
62,1,binary,15,2,fixationCross,2501476.0,2504810.0,3334.0,15,L,2501187,2501315,130,1035.2,543.7,3737,NA
62,1,binary,15,2,trial,2501476.0,2504810.0,3334.0,15,L,2501333,2501669,338,973.0,568.3,3714,NA
62,1,binary,15,2,trial,2501476.0,2504810.0,3334.0,15,L,2501715,2501895,182,1239.7,607.1,3607,right
62,1,binary,15,2,trial,2501476.0,2504810.0,3334.0,15,L,2501915,2502165,252,1348.9,583.5,3317,right
62,1,binary,15,2,trial,2501476.0,2504810.0,3334.0,15,L,2502179,2502325,148,1412.2,612.5,3262,right
62,1,binary,15,2,trial,2501476.0,2504810.0,3334.0,15,L,2502395,2502611,218,585.3,549.4,3413,left
62,1,binary,15,2,trial,2501476.0,2504810.0,3334.0,15,L,2502635,2502771,138,486.2,551.7,3425,left
62,1,binary,15,2,trial,2501476.0,2504810.0,3334.0,15,L,2502795,2503305,512,653.5,492.9,3386,left
62,1,binary,15,2,trial,2501476.0,2504810.0,3334.0,15,L,2503365,2503571,208,1290.5,546.9,3309,right
62,1,binary,15,2,trial,2501476.0,2504810.0,3334.0,15,L,2503591,2503883,294,1365.0,551.1,3282,right
62,1,binary,15,2,trial,2501476.0,2504810.0,3334.0,15,L,2503907,2504103,198,1539.5,553.3,3259,right
62,1,binary,15,2,trial,2501476.0,2504810.0,3334.0,15,L,2504113,2504385,274,1552.7,536.4,3315,right
62,1,binary,15,2,trial,2501476.0,2504810.0,3334.0,15,L,2504413,2505003,592,1432.5,632.7,3359,right
62,1,binary,15,2,trial,2501476.0,2504810.0,3334.0,15,L,2505067,2505089,24,1160.8,728.7,3353,NA
62,1,binary,15,2,postResponse,2501476.0,2504810.0,3334.0,15,L,2505107,2505143,38,1042.7,799.3,3406,likertHorizontal
62,1,binary,16,2,fixationCross,2505709.0,2509193.0,3484.0,16,L,2505381,2505617,238,1036.8,538.7,3629,NA
62,1,binary,16,2,trial,2505709.0,2509193.0,3484.0,16,L,2505635,2505873,240,979.1,559.0,3759,NA
62,1,binary,16,2,trial,2505709.0,2509193.0,3484.0,16,L,2505921,2506095,176,593.7,566.8,3505,left
62,1,binary,16,2,trial,2505709.0,2509193.0,3484.0,16,L,2506117,2506363,248,513.9,555.6,3266,left
62,1,binary,16,2,trial,2505709.0,2509193.0,3484.0,16,L,2506431,2506589,160,1384.4,516.0,3159,right
62,1,binary,16,2,trial,2505709.0,2509193.0,3484.0,16,L,2506613,2506791,180,1555.0,515.0,3119,right
62,1,binary,16,2,trial,2505709.0,2509193.0,3484.0,16,L,2506829,2507303,476,1365.5,463.8,3166,right
62,1,binary,16,2,trial,2505709.0,2509193.0,3484.0,16,L,2507377,2507577,202,573.5,607.3,3364,left
62,1,binary,16,2,trial,2505709.0,2509193.0,3484.0,16,L,2507595,2507751,158,497.0,575.1,3387,left
62,1,binary,16,2,trial,2505709.0,2509193.0,3484.0,16,L,2507777,2508143,368,473.2,437.3,3366,left
62,1,binary,16,2,trial,2505709.0,2509193.0,3484.0,16,L,2508225,2508407,184,1498.6,582.2,3283,right
62,1,binary,16,2,trial,2505709.0,2509193.0,3484.0,16,L,2508427,2508573,148,1569.2,553.3,3270,right
62,1,binary,16,2,trial,2505709.0,2509193.0,3484.0,16,L,2508601,2509191,592,1549.1,683.3,3293,right
62,1,binary,16,2,trial,2505709.0,2509193.0,3484.0,16,L,2509237,2509417,182,1354.8,433.9,3308,right
62,1,binary,17,2,fixationCross,2510376.0,2512443.0,2067.0,17,L,2509627,2509669,44,971.9,620.3,3457,NA
62,1,binary,17,2,fixationCross,2510376.0,2512443.0,2067.0,17,L,2509693,2509837,146,1098.8,540.1,3550,NA
62,1,binary,17,2,fixationCross,2510376.0,2512443.0,2067.0,17,L,2509863,2510057,196,1240.3,484.2,3634,right
62,1,binary,17,2,trial,2510376.0,2512443.0,2067.0,17,L,2510101,2510521,422,992.6,552.1,3789,NA
62,1,binary,17,2,trial,2510376.0,2512443.0,2067.0,17,L,2510565,2510649,86,1291.3,536.1,3717,right
62,1,binary,17,2,trial,2510376.0,2512443.0,2067.0,17,L,2510723,2510943,222,536.2,560.9,3474,left
62,1,binary,17,2,trial,2510376.0,2512443.0,2067.0,17,L,2510963,2511105,144,489.0,526.6,3403,left
62,1,binary,17,2,trial,2510376.0,2512443.0,2067.0,17,L,2511131,2511433,304,548.9,602.1,3435,left
62,1,binary,17,2,trial,2510376.0,2512443.0,2067.0,17,L,2511507,2511667,162,1463.4,523.5,3537,right
62,1,binary,17,2,trial,2510376.0,2512443.0,2067.0,17,L,2511689,2512023,336,1587.7,499.1,3429,right
62,1,binary,17,2,trial,2510376.0,2512443.0,2067.0,17,L,2512065,2512387,324,1280.8,554.0,3514,right
62,1,binary,17,2,trial,2510376.0,2512443.0,2067.0,17,L,2512431,2512667,238,1572.8,527.3,3492,right
62,1,binary,18,2,fixationCross,2513543.0,2517109.0,3566.0,18,L,2512935,2513095,162,987.9,609.7,3684,NA
62,1,binary,18,2,fixationCross,2513543.0,2517109.0,3566.0,18,L,2513133,2513287,156,1140.4,509.1,3855,NA
62,1,binary,18,2,fixationCross,2513543.0,2517109.0,3566.0,18,L,2513317,2513453,138,981.9,542.2,3834,NA
62,1,binary,18,2,trial,2513543.0,2517109.0,3566.0,18,L,2513463,2513691,230,968.0,564.9,3697,NA
62,1,binary,18,2,trial,2513543.0,2517109.0,3566.0,18,L,2513739,2513851,114,669.6,542.8,3628,left
62,1,binary,18,2,trial,2513543.0,2517109.0,3566.0,18,L,2513889,2514133,246,511.9,546.3,3375,left
62,1,binary,18,2,trial,2513543.0,2517109.0,3566.0,18,L,2514145,2514269,126,482.8,546.3,3228,left
62,1,binary,18,2,trial,2513543.0,2517109.0,3566.0,18,L,2514339,2514633,296,1357.4,487.0,3073,right
62,1,binary,18,2,trial,2513543.0,2517109.0,3566.0,18,L,2514655,2514995,342,1469.2,508.2,3203,right
62,1,binary,18,2,trial,2513543.0,2517109.0,3566.0,18,L,2515073,2515425,354,498.5,564.6,3413,left
62,1,binary,18,2,trial,2513543.0,2517109.0,3566.0,18,L,2515445,2515761,318,464.6,476.9,3176,left
62,1,binary,18,2,trial,2513543.0,2517109.0,3566.0,18,L,2515775,2515951,178,455.2,429.1,3152,left
62,1,binary,18,2,trial,2513543.0,2517109.0,3566.0,18,L,2516025,2516353,330,1375.5,470.5,3158,right
62,1,binary,18,2,trial,2513543.0,2517109.0,3566.0,18,L,2516375,2516931,558,1304.4,413.1,3331,right
62,1,binary,18,2,trial,2513543.0,2517109.0,3566.0,18,L,2516959,2517419,462,1502.8,517.3,3381,right
62,1,binary,19,2,fixationCross,2518226.0,2521826.0,3600.0,19,L,2517517,2517649,134,1535.0,811.3,3433,NA
62,1,binary,19,2,fixationCross,2518226.0,2521826.0,3600.0,19,L,2517723,2517821,100,1184.2,547.1,3582,right
62,1,binary,19,2,fixationCross,2518226.0,2521826.0,3600.0,19,L,2517839,2517933,96,1181.5,495.4,3654,NA
62,1,binary,19,2,trial,2518226.0,2521826.0,3600.0,19,L,2517967,2518379,414,977.5,547.8,3793,NA
62,1,binary,19,2,trial,2518226.0,2521826.0,3600.0,19,L,2518435,2518631,198,637.1,551.6,3751,left
62,1,binary,19,2,trial,2518226.0,2521826.0,3600.0,19,L,2518653,2518789,138,556.7,545.7,3509,left
62,1,binary,19,2,trial,2518226.0,2521826.0,3600.0,19,L,2518815,2518993,180,604.8,434.2,3402,left
62,1,binary,19,2,trial,2518226.0,2521826.0,3600.0,19,L,2519003,2519269,268,629.9,419.6,3378,left
62,1,binary,19,2,trial,2518226.0,2521826.0,3600.0,19,L,2519337,2519481,146,1372.5,556.2,3421,right
62,1,binary,19,2,trial,2518226.0,2521826.0,3600.0,19,L,2519507,2519663,158,1450.4,644.7,3445,right
62,1,binary,19,2,trial,2518226.0,2521826.0,3600.0,19,L,2519677,2519913,238,1452.8,676.9,3434,right
62,1,binary,19,2,trial,2518226.0,2521826.0,3600.0,19,L,2519993,2520357,366,569.2,526.3,3476,left
62,1,binary,19,2,trial,2518226.0,2521826.0,3600.0,19,L,2520369,2520565,198,528.4,525.3,3413,left
62,1,binary,19,2,trial,2518226.0,2521826.0,3600.0,19,L,2520593,2520877,286,395.4,625.2,3390,left
62,1,binary,19,2,trial,2518226.0,2521826.0,3600.0,19,L,2520955,2521099,146,1392.6,553.6,3328,right
62,1,binary,19,2,trial,2518226.0,2521826.0,3600.0,19,L,2521117,2521387,272,1453.0,517.0,3244,right
62,1,binary,19,2,trial,2518226.0,2521826.0,3600.0,19,L,2521413,2521923,512,1466.4,646.8,3340,right
62,1,binary,19,2,trial,2518226.0,2521826.0,3600.0,19,L,2521941,2522077,138,1413.9,616.9,3429,right
62,1,binary,20,1,fixationCross,2522976.0,2525327.0,2351.0,20,L,2522379,2522427,50,1254.8,814.1,3629,NA
62,1,binary,20,1,fixationCross,2522976.0,2525327.0,2351.0,20,L,2522489,2522659,172,1155.4,411.6,3675,NA
62,1,binary,20,1,trial,2522976.0,2525327.0,2351.0,20,L,2522689,2523127,440,983.5,546.6,3705,NA
62,1,binary,20,1,trial,2522976.0,2525327.0,2351.0,20,L,2523173,2523453,282,1288.9,553.0,3547,right
62,1,binary,20,1,trial,2522976.0,2525327.0,2351.0,20,L,2523477,2523809,334,1395.5,586.8,3302,right
62,1,binary,20,1,trial,2522976.0,2525327.0,2351.0,20,L,2523823,2524175,354,1418.8,622.4,3354,right
62,1,binary,20,1,trial,2522976.0,2525327.0,2351.0,20,L,2524193,2524285,94,1396.9,575.0,3401,right
62,1,binary,20,1,trial,2522976.0,2525327.0,2351.0,20,L,2524351,2524533,184,708.4,578.9,3487,left
62,1,binary,20,1,trial,2522976.0,2525327.0,2351.0,20,L,2524557,2524859,304,524.0,603.0,3487,left
62,1,binary,20,1,trial,2522976.0,2525327.0,2351.0,20,L,2524885,2525213,330,702.2,564.5,3467,left
62,1,binary,20,1,trial,2522976.0,2525327.0,2351.0,20,L,2525273,2525565,294,1371.3,551.8,3411,right
62,1,binary,21,2,fixationCross,2526410.0,2528827.0,2417.0,21,L,2525863,2526093,232,1316.8,626.1,3612,right
62,1,binary,21,2,fixationCross,2526410.0,2528827.0,2417.0,21,L,2526143,2526405,264,954.0,572.6,3765,NA
62,1,binary,21,2,trial,2526410.0,2528827.0,2417.0,21,L,2526415,2526607,194,989.8,569.0,3601,NA
62,1,binary,21,2,trial,2526410.0,2528827.0,2417.0,21,L,2526659,2526817,160,552.3,511.6,3497,left
62,1,binary,21,2,trial,2526410.0,2528827.0,2417.0,21,L,2526841,2527199,360,440.9,473.2,3186,left
62,1,binary,21,2,trial,2526410.0,2528827.0,2417.0,21,L,2527209,2527417,210,399.6,464.7,3222,left
62,1,binary,21,2,trial,2526410.0,2528827.0,2417.0,21,L,2527443,2527585,144,588.4,459.4,3302,left
62,1,binary,21,2,trial,2526410.0,2528827.0,2417.0,21,L,2527651,2527771,122,1400.3,528.8,3280,right
62,1,binary,21,2,trial,2526410.0,2528827.0,2417.0,21,L,2527795,2528241,448,1505.6,579.5,3230,right
62,1,binary,21,2,trial,2526410.0,2528827.0,2417.0,21,L,2528261,2528787,528,1428.3,631.3,3273,right
62,1,binary,21,2,trial,2526410.0,2528827.0,2417.0,21,L,2528805,2529091,288,1482.7,587.9,3319,right
62,1,binary,21,2,postResponse,2526410.0,2528827.0,2417.0,21,L,2529129,2529159,32,1258.5,645.0,3353,right
62,1,binary,22,1,fixationCross,2529709.0,2531694.0,1985.0,22,L,2529233,2529305,74,1252.3,650.4,3371,right
62,1,binary,22,1,fixationCross,2529709.0,2531694.0,1985.0,22,L,2529345,2529599,256,1053.1,519.0,3531,NA
62,1,binary,22,1,trial,2529709.0,2531694.0,1985.0,22,L,2529619,2529853,236,955.3,560.5,3595,NA
62,1,binary,22,1,trial,2529709.0,2531694.0,1985.0,22,L,2529899,2530111,214,625.9,552.0,3577,left
62,1,binary,22,1,trial,2529709.0,2531694.0,1985.0,22,L,2530131,2530349,220,556.1,520.5,3327,left
62,1,binary,22,1,trial,2529709.0,2531694.0,1985.0,22,L,2530373,2530497,126,718.1,502.7,3285,left
62,1,binary,22,1,trial,2529709.0,2531694.0,1985.0,22,L,2530555,2530763,210,1351.8,477.0,3248,right
62,1,binary,22,1,trial,2529709.0,2531694.0,1985.0,22,L,2530785,2531241,458,1420.8,514.8,3259,right
62,1,binary,22,1,trial,2529709.0,2531694.0,1985.0,22,L,2531315,2531647,334,677.7,590.9,3469,left
62,1,binary,22,1,trial,2529709.0,2531694.0,1985.0,22,L,2531667,2531889,224,596.2,599.7,3583,left
62,1,binary,23,2,fixationCross,2532810.0,2536160.0,3350.0,23,L,2532195,2532381,188,1063.1,1023.7,3733,likertHorizontal
62,1,binary,23,2,fixationCross,2532810.0,2536160.0,3350.0,23,L,2532405,2532465,62,977.0,1110.6,3769,likertHorizontal
62,1,binary,23,2,fixationCross,2532810.0,2536160.0,3350.0,23,L,2532533,2532675,144,1011.5,580.9,3852,NA
62,1,binary,23,2,trial,2532810.0,2536160.0,3350.0,23,L,2532693,2532953,262,971.8,580.7,3772,NA
62,1,binary,23,2,trial,2532810.0,2536160.0,3350.0,23,L,2532997,2533223,228,612.6,548.5,3713,left
62,1,binary,23,2,trial,2532810.0,2536160.0,3350.0,23,L,2533243,2533631,390,541.1,522.7,3468,left
62,1,binary,23,2,trial,2532810.0,2536160.0,3350.0,23,L,2533701,2533827,128,1344.7,505.6,3402,right
62,1,binary,23,2,trial,2532810.0,2536160.0,3350.0,23,L,2533851,2534023,174,1499.1,504.2,3382,right
62,1,binary,23,2,trial,2532810.0,2536160.0,3350.0,23,L,2534039,2534331,294,1540.9,522.1,3403,right
62,1,binary,23,2,trial,2532810.0,2536160.0,3350.0,23,L,2534345,2534593,250,1484.3,507.0,3415,right
62,1,binary,23,2,trial,2532810.0,2536160.0,3350.0,23,L,2534607,2535203,598,1528.3,521.3,3458,right
62,1,binary,23,2,trial,2532810.0,2536160.0,3350.0,23,L,2535297,2535573,278,474.8,536.2,3518,left
62,1,binary,23,2,trial,2532810.0,2536160.0,3350.0,23,L,2535591,2536401,812,566.2,520.0,3513,left
62,1,binary,24,1,fixationCross,2537226.0,2538876.0,1650.0,24,L,2536593,2536687,96,1131.2,631.4,3550,NA
62,1,binary,24,1,fixationCross,2537226.0,2538876.0,1650.0,24,L,2536717,2536919,204,1230.2,521.7,3626,right
62,1,binary,24,1,trial,2537226.0,2538876.0,1650.0,24,L,2536957,2537387,432,983.6,574.3,3720,NA
62,1,binary,24,1,trial,2537226.0,2538876.0,1650.0,24,L,2537431,2537613,184,660.1,568.4,3603,left
62,1,binary,24,1,trial,2537226.0,2538876.0,1650.0,24,L,2537639,2537791,154,538.0,541.1,3397,left
62,1,binary,24,1,trial,2537226.0,2538876.0,1650.0,24,L,2537807,2537903,98,494.9,527.5,3378,left
62,1,binary,24,1,trial,2537226.0,2538876.0,1650.0,24,L,2537987,2538361,376,1463.3,518.0,3282,right
62,1,binary,24,1,trial,2537226.0,2538876.0,1650.0,24,L,2538381,2539115,736,1424.2,450.8,3336,right
62,1,binary,24,1,postResponse,2537226.0,2538876.0,1650.0,24,L,2539143,2539209,68,1572.7,560.5,3342,right
62,1,binary,25,2,fixationCross,2539910.0,2545276.0,5366.0,25,L,2539283,2539389,108,1582.0,573.2,3381,right
62,1,binary,25,2,fixationCross,2539910.0,2545276.0,5366.0,25,L,2539439,2539599,162,1283.6,563.2,3582,right
62,1,binary,25,2,trial,2539910.0,2545276.0,5366.0,25,L,2539645,2540103,460,960.7,568.4,3688,NA
62,1,binary,25,2,trial,2539910.0,2545276.0,5366.0,25,L,2540153,2540339,188,578.0,531.1,3551,left
62,1,binary,25,2,trial,2539910.0,2545276.0,5366.0,25,L,2540361,2540533,174,486.9,576.5,3415,left
62,1,binary,25,2,trial,2539910.0,2545276.0,5366.0,25,L,2540603,2540771,170,1381.3,521.0,3302,right
62,1,binary,25,2,trial,2539910.0,2545276.0,5366.0,25,L,2540791,2541097,308,1436.0,496.3,3270,right
62,1,binary,25,2,trial,2539910.0,2545276.0,5366.0,25,L,2541113,2542047,936,1426.5,530.1,3377,right
62,1,binary,25,2,trial,2539910.0,2545276.0,5366.0,25,L,2542213,2542431,220,529.3,576.1,3618,left
62,1,binary,25,2,trial,2539910.0,2545276.0,5366.0,25,L,2542449,2542795,348,472.5,606.8,3575,left
62,1,binary,25,2,trial,2539910.0,2545276.0,5366.0,25,L,2542871,2543171,302,1406.7,554.2,3437,right
62,1,binary,25,2,trial,2539910.0,2545276.0,5366.0,25,L,2543189,2543681,494,1421.9,516.8,3501,right
62,1,binary,25,2,trial,2539910.0,2545276.0,5366.0,25,L,2543703,2543913,212,1395.4,573.0,3554,right
62,1,binary,25,2,trial,2539910.0,2545276.0,5366.0,25,L,2543989,2544161,174,576.4,554.9,3753,left
62,1,binary,25,2,trial,2539910.0,2545276.0,5366.0,25,L,2544183,2544751,570,485.6,592.9,3613,left
62,1,binary,25,2,trial,2539910.0,2545276.0,5366.0,25,L,2544823,2545285,464,1414.6,560.1,3598,right
62,1,binary,25,2,trial,2539910.0,2545276.0,5366.0,25,L,2545371,2545523,154,499.4,547.2,3715,left
62,1,binary,26,1,fixationCross,2597127.0,2599510.0,2383.0,26,L,2596374,2596608,236,983.3,53.5,3345,NA
62,1,binary,26,1,fixationCross,2597127.0,2599510.0,2383.0,26,L,2596714,2596814,102,1257.3,774.0,3568,NA
62,1,binary,26,1,fixationCross,2597127.0,2599510.0,2383.0,26,L,2596862,2596972,112,975.1,615.5,3678,NA
62,1,binary,26,1,trial,2597127.0,2599510.0,2383.0,26,L,2596994,2597278,286,959.7,558.1,3762,NA
62,1,binary,26,1,trial,2597127.0,2599510.0,2383.0,26,L,2597324,2597540,218,538.8,489.8,3705,left
62,1,binary,26,1,trial,2597127.0,2599510.0,2383.0,26,L,2597594,2597728,136,477.6,971.6,3416,NA
62,1,binary,26,1,trial,2597127.0,2599510.0,2383.0,26,L,2597746,2597888,144,481.3,1019.8,3407,NA
62,1,binary,26,1,trial,2597127.0,2599510.0,2383.0,26,L,2597950,2598186,238,469.5,541.0,3424,left
62,1,binary,26,1,trial,2597127.0,2599510.0,2383.0,26,L,2598264,2598482,220,1315.1,629.8,3362,right
62,1,binary,26,1,trial,2597127.0,2599510.0,2383.0,26,L,2598506,2598804,300,1416.7,599.9,3395,right
62,1,binary,26,1,trial,2597127.0,2599510.0,2383.0,26,L,2598832,2598992,162,1599.9,592.3,3323,right
62,1,binary,26,1,trial,2597127.0,2599510.0,2383.0,26,L,2599006,2599748,744,1639.9,602.7,3351,right
62,1,binary,27,1,fixationCross,2600577.0,2603861.0,3284.0,27,L,2599920,2600044,126,1300.8,646.7,3539,right
62,1,binary,27,1,fixationCross,2600577.0,2603861.0,3284.0,27,L,2600084,2600264,182,1137.8,572.6,3669,NA
62,1,binary,27,1,trial,2600577.0,2603861.0,3284.0,27,L,2600292,2600768,478,964.8,559.1,3641,NA
62,1,binary,27,1,trial,2600577.0,2603861.0,3284.0,27,L,2600814,2601254,442,1304.6,550.9,3392,right
62,1,binary,27,1,trial,2600577.0,2603861.0,3284.0,27,L,2601336,2601452,118,451.3,472.3,3370,left
62,1,binary,27,1,trial,2600577.0,2603861.0,3284.0,27,L,2601468,2602094,628,401.7,447.8,3328,left
62,1,binary,27,1,trial,2600577.0,2603861.0,3284.0,27,L,2602136,2602456,322,428.4,662.4,3404,left
62,1,binary,27,1,trial,2600577.0,2603861.0,3284.0,27,L,2602532,2602876,346,1336.2,574.2,3358,right
62,1,binary,27,1,trial,2600577.0,2603861.0,3284.0,27,L,2602896,2603064,170,1273.1,559.5,3263,right
62,1,binary,27,1,trial,2600577.0,2603861.0,3284.0,27,L,2603106,2603406,302,1569.9,515.0,3190,right
62,1,binary,27,1,trial,2600577.0,2603861.0,3284.0,27,L,2603472,2603816,346,972.9,597.8,3382,NA
62,1,binary,27,1,trial,2600577.0,2603861.0,3284.0,27,L,2603874,2604056,184,1463.2,580.1,3480,right
62,1,binary,28,2,fixationCross,2605011.0,2608777.0,3766.0,28,L,2604274,2604322,50,1761.2,931.9,3505,NA
62,1,binary,28,2,fixationCross,2605011.0,2608777.0,3766.0,28,L,2604574,2604692,120,1105.0,676.3,3645,NA
62,1,binary,28,2,fixationCross,2605011.0,2608777.0,3766.0,28,L,2604720,2604878,160,997.5,577.5,3608,NA
62,1,binary,28,2,trial,2605011.0,2608777.0,3766.0,28,L,2604894,2605168,276,965.6,560.2,3585,NA
62,1,binary,28,2,trial,2605011.0,2608777.0,3766.0,28,L,2605224,2605384,162,604.6,509.8,3603,left
62,1,binary,28,2,trial,2605011.0,2608777.0,3766.0,28,L,2605406,2605730,326,536.9,539.0,3372,left
62,1,binary,28,2,trial,2605011.0,2608777.0,3766.0,28,L,2605794,2606032,240,1292.0,522.5,3310,right
62,1,binary,28,2,trial,2605011.0,2608777.0,3766.0,28,L,2606058,2606220,164,1434.4,502.9,3258,right
62,1,binary,28,2,trial,2605011.0,2608777.0,3766.0,28,L,2606242,2606470,230,1470.1,456.3,3239,right
62,1,binary,28,2,trial,2605011.0,2608777.0,3766.0,28,L,2606490,2606796,308,1546.3,437.3,3254,right
62,1,binary,28,2,trial,2605011.0,2608777.0,3766.0,28,L,2606870,2607082,214,603.8,552.4,3341,left
62,1,binary,28,2,trial,2605011.0,2608777.0,3766.0,28,L,2607104,2607332,230,486.2,539.1,3344,left
62,1,binary,28,2,trial,2605011.0,2608777.0,3766.0,28,L,2607356,2607628,274,431.9,457.8,3307,left
62,1,binary,28,2,trial,2605011.0,2608777.0,3766.0,28,L,2607656,2607822,168,625.1,488.3,3289,left
62,1,binary,28,2,trial,2605011.0,2608777.0,3766.0,28,L,2607886,2608166,282,1350.7,464.6,3252,right
62,1,binary,28,2,trial,2605011.0,2608777.0,3766.0,28,L,2608188,2608418,232,1418.2,507.8,3301,right
62,1,binary,28,2,trial,2605011.0,2608777.0,3766.0,28,L,2608428,2608678,252,1425.4,483.6,3339,right
62,1,binary,28,2,trial,2605011.0,2608777.0,3766.0,28,L,2608702,2608950,250,1591.2,445.6,3224,right
62,1,binary,29,2,fixationCross,2609710.0,2611960.0,2250.0,29,L,2609326,2609388,64,743.8,504.3,3478,NA
62,1,binary,29,2,fixationCross,2609710.0,2611960.0,2250.0,29,L,2609414,2609688,276,946.0,509.9,3657,NA
62,1,binary,29,2,trial,2609710.0,2611960.0,2250.0,29,L,2609702,2609862,162,958.6,541.9,3634,NA
62,1,binary,29,2,trial,2609710.0,2611960.0,2250.0,29,L,2609920,2610078,160,584.9,535.1,3491,left
62,1,binary,29,2,trial,2609710.0,2611960.0,2250.0,29,L,2610098,2610264,168,571.6,581.6,3289,left
62,1,binary,29,2,trial,2609710.0,2611960.0,2250.0,29,L,2610278,2610438,162,599.2,558.3,3254,left
62,1,binary,29,2,trial,2609710.0,2611960.0,2250.0,29,L,2610498,2610700,204,1267.7,534.8,3244,right
62,1,binary,29,2,trial,2609710.0,2611960.0,2250.0,29,L,2610714,2610906,194,1285.9,529.0,3248,right
62,1,binary,29,2,trial,2609710.0,2611960.0,2250.0,29,L,2610930,2611294,366,1466.7,557.8,3230,right
62,1,binary,29,2,trial,2609710.0,2611960.0,2250.0,29,L,2611372,2611964,594,535.2,527.7,3399,left
62,1,binary,29,2,trial,2609710.0,2611960.0,2250.0,29,L,2611982,2612142,162,597.3,549.3,3461,left
62,1,binary,30,2,fixationCross,2613011.0,2614928.0,1917.0,30,L,2612534,2612716,184,1130.6,626.8,3586,NA
62,1,binary,30,2,trial,2613011.0,2614928.0,1917.0,30,L,2612742,2613018,278,971.4,541.0,3606,NA
62,1,binary,30,2,trial,2613011.0,2614928.0,1917.0,30,L,2613026,2613192,168,958.9,550.9,3596,NA
62,1,binary,30,2,trial,2613011.0,2614928.0,1917.0,30,L,2613234,2613432,200,1211.1,540.0,3529,right
62,1,binary,30,2,trial,2613011.0,2614928.0,1917.0,30,L,2613454,2613662,210,1284.6,563.4,3371,right
62,1,binary,30,2,trial,2613011.0,2614928.0,1917.0,30,L,2613728,2614012,286,505.8,584.3,3411,left
62,1,binary,30,2,trial,2613011.0,2614928.0,1917.0,30,L,2614026,2614226,202,463.9,584.5,3391,left
62,1,binary,30,2,trial,2613011.0,2614928.0,1917.0,30,L,2614234,2614346,114,436.6,598.3,3403,left
62,1,binary,30,2,trial,2613011.0,2614928.0,1917.0,30,L,2614418,2614650,234,1301.1,599.9,3472,right
62,1,binary,30,2,trial,2613011.0,2614928.0,1917.0,30,L,2614680,2614812,134,1456.8,581.1,3442,right
62,1,binary,30,2,trial,2613011.0,2614928.0,1917.0,30,L,2614832,2615144,314,1585.5,539.3,3284,right
62,1,binary,31,2,fixationCross,2616044.0,2618644.0,2600.0,31,L,2615434,2615640,208,1100.8,647.2,3533,NA
62,1,binary,31,2,fixationCross,2616044.0,2618644.0,2600.0,31,L,2615660,2615726,68,1136.9,604.7,3731,NA
62,1,binary,31,2,fixationCross,2616044.0,2618644.0,2600.0,31,L,2615760,2616020,262,965.8,569.6,3671,NA
62,1,binary,31,2,trial,2616044.0,2618644.0,2600.0,31,L,2616034,2616196,164,943.2,555.9,3561,NA
62,1,binary,31,2,trial,2616044.0,2618644.0,2600.0,31,L,2616244,2616478,236,569.2,530.3,3509,left
62,1,binary,31,2,trial,2616044.0,2618644.0,2600.0,31,L,2616500,2616598,100,508.9,574.4,3358,left
62,1,binary,31,2,trial,2616044.0,2618644.0,2600.0,31,L,2616620,2616900,282,433.6,478.3,3288,left
62,1,binary,31,2,trial,2616044.0,2618644.0,2600.0,31,L,2616974,2617114,142,1415.7,542.3,3242,right
62,1,binary,31,2,trial,2616044.0,2618644.0,2600.0,31,L,2617134,2617422,290,1462.9,561.8,3307,right
62,1,binary,31,2,trial,2616044.0,2618644.0,2600.0,31,L,2617446,2617556,112,1327.7,479.5,3271,right
62,1,binary,31,2,trial,2616044.0,2618644.0,2600.0,31,L,2617598,2617950,354,1649.4,477.0,3206,right
62,1,binary,31,2,trial,2616044.0,2618644.0,2600.0,31,L,2618046,2618248,204,588.5,545.1,3447,left
62,1,binary,31,2,trial,2616044.0,2618644.0,2600.0,31,L,2618262,2618642,382,568.9,527.1,3417,left
62,1,binary,31,2,trial,2616044.0,2618644.0,2600.0,31,L,2618666,2618864,200,479.4,477.9,3347,left
62,1,binary,32,1,fixationCross,2619761.0,2623778.0,4017.0,32,L,2619076,2619430,356,1251.5,554.0,3479,right
62,1,binary,32,1,fixationCross,2619761.0,2623778.0,4017.0,32,L,2619464,2619622,160,1029.4,595.4,3595,NA
62,1,binary,32,1,trial,2619761.0,2623778.0,4017.0,32,L,2619644,2619926,284,952.6,560.1,3535,NA
62,1,binary,32,1,trial,2619761.0,2623778.0,4017.0,32,L,2619974,2620206,234,1308.7,550.5,3382,right
62,1,binary,32,1,trial,2619761.0,2623778.0,4017.0,32,L,2620228,2620390,164,1413.9,531.7,3139,right
62,1,binary,32,1,trial,2619761.0,2623778.0,4017.0,32,L,2620456,2620574,120,699.3,505.6,3255,left
62,1,binary,32,1,trial,2619761.0,2623778.0,4017.0,32,L,2620602,2620878,278,554.8,516.5,3307,left
62,1,binary,32,1,trial,2619761.0,2623778.0,4017.0,32,L,2620898,2621714,818,516.6,504.9,3310,left
62,1,binary,32,1,trial,2619761.0,2623778.0,4017.0,32,L,2621740,2621938,200,623.3,538.5,3377,left
62,1,binary,32,1,trial,2619761.0,2623778.0,4017.0,32,L,2622010,2622268,260,1453.1,547.0,3318,right
62,1,binary,32,1,trial,2619761.0,2623778.0,4017.0,32,L,2622290,2622524,236,1578.8,548.0,3219,right
62,1,binary,32,1,trial,2619761.0,2623778.0,4017.0,32,L,2622540,2622782,244,1527.9,550.0,3262,right
62,1,binary,32,1,trial,2619761.0,2623778.0,4017.0,32,L,2622864,2623432,570,519.0,540.4,3380,left
62,1,binary,32,1,trial,2619761.0,2623778.0,4017.0,32,L,2623462,2623838,378,544.7,731.6,3432,left
62,1,binary,32,1,trial,2619761.0,2623778.0,4017.0,32,L,2623906,2624020,116,1389.2,569.2,3356,right
62,1,binary,33,1,fixationCross,2624994.0,2628378.0,3384.0,33,L,2624374,2624506,134,1063.2,438.0,3601,NA
62,1,binary,33,1,fixationCross,2624994.0,2628378.0,3384.0,33,L,2624532,2624672,142,1155.2,507.2,3769,NA
62,1,binary,33,1,trial,2624994.0,2628378.0,3384.0,33,L,2624708,2625140,434,969.2,546.2,3557,NA
62,1,binary,33,1,trial,2624994.0,2628378.0,3384.0,33,L,2625182,2625310,130,649.2,524.1,3440,left
62,1,binary,33,1,trial,2624994.0,2628378.0,3384.0,33,L,2625338,2625460,124,514.7,506.0,3323,left
62,1,binary,33,1,trial,2624994.0,2628378.0,3384.0,33,L,2625484,2625808,326,653.7,556.1,3286,left
62,1,binary,33,1,trial,2624994.0,2628378.0,3384.0,33,L,2625870,2626156,288,1370.5,497.2,3304,right
62,1,binary,33,1,trial,2624994.0,2628378.0,3384.0,33,L,2626186,2626392,208,1559.4,527.6,3259,right
62,1,binary,33,1,trial,2624994.0,2628378.0,3384.0,33,L,2626408,2626578,172,1515.8,504.0,3278,right
62,1,binary,33,1,trial,2624994.0,2628378.0,3384.0,33,L,2626606,2626868,264,1660.3,593.9,3301,right
62,1,binary,33,1,trial,2624994.0,2628378.0,3384.0,33,L,2626882,2627108,228,1676.9,612.4,3410,right
62,1,binary,33,1,trial,2624994.0,2628378.0,3384.0,33,L,2627134,2627294,162,1666.2,494.1,3379,right
62,1,binary,33,1,trial,2624994.0,2628378.0,3384.0,33,L,2627314,2627454,142,1588.7,499.6,3372,right
62,1,binary,33,1,trial,2624994.0,2628378.0,3384.0,33,L,2627478,2627626,150,1473.6,503.4,3401,right
62,1,binary,33,1,trial,2624994.0,2628378.0,3384.0,33,L,2627706,2627878,174,461.2,518.9,3554,left
62,1,binary,33,1,trial,2624994.0,2628378.0,3384.0,33,L,2627890,2628130,242,427.4,520.9,3462,left
62,1,binary,33,1,trial,2624994.0,2628378.0,3384.0,33,L,2628158,2628424,268,621.5,562.9,3410,left
62,1,binary,33,1,trial,2624994.0,2628378.0,3384.0,33,L,2628434,2628572,140,650.1,578.5,3457,left
62,1,binary,34,1,fixationCross,2629428.0,2631494.0,2066.0,34,L,2629000,2629112,114,1295.6,473.7,3579,right
62,1,binary,34,1,fixationCross,2629428.0,2631494.0,2066.0,34,L,2629154,2629272,120,1048.2,521.4,3787,NA
62,1,binary,34,1,trial,2629428.0,2631494.0,2066.0,34,L,2629294,2629586,294,968.2,543.2,3683,NA
62,1,binary,34,1,trial,2629428.0,2631494.0,2066.0,34,L,2629632,2629772,142,650.0,557.8,3486,left
62,1,binary,34,1,trial,2629428.0,2631494.0,2066.0,34,L,2629816,2630114,300,384.4,459.1,3215,left
62,1,binary,34,1,trial,2629428.0,2631494.0,2066.0,34,L,2630186,2630430,246,1357.7,491.3,3115,right
62,1,binary,34,1,trial,2629428.0,2631494.0,2066.0,34,L,2630458,2630656,200,1487.4,510.6,3148,right
62,1,binary,34,1,trial,2629428.0,2631494.0,2066.0,34,L,2630672,2630872,202,1423.1,535.4,3169,right
62,1,binary,34,1,trial,2629428.0,2631494.0,2066.0,34,L,2630884,2631444,562,1438.3,556.8,3178,right
62,1,binary,34,1,postResponse,2629428.0,2631494.0,2066.0,34,L,2631466,2631826,362,1549.0,513.8,3172,right
62,1,binary,35,1,fixationCross,2632594.0,2635061.0,2467.0,35,L,2631950,2632088,140,1039.7,699.0,3397,NA
62,1,binary,35,1,fixationCross,2632594.0,2635061.0,2467.0,35,L,2632122,2632234,114,955.0,551.5,3487,NA
62,1,binary,35,1,fixationCross,2632594.0,2635061.0,2467.0,35,L,2632260,2632418,160,1020.2,435.8,3543,NA
62,1,binary,35,1,trial,2632594.0,2635061.0,2467.0,35,L,2632446,2632748,304,958.4,545.7,3547,NA
62,1,binary,35,1,trial,2632594.0,2635061.0,2467.0,35,L,2632794,2633016,224,577.2,520.4,3493,left
62,1,binary,35,1,trial,2632594.0,2635061.0,2467.0,35,L,2633030,2633366,338,526.4,511.3,3151,left
62,1,binary,35,1,trial,2632594.0,2635061.0,2467.0,35,L,2633438,2633708,272,1413.4,486.5,3071,right
62,1,binary,35,1,trial,2632594.0,2635061.0,2467.0,35,L,2633730,2633854,126,1489.8,461.8,3060,right
62,1,binary,35,1,trial,2632594.0,2635061.0,2467.0,35,L,2633880,2634556,678,1293.1,545.0,3234,right
62,1,binary,35,1,trial,2632594.0,2635061.0,2467.0,35,L,2634626,2635218,594,599.4,548.7,3402,left
62,1,binary,36,1,fixationCross,2635961.0,2638811.0,2850.0,36,L,2635644,2635874,232,1039.6,560.0,3746,NA
62,1,binary,36,1,trial,2635961.0,2638811.0,2850.0,36,L,2635894,2636108,216,962.3,567.6,3841,NA
62,1,binary,36,1,trial,2635961.0,2638811.0,2850.0,36,L,2636164,2636398,236,612.8,528.4,3472,left
62,1,binary,36,1,trial,2635961.0,2638811.0,2850.0,36,L,2636418,2636662,246,510.6,566.4,3226,left
62,1,binary,36,1,trial,2635961.0,2638811.0,2850.0,36,L,2636692,2637244,554,642.3,435.8,3255,left
62,1,binary,36,1,trial,2635961.0,2638811.0,2850.0,36,L,2637306,2637556,252,1314.7,462.0,3278,right
62,1,binary,36,1,trial,2635961.0,2638811.0,2850.0,36,L,2637598,2637920,324,1472.7,558.7,3209,right
62,1,binary,36,1,trial,2635961.0,2638811.0,2850.0,36,L,2637938,2638656,720,1468.2,477.8,3177,right
62,1,binary,36,1,trial,2635961.0,2638811.0,2850.0,36,L,2638724,2639038,316,692.1,534.7,3345,left
62,1,binary,37,2,fixationCross,2639794.0,2641528.0,1734.0,37,L,2639218,2639444,228,1577.1,457.4,3218,right
62,1,binary,37,2,fixationCross,2639794.0,2641528.0,1734.0,37,L,2639522,2639686,166,1000.6,580.2,3456,NA
62,1,binary,37,2,trial,2639794.0,2641528.0,1734.0,37,L,2639704,2639972,270,958.2,540.4,3426,NA
62,1,binary,37,2,trial,2639794.0,2641528.0,1734.0,37,L,2640020,2640328,310,1312.6,529.7,3320,right
62,1,binary,37,2,trial,2639794.0,2641528.0,1734.0,37,L,2640350,2640684,336,1399.9,467.9,3144,right
62,1,binary,37,2,trial,2639794.0,2641528.0,1734.0,37,L,2640770,2640896,128,603.5,551.2,3342,left
62,1,binary,37,2,trial,2639794.0,2641528.0,1734.0,37,L,2640920,2641150,232,503.0,571.0,3369,left
62,1,binary,37,2,trial,2639794.0,2641528.0,1734.0,37,L,2641160,2641620,462,508.2,549.0,3331,left
62,1,binary,37,2,postResponse,2639794.0,2641528.0,1734.0,37,L,2641676,2641844,170,1105.9,491.9,3431,NA
62,1,binary,38,2,fixationCross,2642645.0,2645411.0,2766.0,38,L,2641934,2642172,240,1221.6,569.4,3521,right
62,1,binary,38,2,fixationCross,2642645.0,2645411.0,2766.0,38,L,2642208,2642334,128,1098.2,517.7,3703,NA
62,1,binary,38,2,trial,2642645.0,2645411.0,2766.0,38,L,2642360,2642800,442,963.7,548.0,3658,NA
62,1,binary,38,2,trial,2642645.0,2645411.0,2766.0,38,L,2642858,2643038,182,1363.1,552.6,3436,right
62,1,binary,38,2,trial,2642645.0,2645411.0,2766.0,38,L,2643052,2643236,186,1417.9,527.9,3156,right
62,1,binary,38,2,trial,2642645.0,2645411.0,2766.0,38,L,2643260,2643378,120,1540.7,575.7,3113,right
62,1,binary,38,2,trial,2642645.0,2645411.0,2766.0,38,L,2643454,2643654,202,656.5,568.8,3262,left
62,1,binary,38,2,trial,2642645.0,2645411.0,2766.0,38,L,2643678,2643898,222,550.5,572.6,3233,left
62,1,binary,38,2,trial,2642645.0,2645411.0,2766.0,38,L,2643918,2644320,404,482.5,529.4,3116,left
62,1,binary,38,2,trial,2642645.0,2645411.0,2766.0,38,L,2644388,2644550,164,1376.7,523.5,2932,right
62,1,binary,38,2,trial,2642645.0,2645411.0,2766.0,38,L,2644566,2644756,192,1436.0,511.3,2979,right
62,1,binary,38,2,trial,2642645.0,2645411.0,2766.0,38,L,2644780,2645318,540,1537.9,573.8,3176,right
62,1,binary,38,2,trial,2642645.0,2645411.0,2766.0,38,L,2645342,2645628,288,1422.4,528.0,3247,right
62,1,binary,39,1,fixationCross,2646511.0,2649777.0,3266.0,39,L,2645950,2646208,260,1130.7,546.2,3510,NA
62,1,binary,39,1,trial,2646511.0,2649777.0,3266.0,39,L,2646232,2646676,446,974.3,562.3,3509,NA
62,1,binary,39,1,trial,2646511.0,2649777.0,3266.0,39,L,2646726,2648802,2078,535.3,504.3,3370,left
62,1,binary,39,1,trial,2646511.0,2649777.0,3266.0,39,L,2648882,2649170,290,1414.3,502.2,3379,right
62,1,binary,39,1,trial,2646511.0,2649777.0,3266.0,39,L,2649194,2649506,314,1516.1,506.2,3241,right
62,1,binary,39,1,trial,2646511.0,2649777.0,3266.0,39,L,2649582,2649778,198,561.6,546.3,3438,left
62,1,binary,39,1,trial,2646511.0,2649777.0,3266.0,39,L,2649796,2649954,160,540.8,517.6,3437,left
62,1,binary,40,1,fixationCross,2650928.0,2653078.0,2150.0,40,L,2650292,2650436,146,1215.5,542.5,3514,right
62,1,binary,40,1,fixationCross,2650928.0,2653078.0,2150.0,40,L,2650462,2650624,164,1053.9,484.3,3735,NA
62,1,binary,40,1,trial,2650928.0,2653078.0,2150.0,40,L,2650648,2650974,328,955.1,537.6,3622,NA
62,1,binary,40,1,trial,2650928.0,2653078.0,2150.0,40,L,2650988,2651096,110,992.9,548.7,3535,NA
62,1,binary,40,1,trial,2650928.0,2653078.0,2150.0,40,L,2651158,2651474,318,582.4,490.9,3401,left
62,1,binary,40,1,trial,2650928.0,2653078.0,2150.0,40,L,2651502,2651686,186,544.5,640.6,3226,left
62,1,binary,40,1,trial,2650928.0,2653078.0,2150.0,40,L,2651756,2652024,270,1359.8,511.1,3149,right
62,1,binary,40,1,trial,2650928.0,2653078.0,2150.0,40,L,2652046,2652416,372,1459.6,471.6,3059,right
62,1,binary,40,1,trial,2650928.0,2653078.0,2150.0,40,L,2652488,2652800,314,641.2,555.4,3223,left
62,1,binary,40,1,trial,2650928.0,2653078.0,2150.0,40,L,2652822,2653262,442,564.7,607.2,3285,left
62,1,binary,40,1,postResponse,2650928.0,2653078.0,2150.0,40,L,2653352,2653412,62,1430.0,682.4,3170,right
62,1,binary,41,1,fixationCross,2654111.0,2656195.0,2084.0,41,L,2653488,2653516,30,1438.2,681.8,3193,right
62,1,binary,41,1,fixationCross,2654111.0,2656195.0,2084.0,41,L,2653564,2653762,200,1360.3,519.2,3305,right
62,1,binary,41,1,fixationCross,2654111.0,2656195.0,2084.0,41,L,2653832,2653980,150,913.7,546.4,3517,NA
62,1,binary,41,1,trial,2654111.0,2656195.0,2084.0,41,L,2653998,2654264,268,960.2,552.9,3640,NA
62,1,binary,41,1,trial,2654111.0,2656195.0,2084.0,41,L,2654320,2654464,146,1402.0,498.9,3428,right
62,1,binary,41,1,trial,2654111.0,2656195.0,2084.0,41,L,2654478,2655084,608,1399.4,451.0,3042,right
62,1,binary,41,1,trial,2654111.0,2656195.0,2084.0,41,L,2655164,2655320,158,578.8,453.9,3228,left
62,1,binary,41,1,trial,2654111.0,2656195.0,2084.0,41,L,2655338,2655578,242,576.3,412.9,3235,left
62,1,binary,41,1,trial,2654111.0,2656195.0,2084.0,41,L,2655620,2656210,592,397.2,557.8,3283,left
62,1,binary,41,1,trial,2654111.0,2656195.0,2084.0,41,L,2656270,2656400,132,513.6,920.0,3356,NA
62,1,binary,42,2,fixationCross,2657244.0,2659595.0,2351.0,42,L,2656696,2656948,254,1145.0,530.4,3518,NA
62,1,binary,42,2,fixationCross,2657244.0,2659595.0,2351.0,42,L,2656986,2657174,190,946.4,544.6,3639,NA
62,1,binary,42,2,trial,2657244.0,2659595.0,2351.0,42,L,2657186,2657416,232,980.5,547.6,3661,NA
62,1,binary,42,2,trial,2657244.0,2659595.0,2351.0,42,L,2657472,2657596,126,1354.8,560.7,3534,right
62,1,binary,42,2,trial,2657244.0,2659595.0,2351.0,42,L,2657616,2657986,372,1477.4,537.9,3210,right
62,1,binary,42,2,trial,2657244.0,2659595.0,2351.0,42,L,2658056,2658260,206,598.1,500.6,3230,left
62,1,binary,42,2,trial,2657244.0,2659595.0,2351.0,42,L,2658284,2658494,212,491.9,474.3,3231,left
62,1,binary,42,2,trial,2657244.0,2659595.0,2351.0,42,L,2658514,2658814,302,583.8,440.9,3256,left
62,1,binary,42,2,trial,2657244.0,2659595.0,2351.0,42,L,2658826,2658850,26,562.3,465.7,3284,left
62,1,binary,42,2,trial,2657244.0,2659595.0,2351.0,42,L,2658920,2659056,138,1399.4,528.8,3243,right
62,1,binary,42,2,trial,2657244.0,2659595.0,2351.0,42,L,2659080,2659516,438,1483.8,550.0,3221,right
62,1,binary,42,2,trial,2657244.0,2659595.0,2351.0,42,L,2659538,2659874,338,1567.5,498.1,3150,right
62,1,binary,43,2,fixationCross,2660677.0,2666811.0,6134.0,43,L,2660028,2660378,352,1168.9,623.2,3373,NA
62,1,binary,43,2,fixationCross,2660677.0,2666811.0,6134.0,43,L,2660410,2660612,204,983.2,562.1,3582,NA
62,1,binary,43,2,trial,2660677.0,2666811.0,6134.0,43,L,2660630,2660838,210,959.3,540.0,3545,NA
62,1,binary,43,2,trial,2660677.0,2666811.0,6134.0,43,L,2660888,2661070,184,534.5,487.3,3552,left
62,1,binary,43,2,trial,2660677.0,2666811.0,6134.0,43,L,2661086,2661214,130,497.0,488.8,3324,left
62,1,binary,43,2,trial,2660677.0,2666811.0,6134.0,43,L,2661238,2661502,266,513.8,384.4,3203,left
62,1,binary,43,2,trial,2660677.0,2666811.0,6134.0,43,L,2661514,2661606,94,490.3,392.8,3187,left
62,1,binary,43,2,trial,2660677.0,2666811.0,6134.0,43,L,2661626,2662340,716,422.5,404.7,3255,left
62,1,binary,43,2,trial,2660677.0,2666811.0,6134.0,43,L,2662358,2662482,126,502.3,397.2,3328,left
62,1,binary,43,2,trial,2660677.0,2666811.0,6134.0,43,L,2662554,2662810,258,1371.3,468.9,3247,right
62,1,binary,43,2,trial,2660677.0,2666811.0,6134.0,43,L,2662834,2663178,346,1448.5,526.6,3198,right
62,1,binary,43,2,trial,2660677.0,2666811.0,6134.0,43,L,2663194,2663568,376,1406.2,503.3,3230,right
62,1,binary,43,2,trial,2660677.0,2666811.0,6134.0,43,L,2663588,2664140,554,1347.2,506.6,3296,right
62,1,binary,43,2,trial,2660677.0,2666811.0,6134.0,43,L,2664158,2664408,252,1403.5,510.7,3383,right
62,1,binary,43,2,trial,2660677.0,2666811.0,6134.0,43,L,2664488,2664728,242,507.2,472.8,3378,left
62,1,binary,43,2,trial,2660677.0,2666811.0,6134.0,43,L,2664752,2664878,128,470.2,404.1,3325,left
62,1,binary,43,2,trial,2660677.0,2666811.0,6134.0,43,L,2664894,2665360,468,414.3,408.9,3299,left
62,1,binary,43,2,trial,2660677.0,2666811.0,6134.0,43,L,2665382,2665664,284,512.3,401.1,3347,left
62,1,binary,43,2,trial,2660677.0,2666811.0,6134.0,43,L,2665740,2666194,456,1371.3,499.3,3424,right
62,1,binary,43,2,trial,2660677.0,2666811.0,6134.0,43,L,2666208,2666770,564,1402.4,524.4,3445,right
62,1,binary,43,2,trial,2660677.0,2666811.0,6134.0,43,L,2666844,2666998,156,508.6,528.5,3514,left
62,1,binary,44,2,fixationCross,2667945.0,2669395.0,1450.0,44,L,2667338,2667412,76,1419.2,484.7,3456,right
62,1,binary,44,2,fixationCross,2667945.0,2669395.0,1450.0,44,L,2667454,2667646,194,1154.8,496.5,3720,NA
62,1,binary,44,2,trial,2667945.0,2669395.0,1450.0,44,L,2667684,2668114,432,974.8,546.0,3673,NA
62,1,binary,44,2,trial,2667945.0,2669395.0,1450.0,44,L,2668170,2668400,232,583.6,541.7,3493,left
62,1,binary,44,2,trial,2667945.0,2669395.0,1450.0,44,L,2668428,2668562,136,601.6,550.9,3362,left
62,1,binary,44,2,trial,2667945.0,2669395.0,1450.0,44,L,2668638,2668750,114,1485.6,451.7,3256,right
62,1,binary,44,2,trial,2667945.0,2669395.0,1450.0,44,L,2668774,2669594,822,1540.6,480.8,3264,right
62,1,binary,44,2,postResponse,2667945.0,2669395.0,1450.0,44,L,2669698,2669726,30,1003.2,675.8,3405,NA
62,1,binary,45,1,fixationCross,2670478.0,2671695.0,1217.0,45,L,2669800,2669818,20,990.1,673.6,3451,NA
62,1,binary,45,1,fixationCross,2670478.0,2671695.0,1217.0,45,L,2669856,2669914,60,1030.0,460.4,3483,NA
62,1,binary,45,1,fixationCross,2670478.0,2671695.0,1217.0,45,L,2669936,2670152,218,1171.8,419.0,3641,NA
62,1,binary,45,1,fixationCross,2670478.0,2671695.0,1217.0,45,L,2670180,2670368,190,985.2,505.2,3778,NA
62,1,binary,45,1,trial,2670478.0,2671695.0,1217.0,45,L,2670384,2670642,260,954.1,538.3,3769,NA
62,1,binary,45,1,trial,2670478.0,2671695.0,1217.0,45,L,2670696,2670858,164,641.6,501.3,3625,left
62,1,binary,45,1,trial,2670478.0,2671695.0,1217.0,45,L,2670902,2671058,158,358.1,515.6,3338,left
62,1,binary,45,1,trial,2670478.0,2671695.0,1217.0,45,L,2671070,2671230,162,330.6,521.4,3265,left
62,1,binary,45,1,trial,2670478.0,2671695.0,1217.0,45,L,2671312,2671414,104,1509.8,502.6,3180,right
62,1,binary,45,1,postResponse,2670478.0,2671695.0,1217.0,45,L,2671436,2672028,594,1604.0,495.8,3197,right
62,1,binary,46,2,fixationCross,2672745.0,2674745.0,2000.0,46,L,2672108,2672418,312,1219.4,592.4,3453,right
62,1,binary,46,2,fixationCross,2672745.0,2674745.0,2000.0,46,L,2672460,2672652,194,974.9,565.3,3564,NA
62,1,binary,46,2,trial,2672745.0,2674745.0,2000.0,46,L,2672660,2672944,286,970.1,549.5,3525,NA
62,1,binary,46,2,trial,2672745.0,2674745.0,2000.0,46,L,2672988,2673174,188,647.2,554.0,3433,left
62,1,binary,46,2,trial,2672745.0,2674745.0,2000.0,46,L,2673200,2673614,416,541.5,634.7,3258,left
62,1,binary,46,2,trial,2672745.0,2674745.0,2000.0,46,L,2673658,2673774,118,625.1,417.7,3176,left
62,1,binary,46,2,trial,2672745.0,2674745.0,2000.0,46,L,2673838,2674080,244,1376.6,449.9,2990,right
62,1,binary,46,2,trial,2672745.0,2674745.0,2000.0,46,L,2674104,2674338,236,1401.6,522.9,3076,right
62,1,binary,46,2,trial,2672745.0,2674745.0,2000.0,46,L,2674362,2674666,306,1500.0,586.0,3299,right
62,1,binary,46,2,trial,2672745.0,2674745.0,2000.0,46,L,2674688,2674962,276,1579.3,618.2,3340,right
62,1,binary,47,2,fixationCross,2675795.0,2677394.0,1599.0,47,L,2675382,2675476,96,763.7,546.6,3612,NA
62,1,binary,47,2,fixationCross,2675795.0,2677394.0,1599.0,47,L,2675502,2675674,174,931.2,525.3,3767,NA
62,1,binary,47,2,trial,2675795.0,2677394.0,1599.0,47,L,2675690,2675942,254,970.5,564.3,3574,NA
62,1,binary,47,2,trial,2675795.0,2677394.0,1599.0,47,L,2675996,2676182,188,617.3,552.8,3349,left
62,1,binary,47,2,trial,2675795.0,2677394.0,1599.0,47,L,2676206,2676366,162,522.3,525.7,3230,left
62,1,binary,47,2,trial,2675795.0,2677394.0,1599.0,47,L,2676430,2676624,196,1263.8,475.3,3193,right
62,1,binary,47,2,trial,2675795.0,2677394.0,1599.0,47,L,2676650,2677280,632,1451.6,509.8,3178,right
62,1,binary,47,2,trial,2675795.0,2677394.0,1599.0,47,L,2677294,2677688,396,1482.6,522.7,3360,right
62,1,binary,48,1,fixationCross,2678477.0,2679645.0,1168.0,48,L,2677984,2678190,208,1084.7,572.0,3717,NA
62,1,binary,48,1,fixationCross,2678477.0,2679645.0,1168.0,48,L,2678214,2678446,234,972.9,558.4,3815,NA
62,1,binary,48,1,trial,2678477.0,2679645.0,1168.0,48,L,2678456,2678690,236,969.6,542.2,3523,NA
62,1,binary,48,1,trial,2678477.0,2679645.0,1168.0,48,L,2678752,2679020,270,1439.8,544.4,3347,right
62,1,binary,48,1,trial,2678477.0,2679645.0,1168.0,48,L,2679036,2679140,106,1489.5,554.3,3354,right
62,1,binary,48,1,trial,2678477.0,2679645.0,1168.0,48,L,2679224,2679346,124,554.6,577.3,3489,left
62,1,binary,48,1,trial,2678477.0,2679645.0,1168.0,48,L,2679370,2679588,220,477.2,614.3,3544,left
62,1,binary,48,1,postResponse,2678477.0,2679645.0,1168.0,48,L,2679676,2679978,304,1496.6,575.0,3380,right
62,1,binary,49,2,fixationCross,2680745.0,2682995.0,2250.0,49,L,2680078,2680210,134,1494.1,568.7,3379,right
62,1,binary,49,2,fixationCross,2680745.0,2682995.0,2250.0,49,L,2680256,2680428,174,1246.2,534.6,3431,right
62,1,binary,49,2,trial,2680745.0,2682995.0,2250.0,49,L,2680468,2680896,430,1010.8,552.0,3522,NA
62,1,binary,49,2,trial,2680745.0,2682995.0,2250.0,49,L,2680942,2681100,160,1339.9,527.8,3453,right
62,1,binary,49,2,trial,2680745.0,2682995.0,2250.0,49,L,2681142,2681282,142,1564.5,463.3,3132,right
62,1,binary,49,2,trial,2680745.0,2682995.0,2250.0,49,L,2681300,2681568,270,1641.1,454.1,3035,right
62,1,binary,49,2,trial,2680745.0,2682995.0,2250.0,49,L,2681646,2681822,178,634.7,547.5,3201,left
62,1,binary,49,2,trial,2680745.0,2682995.0,2250.0,49,L,2681846,2681958,114,466.6,557.2,3213,left
62,1,binary,49,2,trial,2680745.0,2682995.0,2250.0,49,L,2681984,2682350,368,315.8,588.0,3098,left
62,1,binary,49,2,trial,2680745.0,2682995.0,2250.0,49,L,2682368,2682500,134,408.0,572.2,3100,left
62,1,binary,49,2,trial,2680745.0,2682995.0,2250.0,49,L,2682582,2682724,144,1517.5,497.6,3025,right
62,1,binary,49,2,trial,2680745.0,2682995.0,2250.0,49,L,2682746,2682932,188,1609.3,463.3,3015,right
62,1,binary,49,2,trial,2680745.0,2682995.0,2250.0,49,L,2682946,2683236,292,1646.6,463.1,3056,right
62,1,binary,50,1,fixationCross,2684078.0,2686344.0,2266.0,50,L,2683552,2683708,158,979.1,532.7,3534,NA
62,1,binary,50,1,fixationCross,2684078.0,2686344.0,2266.0,50,L,2683754,2683928,176,1186.9,502.8,3729,right
62,1,binary,50,1,trial,2684078.0,2686344.0,2266.0,50,L,2683970,2684250,282,967.4,531.5,3494,NA
62,1,binary,50,1,trial,2684078.0,2686344.0,2266.0,50,L,2684308,2684484,178,1389.9,518.4,3327,right
62,1,binary,50,1,trial,2684078.0,2686344.0,2266.0,50,L,2684508,2684944,438,1504.0,543.1,3168,right
62,1,binary,50,1,trial,2684078.0,2686344.0,2266.0,50,L,2684966,2685086,122,1549.4,509.7,3204,right
62,1,binary,50,1,trial,2684078.0,2686344.0,2266.0,50,L,2685160,2685346,188,592.7,463.4,3330,left
62,1,binary,50,1,trial,2684078.0,2686344.0,2266.0,50,L,2685370,2685604,236,535.6,446.5,3281,left
62,1,binary,50,1,trial,2684078.0,2686344.0,2266.0,50,L,2685622,2685894,274,516.3,513.6,3244,left
62,1,binary,50,1,trial,2684078.0,2686344.0,2266.0,50,L,2685910,2686386,478,578.3,514.5,3350,left
62,1,binary,50,1,trial,2684078.0,2686344.0,2266.0,50,L,2686456,2686612,158,1373.2,503.6,3380,right
62,2,continuous,1,80,fixationCross,2764345.0,2768929.0,4584.0,51,L,2763641,2763723,84,948.5,425.3,3597,NA
62,2,continuous,1,80,fixationCross,2764345.0,2768929.0,4584.0,51,L,2763745,2764043,300,883.5,394.9,3556,NA
62,2,continuous,1,80,trial,2764345.0,2768929.0,4584.0,51,L,2764069,2764515,448,954.5,537.3,3548,NA
62,2,continuous,1,80,trial,2764345.0,2768929.0,4584.0,51,L,2764563,2764783,222,578.1,528.4,3590,left
62,2,continuous,1,80,trial,2764345.0,2768929.0,4584.0,51,L,2764803,2765023,222,518.5,557.6,3375,left
62,2,continuous,1,80,trial,2764345.0,2768929.0,4584.0,51,L,2765091,2765233,144,1333.4,469.6,3292,right
62,2,continuous,1,80,trial,2764345.0,2768929.0,4584.0,51,L,2765257,2765485,230,1448.5,461.2,3288,right
62,2,continuous,1,80,trial,2764345.0,2768929.0,4584.0,51,L,2765511,2765873,364,1279.9,576.7,3448,right
62,2,continuous,1,80,trial,2764345.0,2768929.0,4584.0,51,L,2766539,2766871,334,1407.9,482.1,3455,right
62,2,continuous,1,80,trial,2764345.0,2768929.0,4584.0,51,L,2766961,2767247,288,453.3,539.6,3513,left
62,2,continuous,1,80,trial,2764345.0,2768929.0,4584.0,51,L,2767265,2767579,316,495.3,479.2,3404,left
62,2,continuous,1,80,trial,2764345.0,2768929.0,4584.0,51,L,2767593,2767751,160,459.4,483.2,3372,left
62,2,continuous,1,80,trial,2764345.0,2768929.0,4584.0,51,L,2768437,2768765,330,1416.1,475.0,3463,right
62,2,continuous,1,80,trial,2764345.0,2768929.0,4584.0,51,L,2768777,2768965,190,1462.3,451.8,3351,right
62,2,continuous,1,80,trial,2764345.0,2768929.0,4584.0,51,L,2768987,2769141,156,1411.0,386.7,3227,right
62,2,continuous,1,80,postResponse,2764345.0,2768929.0,4584.0,51,L,2769231,2769263,34,977.8,577.4,3287,NA
62,2,continuous,2,77,fixationCross,2770013.0,2773479.0,3466.0,52,L,2769363,2769379,18,966.8,573.1,3341,NA
62,2,continuous,2,77,fixationCross,2770013.0,2773479.0,3466.0,52,L,2769421,2769531,112,1176.8,586.9,3432,NA
62,2,continuous,2,77,fixationCross,2770013.0,2773479.0,3466.0,52,L,2769591,2769681,92,1565.1,795.8,3564,NA
62,2,continuous,2,77,fixationCross,2770013.0,2773479.0,3466.0,52,L,2769739,2769883,146,976.8,593.9,3700,NA
62,2,continuous,2,77,trial,2770013.0,2773479.0,3466.0,52,L,2769905,2770163,260,949.7,547.2,3647,NA
62,2,continuous,2,77,trial,2770013.0,2773479.0,3466.0,52,L,2770219,2770359,142,558.2,511.8,3556,left
62,2,continuous,2,77,trial,2770013.0,2773479.0,3466.0,52,L,2770387,2770579,194,422.8,545.8,3400,left
62,2,continuous,2,77,trial,2770013.0,2773479.0,3466.0,52,L,2770595,2770803,210,357.7,513.9,3363,left
62,2,continuous,2,77,trial,2770013.0,2773479.0,3466.0,52,L,2770819,2771051,234,343.4,477.6,3336,left
62,2,continuous,2,77,trial,2770013.0,2773479.0,3466.0,52,L,2771131,2771721,592,1391.2,510.4,3345,right
62,2,continuous,2,77,trial,2770013.0,2773479.0,3466.0,52,L,2771737,2772065,330,1430.2,476.7,3321,right
62,2,continuous,2,77,trial,2770013.0,2773479.0,3466.0,52,L,2772133,2772243,112,1045.0,926.5,3517,likertHorizontal
62,2,continuous,2,77,trial,2770013.0,2773479.0,3466.0,52,L,2772265,2772607,344,988.5,980.9,3630,likertHorizontal
62,2,continuous,3,1,fixationCross,2774645.0,2777529.0,2884.0,53,L,2774193,2774327,136,1084.1,697.1,3834,NA
62,2,continuous,3,1,fixationCross,2774645.0,2777529.0,2884.0,53,L,2774355,2774497,144,955.5,584.4,3672,NA
62,2,continuous,3,1,trial,2774645.0,2777529.0,2884.0,53,L,2774511,2774787,278,956.7,557.8,3583,NA
62,2,continuous,3,1,trial,2774645.0,2777529.0,2884.0,53,L,2774845,2775035,192,562.0,570.3,3542,left
62,2,continuous,3,1,trial,2774645.0,2777529.0,2884.0,53,L,2775057,2775293,238,496.5,599.9,3297,left
62,2,continuous,3,1,trial,2774645.0,2777529.0,2884.0,53,L,2775357,2775521,166,1309.0,548.0,3190,right
62,2,continuous,3,1,trial,2774645.0,2777529.0,2884.0,53,L,2775545,2775771,228,1493.0,510.0,3176,right
62,2,continuous,3,1,trial,2774645.0,2777529.0,2884.0,53,L,2775861,2776213,354,438.5,631.7,3350,left
62,2,continuous,3,1,trial,2774645.0,2777529.0,2884.0,53,L,2776231,2777181,952,474.1,576.6,3322,left
62,2,continuous,3,1,trial,2774645.0,2777529.0,2884.0,53,L,2777251,2777361,112,1243.2,574.3,3320,right
62,2,continuous,3,1,trial,2774645.0,2777529.0,2884.0,53,L,2777431,2777755,326,471.2,975.5,3385,NA
62,2,continuous,4,3,fixationCross,2778596.0,2781829.0,3233.0,54,L,2778067,2778295,230,1078.0,582.3,3429,NA
62,2,continuous,4,3,fixationCross,2778596.0,2781829.0,3233.0,54,L,2778321,2778485,166,933.1,550.2,3529,NA
62,2,continuous,4,3,trial,2778596.0,2781829.0,3233.0,54,L,2778493,2778745,254,962.4,554.9,3513,NA
62,2,continuous,4,3,trial,2778596.0,2781829.0,3233.0,54,L,2778797,2778963,168,558.3,557.5,3475,left
62,2,continuous,4,3,trial,2778596.0,2781829.0,3233.0,54,L,2778983,2779303,322,603.6,499.8,3250,left
62,2,continuous,4,3,trial,2778596.0,2781829.0,3233.0,54,L,2779367,2779571,206,1330.3,583.8,3116,right
62,2,continuous,4,3,trial,2778596.0,2781829.0,3233.0,54,L,2779595,2780113,520,1478.2,612.9,3161,right
62,2,continuous,4,3,trial,2778596.0,2781829.0,3233.0,54,L,2780151,2780341,192,1271.0,578.1,3267,right
62,2,continuous,4,3,trial,2778596.0,2781829.0,3233.0,54,L,2780399,2780599,202,759.1,942.6,3467,likertHorizontal
62,2,continuous,4,3,trial,2778596.0,2781829.0,3233.0,54,L,2780619,2780787,170,697.1,976.7,3544,NA
62,2,continuous,4,3,trial,2778596.0,2781829.0,3233.0,54,L,2780815,2780945,132,540.4,984.5,3506,NA
62,2,continuous,4,3,trial,2778596.0,2781829.0,3233.0,54,L,2780963,2781563,602,472.5,979.2,3514,NA
62,2,continuous,4,3,trial,2778596.0,2781829.0,3233.0,54,L,2781743,2782061,320,1335.4,570.2,3497,right
62,2,continuous,4,3,postResponse,2778596.0,2781829.0,3233.0,54,L,2782097,2782161,66,1552.2,648.3,3428,right
62,2,continuous,5,51,fixationCross,2782996.0,2786429.0,3433.0,55,L,2782269,2782515,248,1256.1,533.5,3387,right
62,2,continuous,5,51,fixationCross,2782996.0,2786429.0,3433.0,55,L,2782541,2782681,142,1136.4,449.2,3421,NA
62,2,continuous,5,51,trial,2782996.0,2786429.0,3433.0,55,L,2782711,2783151,442,968.5,536.6,3461,NA
62,2,continuous,5,51,trial,2782996.0,2786429.0,3433.0,55,L,2783199,2783481,284,1333.6,526.4,3326,right
62,2,continuous,5,51,trial,2782996.0,2786429.0,3433.0,55,L,2783503,2783795,294,1425.7,527.6,3016,right
62,2,continuous,5,51,trial,2782996.0,2786429.0,3433.0,55,L,2783813,2784101,290,1504.3,541.1,3003,right
62,2,continuous,5,51,trial,2782996.0,2786429.0,3433.0,55,L,2784111,2784215,106,1487.9,518.3,3079,right
62,2,continuous,5,51,trial,2782996.0,2786429.0,3433.0,55,L,2784289,2784447,160,571.5,547.8,3221,left
62,2,continuous,5,51,trial,2782996.0,2786429.0,3433.0,55,L,2784463,2785153,692,526.6,561.5,3217,left
62,2,continuous,5,51,trial,2782996.0,2786429.0,3433.0,55,L,2785221,2785743,524,1356.9,523.7,3093,right
62,2,continuous,5,51,trial,2782996.0,2786429.0,3433.0,55,L,2785811,2785991,182,953.5,984.6,3318,likertHorizontal
62,2,continuous,5,51,trial,2782996.0,2786429.0,3433.0,55,L,2786001,2786201,202,967.6,999.7,3470,likertHorizontal
62,2,continuous,5,51,trial,2782996.0,2786429.0,3433.0,55,L,2786401,2786671,272,997.0,976.6,3579,likertHorizontal
62,2,continuous,6,50,fixationCross,2787546.0,2790213.0,2667.0,56,L,2786863,2786903,42,1325.3,451.9,3657,right
62,2,continuous,6,50,fixationCross,2787546.0,2790213.0,2667.0,56,L,2786931,2787091,162,1264.1,344.1,3684,NA
62,2,continuous,6,50,fixationCross,2787546.0,2790213.0,2667.0,56,L,2787113,2787211,100,1278.7,284.4,3592,NA
62,2,continuous,6,50,fixationCross,2787546.0,2790213.0,2667.0,56,L,2787267,2787421,156,976.6,504.6,3613,NA
62,2,continuous,6,50,trial,2787546.0,2790213.0,2667.0,56,L,2787439,2787699,262,952.2,550.5,3685,NA
62,2,continuous,6,50,trial,2787546.0,2790213.0,2667.0,56,L,2787755,2787903,150,564.8,544.4,3636,left
62,2,continuous,6,50,trial,2787546.0,2790213.0,2667.0,56,L,2787925,2788131,208,473.5,510.3,3321,left
62,2,continuous,6,50,trial,2787546.0,2790213.0,2667.0,56,L,2788157,2788417,262,619.3,577.9,3276,left
62,2,continuous,6,50,trial,2787546.0,2790213.0,2667.0,56,L,2788473,2788647,176,1219.7,480.9,3292,right
62,2,continuous,6,50,trial,2787546.0,2790213.0,2667.0,56,L,2788671,2788807,138,1306.9,495.1,3299,right
62,2,continuous,6,50,trial,2787546.0,2790213.0,2667.0,56,L,2788883,2789137,256,539.6,554.3,3336,left
62,2,continuous,6,50,trial,2787546.0,2790213.0,2667.0,56,L,2789161,2789443,284,642.6,608.0,3342,left
62,2,continuous,6,50,trial,2787546.0,2790213.0,2667.0,56,L,2789461,2789703,244,645.1,650.0,3438,left
62,2,continuous,6,50,trial,2787546.0,2790213.0,2667.0,56,L,2789753,2790105,354,445.1,458.0,3387,left
62,2,continuous,6,50,trial,2787546.0,2790213.0,2667.0,56,L,2790169,2790447,280,980.2,969.0,3445,likertHorizontal
62,2,continuous,7,85,fixationCross,2791279.0,2795097.0,3818.0,57,L,2790619,2790705,88,1181.8,506.5,3356,NA
62,2,continuous,7,85,fixationCross,2791279.0,2795097.0,3818.0,57,L,2790741,2790983,244,1050.0,456.5,3508,NA
62,2,continuous,7,85,fixationCross,2791279.0,2795097.0,3818.0,57,L,2791011,2791167,158,954.3,568.5,3504,NA
62,2,continuous,7,85,trial,2791279.0,2795097.0,3818.0,57,L,2791175,2791433,260,965.1,550.5,3526,NA
62,2,continuous,7,85,trial,2791279.0,2795097.0,3818.0,57,L,2791489,2791665,178,555.0,533.3,3501,left
62,2,continuous,7,85,trial,2791279.0,2795097.0,3818.0,57,L,2791685,2791877,194,497.6,530.5,3229,left
62,2,continuous,7,85,trial,2791279.0,2795097.0,3818.0,57,L,2791939,2792125,188,1289.7,465.9,3104,right
62,2,continuous,7,85,trial,2791279.0,2795097.0,3818.0,57,L,2792147,2792437,292,1404.5,497.1,3047,right
62,2,continuous,7,85,trial,2791279.0,2795097.0,3818.0,57,L,2792511,2792913,404,496.8,538.2,3227,left
62,2,continuous,7,85,trial,2791279.0,2795097.0,3818.0,57,L,2792925,2793193,270,453.3,517.3,3343,left
62,2,continuous,7,85,trial,2791279.0,2795097.0,3818.0,57,L,2793267,2793395,130,1069.1,931.2,3422,likertHorizontal
62,2,continuous,7,85,trial,2791279.0,2795097.0,3818.0,57,L,2793413,2793575,164,1091.5,978.2,3433,likertHorizontal
62,2,continuous,7,85,trial,2791279.0,2795097.0,3818.0,57,L,2794183,2794315,134,1328.8,642.9,3451,right
62,2,continuous,7,85,trial,2791279.0,2795097.0,3818.0,57,L,2794341,2794947,608,1384.0,534.0,3229,right
62,2,continuous,7,85,trial,2791279.0,2795097.0,3818.0,57,L,2794965,2795361,398,1321.5,508.2,3223,right
62,2,continuous,7,85,postResponse,2791279.0,2795097.0,3818.0,57,L,2795377,2795429,54,1256.8,581.3,3281,right
62,2,continuous,8,45,fixationCross,2795996.0,2801263.0,5267.0,58,L,2795503,2795549,48,1249.2,569.3,3299,right
62,2,continuous,8,45,fixationCross,2795996.0,2801263.0,5267.0,58,L,2795599,2795823,226,1010.0,568.7,3447,NA
62,2,continuous,8,45,fixationCross,2795996.0,2801263.0,5267.0,58,L,2795843,2795965,124,1060.5,545.1,3485,NA
62,2,continuous,8,45,trial,2795996.0,2801263.0,5267.0,58,L,2795989,2796155,168,960.0,553.6,3459,NA
62,2,continuous,8,45,trial,2795996.0,2801263.0,5267.0,58,L,2796199,2796397,200,607.6,531.0,3383,left
62,2,continuous,8,45,trial,2795996.0,2801263.0,5267.0,58,L,2796419,2796627,210,515.6,538.6,3248,left
62,2,continuous,8,45,trial,2795996.0,2801263.0,5267.0,58,L,2796643,2796829,188,478.4,589.3,3232,left
62,2,continuous,8,45,trial,2795996.0,2801263.0,5267.0,58,L,2796857,2797163,308,541.9,414.1,3265,left
62,2,continuous,8,45,trial,2795996.0,2801263.0,5267.0,58,L,2797229,2797507,280,1388.4,487.7,3267,right
62,2,continuous,8,45,trial,2795996.0,2801263.0,5267.0,58,L,2797529,2797769,242,1296.3,525.6,3322,right
62,2,continuous,8,45,trial,2795996.0,2801263.0,5267.0,58,L,2797959,2798099,142,519.3,486.1,3397,left
62,2,continuous,8,45,trial,2795996.0,2801263.0,5267.0,58,L,2798115,2798465,352,532.0,446.3,3377,left
62,2,continuous,8,45,trial,2795996.0,2801263.0,5267.0,58,L,2798491,2798773,284,371.0,455.1,3207,left
62,2,continuous,8,45,trial,2795996.0,2801263.0,5267.0,58,L,2798837,2798993,158,623.6,954.2,3316,NA
62,2,continuous,8,45,trial,2795996.0,2801263.0,5267.0,58,L,2799007,2799291,286,656.0,985.2,3341,NA
62,2,continuous,8,45,trial,2795996.0,2801263.0,5267.0,58,L,2799505,2799839,336,1431.3,568.1,3350,right
62,2,continuous,8,45,trial,2795996.0,2801263.0,5267.0,58,L,2799863,2800261,400,1561.3,536.6,3101,right
62,2,continuous,8,45,trial,2795996.0,2801263.0,5267.0,58,L,2800287,2800457,172,1441.5,443.9,3055,right
62,2,continuous,8,45,trial,2795996.0,2801263.0,5267.0,58,L,2800523,2800657,136,842.2,970.8,3251,likertHorizontal
62,2,continuous,8,45,trial,2795996.0,2801263.0,5267.0,58,L,2800683,2800909,228,797.5,982.1,3338,likertHorizontal
62,2,continuous,8,45,trial,2795996.0,2801263.0,5267.0,58,L,2800929,2801511,584,932.2,998.8,3472,likertHorizontal
62,2,continuous,9,1,fixationCross,2802379.0,2808146.0,5767.0,59,L,2801701,2801769,70,1229.2,580.1,3528,right
62,2,continuous,9,1,fixationCross,2802379.0,2808146.0,5767.0,59,L,2801813,2802049,238,1133.5,398.9,3577,NA
62,2,continuous,9,1,fixationCross,2802379.0,2808146.0,5767.0,59,L,2802093,2802373,282,961.5,515.4,3626,NA
62,2,continuous,9,1,trial,2802379.0,2808146.0,5767.0,59,L,2802385,2802527,144,947.4,539.9,3602,NA
62,2,continuous,9,1,trial,2802379.0,2808146.0,5767.0,59,L,2802585,2802927,344,540.2,527.4,3398,left
62,2,continuous,9,1,trial,2802379.0,2808146.0,5767.0,59,L,2802955,2803357,404,363.6,458.9,3051,left
62,2,continuous,9,1,trial,2802379.0,2808146.0,5767.0,59,L,2803427,2803681,256,1262.8,489.7,3051,right
62,2,continuous,9,1,trial,2802379.0,2808146.0,5767.0,59,L,2803701,2803803,104,1351.8,510.5,3037,right
62,2,continuous,9,1,trial,2802379.0,2808146.0,5767.0,59,L,2803885,2804065,182,379.6,454.0,3149,left
62,2,continuous,9,1,trial,2802379.0,2808146.0,5767.0,59,L,2804073,2804503,432,360.9,453.7,3208,left
62,2,continuous,9,1,trial,2802379.0,2808146.0,5767.0,59,L,2804591,2804925,336,1443.0,502.7,3144,right
62,2,continuous,9,1,trial,2802379.0,2808146.0,5767.0,59,L,2805031,2805269,240,1431.2,525.9,3149,right
62,2,continuous,9,1,trial,2802379.0,2808146.0,5767.0,59,L,2805293,2805615,324,1291.4,579.9,3212,right
62,2,continuous,9,1,trial,2802379.0,2808146.0,5767.0,59,L,2805627,2805773,148,1237.6,578.8,3228,right
62,2,continuous,9,1,trial,2802379.0,2808146.0,5767.0,59,L,2805823,2805969,148,979.6,898.6,3331,likertHorizontal
62,2,continuous,9,1,trial,2802379.0,2808146.0,5767.0,59,L,2805991,2806185,196,963.5,987.1,3394,likertHorizontal
62,2,continuous,9,1,trial,2802379.0,2808146.0,5767.0,59,L,2806233,2806367,136,518.4,1023.0,3406,NA
62,2,continuous,9,1,trial,2802379.0,2808146.0,5767.0,59,L,2806425,2806613,190,932.9,990.0,3427,likertHorizontal
62,2,continuous,9,1,trial,2802379.0,2808146.0,5767.0,59,L,2806631,2806743,114,872.6,986.4,3401,likertHorizontal
62,2,continuous,9,1,trial,2802379.0,2808146.0,5767.0,59,L,2806799,2807129,332,566.6,625.5,3419,left
62,2,continuous,9,1,trial,2802379.0,2808146.0,5767.0,59,L,2807185,2807995,812,485.2,974.0,3455,NA
62,2,continuous,9,1,postResponse,2802379.0,2808146.0,5767.0,59,L,2808195,2808479,286,1380.8,617.0,3498,right
62,2,continuous,10,86,fixationCross,2809247.0,2813547.0,4300.0,60,L,2808579,2808609,32,1384.0,618.0,3505,right
62,2,continuous,10,86,fixationCross,2809247.0,2813547.0,4300.0,60,L,2808673,2808847,176,955.3,560.7,3444,NA
62,2,continuous,10,86,fixationCross,2809247.0,2813547.0,4300.0,60,L,2808875,2809047,174,1122.4,551.0,3392,NA
62,2,continuous,10,86,fixationCross,2809247.0,2813547.0,4300.0,60,L,2809075,2809213,140,998.4,566.9,3492,NA
62,2,continuous,10,86,trial,2809247.0,2813547.0,4300.0,60,L,2809229,2809403,176,961.2,559.4,3546,NA
62,2,continuous,10,86,trial,2809247.0,2813547.0,4300.0,60,L,2809459,2809747,290,596.2,561.8,3395,left
62,2,continuous,10,86,trial,2809247.0,2813547.0,4300.0,60,L,2809767,2810115,350,523.1,523.1,3173,left
62,2,continuous,10,86,trial,2809247.0,2813547.0,4300.0,60,L,2810135,2810313,180,632.4,535.5,3193,left
62,2,continuous,10,86,trial,2809247.0,2813547.0,4300.0,60,L,2810373,2810553,182,1267.0,548.9,3165,right
62,2,continuous,10,86,trial,2809247.0,2813547.0,4300.0,60,L,2810573,2810909,338,1402.7,549.8,3095,right
62,2,continuous,10,86,trial,2809247.0,2813547.0,4300.0,60,L,2810919,2810987,70,1445.8,552.0,3120,right
62,2,continuous,10,86,trial,2809247.0,2813547.0,4300.0,60,L,2811253,2811711,460,541.4,579.3,3415,left
62,2,continuous,10,86,trial,2809247.0,2813547.0,4300.0,60,L,2811735,2811941,208,544.6,527.1,3222,left
62,2,continuous,10,86,trial,2809247.0,2813547.0,4300.0,60,L,2812009,2812239,232,1275.3,469.5,3100,right
62,2,continuous,10,86,trial,2809247.0,2813547.0,4300.0,60,L,2812265,2812523,260,1371.7,588.4,3122,right
62,2,continuous,11,88,fixationCross,2814663.0,2821497.0,6834.0,61,L,2813953,2814017,66,1072.0,507.2,3531,NA
62,2,continuous,11,88,fixationCross,2814663.0,2821497.0,6834.0,61,L,2814045,2814349,306,991.5,393.5,3604,NA
62,2,continuous,11,88,trial,2814663.0,2821497.0,6834.0,61,L,2814383,2814821,440,942.4,554.7,3545,NA
62,2,continuous,11,88,trial,2814663.0,2821497.0,6834.0,61,L,2814869,2815031,164,626.0,542.2,3422,left
62,2,continuous,11,88,trial,2814663.0,2821497.0,6834.0,61,L,2815073,2815211,140,387.0,549.7,3253,left
62,2,continuous,11,88,trial,2814663.0,2821497.0,6834.0,61,L,2815227,2815573,348,319.3,556.2,3274,left
62,2,continuous,11,88,trial,2814663.0,2821497.0,6834.0,61,L,2815611,2815819,210,560.7,544.3,3320,left
62,2,continuous,11,88,trial,2814663.0,2821497.0,6834.0,61,L,2815837,2816113,278,630.7,547.3,3329,left
62,2,continuous,11,88,trial,2814663.0,2821497.0,6834.0,61,L,2816151,2816349,200,489.1,566.9,3375,left
62,2,continuous,11,88,trial,2814663.0,2821497.0,6834.0,61,L,2816375,2816577,204,356.1,563.2,3400,left
62,2,continuous,11,88,trial,2814663.0,2821497.0,6834.0,61,L,2816769,2816825,58,746.1,557.0,3440,NA
62,2,continuous,11,88,trial,2814663.0,2821497.0,6834.0,61,L,2816887,2817113,228,1416.1,537.0,3455,right
62,2,continuous,11,88,trial,2814663.0,2821497.0,6834.0,61,L,2817133,2817381,250,1461.6,481.3,3266,right
62,2,continuous,11,88,trial,2814663.0,2821497.0,6834.0,61,L,2817403,2817653,252,1401.1,544.2,3137,right
62,2,continuous,11,88,trial,2814663.0,2821497.0,6834.0,61,L,2817667,2817793,128,1367.7,562.3,3203,right
62,2,continuous,11,88,trial,2814663.0,2821497.0,6834.0,61,L,2817817,2818293,478,1478.8,465.4,3198,right
62,2,continuous,11,88,trial,2814663.0,2821497.0,6834.0,61,L,2818353,2818471,120,1112.2,807.9,3364,likertHorizontal
62,2,continuous,11,88,trial,2814663.0,2821497.0,6834.0,61,L,2818499,2818717,220,985.6,957.9,3495,likertHorizontal
62,2,continuous,11,88,trial,2814663.0,2821497.0,6834.0,61,L,2818731,2818849,120,929.8,986.1,3569,likertHorizontal
62,2,continuous,11,88,trial,2814663.0,2821497.0,6834.0,61,L,2818891,2819075,186,628.9,983.8,3555,NA
62,2,continuous,11,88,trial,2814663.0,2821497.0,6834.0,61,L,2819105,2819287,184,491.3,952.4,3532,NA
62,2,continuous,11,88,trial,2814663.0,2821497.0,6834.0,61,L,2819303,2819387,86,447.6,953.9,3482,NA
62,2,continuous,11,88,trial,2814663.0,2821497.0,6834.0,61,L,2819449,2819625,178,512.4,562.9,3469,left
62,2,continuous,11,88,trial,2814663.0,2821497.0,6834.0,61,L,2819651,2820053,404,639.5,537.9,3437,left
62,2,continuous,11,88,trial,2814663.0,2821497.0,6834.0,61,L,2820863,2821143,282,1466.4,589.9,3489,right
62,2,continuous,11,88,trial,2814663.0,2821497.0,6834.0,61,L,2821159,2821651,494,1523.5,547.1,3271,right
62,2,continuous,11,88,postResponse,2814663.0,2821497.0,6834.0,61,L,2821699,2821829,132,1244.8,542.1,3365,right
62,2,continuous,12,6,fixationCross,2822397.0,2825413.0,3016.0,62,L,2821929,2822393,466,1033.9,554.6,3524,NA
62,2,continuous,12,6,trial,2822397.0,2825413.0,3016.0,62,L,2822415,2822593,180,959.9,545.0,3564,NA
62,2,continuous,12,6,trial,2822397.0,2825413.0,3016.0,62,L,2822639,2822853,216,1282.5,556.9,3423,right
62,2,continuous,12,6,trial,2822397.0,2825413.0,3016.0,62,L,2822865,2823183,320,1266.5,567.3,3197,right
62,2,continuous,12,6,trial,2822397.0,2825413.0,3016.0,62,L,2823253,2823477,226,610.7,615.6,3323,left
62,2,continuous,12,6,trial,2822397.0,2825413.0,3016.0,62,L,2823499,2823743,246,541.1,632.4,3301,left
62,2,continuous,12,6,trial,2822397.0,2825413.0,3016.0,62,L,2823769,2824287,520,547.1,526.5,3204,left
62,2,continuous,12,6,trial,2822397.0,2825413.0,3016.0,62,L,2824333,2824601,270,487.0,800.4,3325,NA
62,2,continuous,12,6,trial,2822397.0,2825413.0,3016.0,62,L,2824635,2824879,246,514.2,997.8,3352,NA
62,2,continuous,12,6,trial,2822397.0,2825413.0,3016.0,62,L,2824967,2825361,396,1483.5,552.9,3211,right
62,2,continuous,12,6,postResponse,2822397.0,2825413.0,3016.0,62,L,2825385,2825747,364,1629.5,527.5,3152,right
62,2,continuous,13,99,fixationCross,2826396.0,2830047.0,3651.0,63,L,2825875,2826069,196,1292.6,555.8,3327,right
62,2,continuous,13,99,fixationCross,2826396.0,2830047.0,3651.0,63,L,2826125,2826319,196,936.4,576.2,3424,NA
62,2,continuous,13,99,trial,2826396.0,2830047.0,3651.0,63,L,2826333,2826621,290,971.3,546.0,3436,NA
62,2,continuous,13,99,trial,2826396.0,2830047.0,3651.0,63,L,2826665,2826857,194,1252.5,536.3,3303,right
62,2,continuous,13,99,trial,2826396.0,2830047.0,3651.0,63,L,2826881,2827095,216,1357.3,517.4,3157,right
62,2,continuous,13,99,trial,2826396.0,2830047.0,3651.0,63,L,2827179,2827497,320,541.2,542.1,3221,left
62,2,continuous,13,99,trial,2826396.0,2830047.0,3651.0,63,L,2827513,2827853,342,481.2,513.5,3233,left
62,2,continuous,13,99,trial,2826396.0,2830047.0,3651.0,63,L,2827875,2828199,326,554.2,461.6,3281,left
62,2,continuous,13,99,trial,2826396.0,2830047.0,3651.0,63,L,2828293,2828891,600,1356.0,492.3,3266,right
62,2,continuous,13,99,trial,2826396.0,2830047.0,3651.0,63,L,2828907,2829131,226,1402.3,464.4,3322,right
62,2,continuous,14,100,fixationCross,2831196.0,2835646.0,4450.0,64,L,2830767,2830877,112,1214.0,634.4,3672,right
62,2,continuous,14,100,fixationCross,2831196.0,2835646.0,4450.0,64,L,2830907,2831091,186,984.4,562.7,3690,NA
62,2,continuous,14,100,trial,2831196.0,2835646.0,4450.0,64,L,2831111,2831373,264,950.4,547.8,3579,NA
62,2,continuous,14,100,trial,2831196.0,2835646.0,4450.0,64,L,2831419,2831567,150,1312.5,539.1,3452,right
62,2,continuous,14,100,trial,2831196.0,2835646.0,4450.0,64,L,2831605,2831845,242,1460.0,435.3,3137,right
62,2,continuous,14,100,trial,2831196.0,2835646.0,4450.0,64,L,2831863,2832179,318,1397.4,404.6,3072,right
62,2,continuous,14,100,trial,2831196.0,2835646.0,4450.0,64,L,2832205,2832579,376,1333.3,570.3,3193,right
62,2,continuous,14,100,trial,2831196.0,2835646.0,4450.0,64,L,2832587,2832729,144,1339.3,546.8,3208,right
62,2,continuous,14,100,trial,2831196.0,2835646.0,4450.0,64,L,2832757,2833179,424,1418.2,391.0,3180,right
62,2,continuous,14,100,trial,2831196.0,2835646.0,4450.0,64,L,2833193,2833291,100,1373.4,390.0,3246,right
62,2,continuous,14,100,trial,2831196.0,2835646.0,4450.0,64,L,2833367,2833667,302,554.0,579.9,3333,left
62,2,continuous,14,100,trial,2831196.0,2835646.0,4450.0,64,L,2833691,2834353,664,400.2,632.1,3191,left
62,2,continuous,14,100,trial,2831196.0,2835646.0,4450.0,64,L,2835275,2835547,274,431.6,654.7,3421,left
62,2,continuous,14,100,trial,2831196.0,2835646.0,4450.0,64,L,2835567,2835881,316,387.5,584.3,3236,left
62,2,continuous,14,100,postResponse,2831196.0,2835646.0,4450.0,64,L,2835951,2835981,32,1021.1,574.0,3218,NA
62,2,continuous,15,92,fixationCross,2836763.0,2838646.0,1883.0,65,L,2836083,2836163,82,1032.3,573.3,3290,NA
62,2,continuous,15,92,fixationCross,2836763.0,2838646.0,1883.0,65,L,2836189,2836465,278,1222.3,569.1,3345,right
62,2,continuous,15,92,trial,2836763.0,2838646.0,1883.0,65,L,2836497,2836917,422,974.8,563.8,3442,NA
62,2,continuous,15,92,trial,2836763.0,2838646.0,1883.0,65,L,2836973,2837135,164,1333.9,521.1,3350,right
62,2,continuous,15,92,trial,2836763.0,2838646.0,1883.0,65,L,2837151,2837373,224,1372.0,454.6,3085,right
62,2,continuous,15,92,trial,2836763.0,2838646.0,1883.0,65,L,2837439,2837811,374,611.4,495.7,3114,left
62,2,continuous,15,92,trial,2836763.0,2838646.0,1883.0,65,L,2837831,2838061,232,521.7,534.0,3100,left
62,2,continuous,15,92,trial,2836763.0,2838646.0,1883.0,65,L,2838631,2838873,244,545.1,690.3,3390,left
62,2,continuous,16,100,fixationCross,2839746.0,2842763.0,3017.0,66,L,2839275,2839431,158,1165.1,514.8,3488,NA
62,2,continuous,16,100,fixationCross,2839746.0,2842763.0,3017.0,66,L,2839465,2839669,206,981.2,540.9,3681,NA
62,2,continuous,16,100,trial,2839746.0,2842763.0,3017.0,66,L,2839683,2839893,212,951.0,550.5,3450,NA
62,2,continuous,16,100,trial,2839746.0,2842763.0,3017.0,66,L,2839939,2840133,196,637.7,542.2,3327,left
62,2,continuous,16,100,trial,2839746.0,2842763.0,3017.0,66,L,2840159,2840325,168,552.1,523.6,3160,left
62,2,continuous,16,100,trial,2839746.0,2842763.0,3017.0,66,L,2840347,2840941,596,463.8,531.1,3150,left
62,2,continuous,16,100,trial,2839746.0,2842763.0,3017.0,66,L,2840963,2841081,120,426.2,484.1,3185,left
62,2,continuous,16,100,trial,2839746.0,2842763.0,3017.0,66,L,2841107,2841253,148,276.0,470.8,3180,left
62,2,continuous,16,100,trial,2839746.0,2842763.0,3017.0,66,L,2841341,2841495,156,1478.9,513.8,3175,right
62,2,continuous,16,100,trial,2839746.0,2842763.0,3017.0,66,L,2841509,2841923,416,1447.3,506.4,3148,right
62,2,continuous,17,1,fixationCross,2843814.0,2846097.0,2283.0,67,L,2843233,2843365,134,985.0,377.6,3539,NA
62,2,continuous,17,1,fixationCross,2843814.0,2846097.0,2283.0,67,L,2843383,2843513,132,1018.0,329.8,3604,NA
62,2,continuous,17,1,fixationCross,2843814.0,2846097.0,2283.0,67,L,2843559,2843705,148,911.1,546.0,3665,NA
62,2,continuous,17,1,trial,2843814.0,2846097.0,2283.0,67,L,2843717,2843979,264,951.2,555.1,3709,NA
62,2,continuous,17,1,trial,2843814.0,2846097.0,2283.0,67,L,2844029,2844129,102,523.4,551.6,3709,left
62,2,continuous,17,1,trial,2843814.0,2846097.0,2283.0,67,L,2844151,2844715,566,430.5,609.2,3517,left
62,2,continuous,17,1,trial,2843814.0,2846097.0,2283.0,67,L,2844785,2845187,404,1310.0,512.3,3500,right
62,2,continuous,17,1,trial,2843814.0,2846097.0,2283.0,67,L,2845205,2845635,432,1352.4,506.5,3451,right
62,2,continuous,17,1,trial,2843814.0,2846097.0,2283.0,67,L,2845671,2846025,356,1397.9,583.1,3493,right
62,2,continuous,17,1,trial,2843814.0,2846097.0,2283.0,67,L,2846123,2846323,202,532.9,524.6,3605,left
62,2,continuous,17,1,postResponse,2843814.0,2846097.0,2283.0,67,L,2846403,2846431,30,1059.0,519.6,3655,NA
62,2,continuous,18,97,fixationCross,2847213.0,2849831.0,2618.0,68,L,2846505,2846579,76,1108.4,570.0,3633,NA
62,2,continuous,18,97,fixationCross,2847213.0,2849831.0,2618.0,68,L,2846617,2846759,144,1247.2,501.9,3735,right
62,2,continuous,18,97,fixationCross,2847213.0,2849831.0,2618.0,68,L,2846791,2846901,112,1183.6,432.0,3833,right
62,2,continuous,18,97,fixationCross,2847213.0,2849831.0,2618.0,68,L,2846955,2847115,162,930.2,543.5,3854,NA
62,2,continuous,18,97,trial,2847213.0,2849831.0,2618.0,68,L,2847125,2847393,270,958.0,540.6,3852,NA
62,2,continuous,18,97,trial,2847213.0,2849831.0,2618.0,68,L,2847449,2847669,222,1308.3,531.6,3634,right
62,2,continuous,18,97,trial,2847213.0,2849831.0,2618.0,68,L,2847695,2847853,160,1416.2,599.9,3387,right
62,2,continuous,18,97,trial,2847213.0,2849831.0,2618.0,68,L,2847921,2848137,218,592.8,523.0,3493,left
62,2,continuous,18,97,trial,2847213.0,2849831.0,2618.0,68,L,2848157,2848399,244,471.7,537.5,3500,left
62,2,continuous,18,97,trial,2847213.0,2849831.0,2618.0,68,L,2848459,2848617,160,1055.1,923.7,3505,likertHorizontal
62,2,continuous,18,97,trial,2847213.0,2849831.0,2618.0,68,L,2848663,2848839,178,1383.6,952.0,3550,NA
62,2,continuous,18,97,trial,2847213.0,2849831.0,2618.0,68,L,2848899,2849155,258,1457.5,604.5,3571,right
62,2,continuous,18,97,trial,2847213.0,2849831.0,2618.0,68,L,2849175,2849347,174,1487.6,647.2,3546,right
62,2,continuous,18,97,trial,2847213.0,2849831.0,2618.0,68,L,2849385,2849673,290,1441.6,959.8,3678,NA
62,2,continuous,18,97,trial,2847213.0,2849831.0,2618.0,68,L,2849723,2850029,308,1394.8,658.8,3587,right
62,2,continuous,19,82,fixationCross,2850980.0,2857213.0,6233.0,69,L,2850341,2850673,334,1237.3,533.6,3799,right
62,2,continuous,19,82,trial,2850980.0,2857213.0,6233.0,69,L,2850719,2851127,410,969.5,533.9,3700,NA
62,2,continuous,19,82,trial,2850980.0,2857213.0,6233.0,69,L,2851173,2851287,116,1282.9,530.3,3652,right
62,2,continuous,19,82,trial,2850980.0,2857213.0,6233.0,69,L,2851359,2851671,314,537.0,527.9,3425,left
62,2,continuous,19,82,trial,2850980.0,2857213.0,6233.0,69,L,2851685,2851921,238,571.4,545.0,3360,left
62,2,continuous,19,82,trial,2850980.0,2857213.0,6233.0,69,L,2851983,2852167,186,1256.3,421.5,3342,right
62,2,continuous,19,82,trial,2850980.0,2857213.0,6233.0,69,L,2852187,2852439,254,1311.5,457.9,3323,right
62,2,continuous,19,82,trial,2850980.0,2857213.0,6233.0,69,L,2852465,2852769,306,1301.4,375.4,3372,right
62,2,continuous,19,82,trial,2850980.0,2857213.0,6233.0,69,L,2852825,2853357,534,1464.6,579.9,3435,right
62,2,continuous,19,82,trial,2850980.0,2857213.0,6233.0,69,L,2853387,2853555,170,1314.7,425.4,3499,right
62,2,continuous,19,82,trial,2850980.0,2857213.0,6233.0,69,L,2853575,2853907,334,1295.9,371.5,3487,right
62,2,continuous,19,82,trial,2850980.0,2857213.0,6233.0,69,L,2853955,2854595,642,1441.8,590.6,3469,right
62,2,continuous,19,82,trial,2850980.0,2857213.0,6233.0,69,L,2854679,2854987,310,481.6,558.0,3462,left
62,2,continuous,19,82,trial,2850980.0,2857213.0,6233.0,69,L,2855007,2855167,162,564.0,557.0,3350,left
62,2,continuous,19,82,trial,2850980.0,2857213.0,6233.0,69,L,2855225,2855357,134,951.5,951.5,3412,likertHorizontal
62,2,continuous,19,82,trial,2850980.0,2857213.0,6233.0,69,L,2855375,2855889,516,897.0,974.0,3539,likertHorizontal
62,2,continuous,19,82,trial,2850980.0,2857213.0,6233.0,69,L,2855941,2856143,204,1209.2,777.0,3602,NA
62,2,continuous,19,82,trial,2850980.0,2857213.0,6233.0,69,L,2856189,2856385,198,1090.7,984.1,3662,likertHorizontal
62,2,continuous,19,82,trial,2850980.0,2857213.0,6233.0,69,L,2856409,2856639,232,1027.7,950.3,3831,likertHorizontal
62,2,continuous,19,82,trial,2850980.0,2857213.0,6233.0,69,L,2856651,2856863,214,1095.9,948.8,3869,likertHorizontal
62,2,continuous,19,82,trial,2850980.0,2857213.0,6233.0,69,L,2856883,2857061,180,1233.2,943.5,3869,NA
62,2,continuous,19,82,trial,2850980.0,2857213.0,6233.0,69,L,2857075,2857211,138,1287.0,951.4,3856,NA
62,2,continuous,19,82,trial,2850980.0,2857213.0,6233.0,69,L,2857303,2857331,30,1324.0,536.6,3906,right
62,2,continuous,19,82,trial,2850980.0,2857213.0,6233.0,69,L,2857343,2857433,92,1313.4,596.1,3762,right
62,2,continuous,20,41,fixationCross,2858314.0,2860664.0,2350.0,70,L,2857715,2857909,196,1161.9,591.4,3802,NA
62,2,continuous,20,41,fixationCross,2858314.0,2860664.0,2350.0,70,L,2857935,2858069,136,1064.2,529.3,3894,NA
62,2,continuous,20,41,trial,2858314.0,2860664.0,2350.0,70,L,2858093,2858463,372,972.7,546.6,3608,NA
62,2,continuous,20,41,trial,2858314.0,2860664.0,2350.0,70,L,2858509,2858647,140,578.8,508.2,3563,left
62,2,continuous,20,41,trial,2858314.0,2860664.0,2350.0,70,L,2858669,2858833,166,465.3,532.8,3414,left
62,2,continuous,20,41,trial,2858314.0,2860664.0,2350.0,70,L,2858851,2859043,194,443.9,559.6,3339,left
62,2,continuous,20,41,trial,2858314.0,2860664.0,2350.0,70,L,2859111,2859303,194,1372.8,510.4,3357,right
62,2,continuous,20,41,trial,2858314.0,2860664.0,2350.0,70,L,2859327,2859693,368,1482.4,559.2,3425,right
62,2,continuous,20,41,trial,2858314.0,2860664.0,2350.0,70,L,2859717,2860131,416,1526.7,646.7,3517,right
62,2,continuous,20,41,trial,2858314.0,2860664.0,2350.0,70,L,2860209,2860335,128,898.3,946.7,3682,likertHorizontal
62,2,continuous,20,41,trial,2858314.0,2860664.0,2350.0,70,L,2860351,2860871,522,878.0,967.2,3769,likertHorizontal
62,2,continuous,21,16,fixationCross,2861763.0,2865864.0,4101.0,71,L,2861239,2861441,204,1319.5,553.0,3990,right
62,2,continuous,21,16,fixationCross,2861763.0,2865864.0,4101.0,71,L,2861487,2861717,232,986.2,549.8,3966,NA
62,2,continuous,21,16,trial,2861763.0,2865864.0,4101.0,71,L,2861737,2861917,182,962.6,542.1,3726,NA
62,2,continuous,21,16,trial,2861763.0,2865864.0,4101.0,71,L,2861965,2862085,122,549.2,535.0,3683,left
62,2,continuous,21,16,trial,2861763.0,2865864.0,4101.0,71,L,2862109,2862269,162,449.4,578.4,3558,left
62,2,continuous,21,16,trial,2861763.0,2865864.0,4101.0,71,L,2862281,2862513,234,457.0,597.6,3520,left
62,2,continuous,21,16,trial,2861763.0,2865864.0,4101.0,71,L,2862533,2862853,322,517.8,641.1,3552,left
62,2,continuous,21,16,trial,2861763.0,2865864.0,4101.0,71,L,2862901,2863259,360,236.7,542.7,3505,left
62,2,continuous,21,16,trial,2861763.0,2865864.0,4101.0,71,L,2863299,2863545,248,576.1,521.4,3520,left
62,2,continuous,21,16,trial,2861763.0,2865864.0,4101.0,71,L,2863619,2863915,298,1369.9,621.4,3542,right
62,2,continuous,21,16,trial,2861763.0,2865864.0,4101.0,71,L,2863935,2864159,226,1408.9,562.6,3446,right
62,2,continuous,21,16,trial,2861763.0,2865864.0,4101.0,71,L,2864177,2864485,310,1322.8,589.5,3519,right
62,2,continuous,21,16,trial,2861763.0,2865864.0,4101.0,71,L,2864513,2864953,442,1508.5,576.4,3532,right
62,2,continuous,21,16,trial,2861763.0,2865864.0,4101.0,71,L,2864977,2865169,194,1637.9,640.5,3538,right
62,2,continuous,21,16,trial,2861763.0,2865864.0,4101.0,71,L,2865185,2865475,292,1656.4,667.2,3623,right
62,2,continuous,21,16,trial,2861763.0,2865864.0,4101.0,71,L,2865523,2865833,312,1376.7,556.5,3669,right
62,2,continuous,21,16,trial,2861763.0,2865864.0,4101.0,71,L,2865849,2866061,214,1319.0,545.5,3681,right
62,2,continuous,22,94,fixationCross,2866963.0,2871381.0,4418.0,72,L,2866469,2866531,64,815.6,741.1,4042,likertHorizontal
62,2,continuous,22,94,fixationCross,2866963.0,2871381.0,4418.0,72,L,2866581,2866715,136,1061.3,587.4,4087,NA
62,2,continuous,22,94,trial,2866963.0,2871381.0,4418.0,72,L,2866741,2867115,376,955.5,539.0,3947,NA
62,2,continuous,22,94,trial,2866963.0,2871381.0,4418.0,72,L,2867159,2867305,148,1263.9,514.3,3650,right
62,2,continuous,22,94,trial,2866963.0,2871381.0,4418.0,72,L,2867329,2867613,286,1342.6,421.3,3422,right
62,2,continuous,22,94,trial,2866963.0,2871381.0,4418.0,72,L,2867655,2867947,294,1373.3,543.2,3477,right
62,2,continuous,22,94,trial,2866963.0,2871381.0,4418.0,72,L,2867973,2868265,294,1432.4,513.3,3600,right
62,2,continuous,22,94,trial,2866963.0,2871381.0,4418.0,72,L,2868347,2868499,154,558.6,506.3,3654,left
62,2,continuous,22,94,trial,2866963.0,2871381.0,4418.0,72,L,2868523,2868743,222,456.2,530.9,3623,left
62,2,continuous,22,94,trial,2866963.0,2871381.0,4418.0,72,L,2868769,2869103,336,463.2,390.6,3441,left
62,2,continuous,22,94,trial,2866963.0,2871381.0,4418.0,72,L,2869171,2869813,644,1318.0,443.9,3462,right
62,2,continuous,22,94,trial,2866963.0,2871381.0,4418.0,72,L,2869877,2870027,152,1309.3,923.1,3688,NA
62,2,continuous,22,94,trial,2866963.0,2871381.0,4418.0,72,L,2870049,2870303,256,1432.5,976.1,3757,NA
62,2,continuous,22,94,trial,2866963.0,2871381.0,4418.0,72,L,2870329,2870683,356,1276.7,988.3,3800,NA
62,2,continuous,22,94,trial,2866963.0,2871381.0,4418.0,72,L,2870751,2871181,432,1364.2,540.8,3699,right
62,2,continuous,22,94,trial,2866963.0,2871381.0,4418.0,72,L,2871249,2871609,362,1388.0,972.1,3727,NA
62,2,continuous,23,100,fixationCross,2872480.0,2876063.0,3583.0,73,L,2871881,2871929,50,1109.9,597.6,3886,NA
62,2,continuous,23,100,fixationCross,2872480.0,2876063.0,3583.0,73,L,2871939,2872181,244,1112.8,638.3,3938,NA
62,2,continuous,23,100,trial,2872480.0,2876063.0,3583.0,73,L,2872207,2872567,362,945.2,543.9,3914,NA
62,2,continuous,23,100,trial,2872480.0,2876063.0,3583.0,73,L,2872583,2872645,64,931.2,538.4,3799,NA
62,2,continuous,23,100,trial,2872480.0,2876063.0,3583.0,73,L,2872703,2872853,152,525.8,558.0,3665,left
62,2,continuous,23,100,trial,2872480.0,2876063.0,3583.0,73,L,2872875,2873927,1054,459.7,576.4,3480,left
62,2,continuous,23,100,trial,2872480.0,2876063.0,3583.0,73,L,2873937,2874239,304,477.7,560.3,3548,left
62,2,continuous,23,100,trial,2872480.0,2876063.0,3583.0,73,L,2874317,2874617,302,1323.8,605.0,3545,right
62,2,continuous,23,100,trial,2872480.0,2876063.0,3583.0,73,L,2874641,2874947,308,1458.0,549.8,3382,right
62,2,continuous,23,100,trial,2872480.0,2876063.0,3583.0,73,L,2874971,2875311,342,1511.0,473.7,3351,right
62,2,continuous,23,100,trial,2872480.0,2876063.0,3583.0,73,L,2875395,2875523,130,1273.2,975.0,3503,NA
62,2,continuous,23,100,trial,2872480.0,2876063.0,3583.0,73,L,2875549,2875749,202,1432.5,994.4,3589,NA
62,2,continuous,23,100,trial,2872480.0,2876063.0,3583.0,73,L,2875763,2875891,130,1467.3,974.3,3626,NA
62,2,continuous,23,100,trial,2872480.0,2876063.0,3583.0,73,L,2875977,2876129,154,535.6,578.4,3709,left
62,2,continuous,23,100,trial,2872480.0,2876063.0,3583.0,73,L,2876153,2876255,104,497.3,578.3,3658,left
62,2,continuous,24,98,fixationCross,2877131.0,2880597.0,3466.0,74,L,2876599,2876703,106,1313.9,615.1,3782,right
62,2,continuous,24,98,fixationCross,2877131.0,2880597.0,3466.0,74,L,2876739,2876885,148,1066.5,593.1,3951,NA
62,2,continuous,24,98,trial,2877131.0,2880597.0,3466.0,74,L,2876909,2877293,386,959.1,538.5,3895,NA
62,2,continuous,24,98,trial,2877131.0,2880597.0,3466.0,74,L,2877349,2877543,196,587.5,518.8,3593,left
62,2,continuous,24,98,trial,2877131.0,2880597.0,3466.0,74,L,2877569,2877719,152,399.6,503.1,3399,left
62,2,continuous,24,98,trial,2877131.0,2880597.0,3466.0,74,L,2877739,2877895,158,336.8,509.8,3362,left
62,2,continuous,24,98,trial,2877131.0,2880597.0,3466.0,74,L,2877971,2878287,318,1362.2,518.4,3425,right
