participantNo,block,task,blockTrial,response,trialStage,trialStartTime,trialFinishTime,rt,trial,eye,fixStart,fixEnd,fixLength,fixPosX,fixPosY,dilation,aoi
2,1,binary,1,1,fixationCross,4334788.0,4337438.0,2650.0,1,R,4334492,4334750,260,942.6,846.6,4084,likertHorizontal
2,1,binary,1,1,trial,4334788.0,4337438.0,2650.0,1,R,4334944,4335026,84,965.3,544.4,4114,NA
2,1,binary,1,1,trial,4334788.0,4337438.0,2650.0,1,R,4335130,4335224,96,1329.6,506.2,4157,right
2,1,binary,1,1,trial,4334788.0,4337438.0,2650.0,1,R,4335286,4335390,106,636.4,918.5,3987,NA
2,1,binary,1,1,trial,4334788.0,4337438.0,2650.0,1,R,4335414,4335642,230,468.7,968.6,3774,NA
2,1,binary,1,1,trial,4334788.0,4337438.0,2650.0,1,R,4335710,4335868,160,1476.8,955.3,3739,NA
2,1,binary,1,1,trial,4334788.0,4337438.0,2650.0,1,R,4335888,4335994,108,1437.1,998.6,3723,NA
2,1,binary,1,1,trial,4334788.0,4337438.0,2650.0,1,R,4336050,4336214,166,1458.4,537.3,3841,right
2,1,binary,1,1,trial,4334788.0,4337438.0,2650.0,1,R,4336282,4336796,516,523.2,570.9,3612,left
2,1,binary,1,1,trial,4334788.0,4337438.0,2650.0,1,R,4336832,4336944,114,488.9,920.0,3407,NA
2,1,binary,1,1,trial,4334788.0,4337438.0,2650.0,1,R,4336960,4337296,338,485.3,959.9,3448,NA
2,1,binary,1,1,trial,4334788.0,4337438.0,2650.0,1,R,4337308,4337692,386,501.5,980.1,3516,NA
2,1,binary,1,1,postResponse,4334788.0,4337438.0,2650.0,1,R,4337762,4337798,38,929.2,539.8,3514,NA
2,1,binary,2,2,trial,4338171.0,4340638.0,2467.0,2,R,4337898,4338328,432,934.6,539.9,3672,NA
2,1,binary,2,2,trial,4338171.0,4340638.0,2467.0,2,R,4338380,4338682,304,1383.8,604.4,3689,right
2,1,binary,2,2,trial,4338171.0,4340638.0,2467.0,2,R,4338750,4339030,282,477.2,562.2,3345,left
2,1,binary,2,2,trial,4338171.0,4340638.0,2467.0,2,R,4339048,4339216,170,535.8,593.8,3218,left
2,1,binary,2,2,trial,4338171.0,4340638.0,2467.0,2,R,4339280,4339770,492,1424.5,593.4,3343,right
2,1,binary,2,2,trial,4338171.0,4340638.0,2467.0,2,R,4339796,4340200,406,1598.4,530.7,3378,right
2,1,binary,2,2,trial,4338171.0,4340638.0,2467.0,2,R,4340250,4340522,274,1435.5,1021.3,3436,NA
2,1,binary,2,2,trial,4338171.0,4340638.0,2467.0,2,R,4340566,4340926,362,1392.4,588.6,3575,right
2,1,binary,3,1,trial,4341372.0,4344689.0,3317.0,3,R,4341084,4341536,454,1064.4,522.6,3731,NA
2,1,binary,3,1,trial,4341372.0,4344689.0,3317.0,3,R,4341580,4341760,182,1428.5,549.4,3896,right
2,1,binary,3,1,trial,4341372.0,4344689.0,3317.0,3,R,4341774,4341960,188,1471.1,574.2,3663,right
2,1,binary,3,1,trial,4341372.0,4344689.0,3317.0,3,R,4342032,4342204,174,526.9,535.1,3428,left
2,1,binary,3,1,trial,4341372.0,4344689.0,3317.0,3,R,4342224,4342522,300,531.9,490.0,3317,left
2,1,binary,3,1,trial,4341372.0,4344689.0,3317.0,3,R,4342536,4342852,318,577.3,506.8,3285,left
2,1,binary,3,1,trial,4341372.0,4344689.0,3317.0,3,R,4342916,4343610,696,1471.8,563.2,3428,right
2,1,binary,3,1,trial,4341372.0,4344689.0,3317.0,3,R,4343638,4343880,244,1479.4,717.4,3557,right
2,1,binary,3,1,trial,4341372.0,4344689.0,3317.0,3,R,4343954,4344328,376,513.9,543.6,3466,left
2,1,binary,3,1,trial,4341372.0,4344689.0,3317.0,3,R,4344350,4344628,280,535.7,483.4,3477,left
2,1,binary,3,1,postResponse,4341372.0,4344689.0,3317.0,3,R,4344648,4345024,378,601.6,506.5,3525,left
2,1,binary,4,1,trial,4345371.0,4347105.0,1734.0,4,R,4345124,4345438,316,610.7,509.7,3656,left
2,1,binary,4,1,trial,4345371.0,4347105.0,1734.0,4,R,4345476,4345612,138,930.9,543.6,3797,NA
2,1,binary,4,1,trial,4345371.0,4347105.0,1734.0,4,R,4345660,4346002,344,493.1,555.5,3641,left
2,1,binary,4,1,trial,4345371.0,4347105.0,1734.0,4,R,4346068,4346350,284,1441.8,508.9,3493,right
2,1,binary,4,1,trial,4345371.0,4347105.0,1734.0,4,R,4346422,4347002,582,480.6,563.9,3334,left
2,1,binary,4,1,postResponse,4345371.0,4347105.0,1734.0,4,R,4347018,4347464,448,539.3,544.7,3250,left
2,1,binary,5,2,trial,4347838.0,4350339.0,2501.0,5,R,4347564,4348068,506,549.6,545.4,3479,left
2,1,binary,5,2,trial,4347838.0,4350339.0,2501.0,5,R,4348088,4348170,84,502.1,544.0,3594,left
2,1,binary,5,2,trial,4347838.0,4350339.0,2501.0,5,R,4348240,4348364,126,1510.7,499.9,3428,right
2,1,binary,5,2,trial,4347838.0,4350339.0,2501.0,5,R,4348498,4348676,180,1446.0,530.0,3380,right
2,1,binary,5,2,trial,4347838.0,4350339.0,2501.0,5,R,4348686,4348856,172,1425.7,521.3,3578,right
2,1,binary,5,2,trial,4347838.0,4350339.0,2501.0,5,R,4348882,4349182,302,1604.4,547.7,3549,right
2,1,binary,5,2,trial,4347838.0,4350339.0,2501.0,5,R,4349208,4349524,318,1513.1,673.2,3550,right
2,1,binary,5,2,trial,4347838.0,4350339.0,2501.0,5,R,4349600,4349924,326,530.2,559.6,3524,left
2,1,binary,5,2,trial,4347838.0,4350339.0,2501.0,5,R,4349994,4350190,198,1560.9,575.2,3402,right
2,1,binary,5,2,postResponse,4347838.0,4350339.0,2501.0,5,R,4350214,4350678,466,1449.9,520.8,3449,right
2,1,binary,6,2,trial,4351088.0,4353056.0,1968.0,6,R,4350778,4351112,336,1449.9,523.1,3760,right
2,1,binary,6,2,trial,4351088.0,4353056.0,1968.0,6,R,4351160,4351280,122,996.8,532.2,3779,NA
2,1,binary,6,2,trial,4351088.0,4353056.0,1968.0,6,R,4351330,4351720,392,558.1,539.4,3603,left
2,1,binary,6,2,trial,4351088.0,4353056.0,1968.0,6,R,4351784,4352060,278,1421.8,534.6,3431,right
2,1,binary,6,2,trial,4351088.0,4353056.0,1968.0,6,R,4352078,4352636,560,1335.1,565.0,3337,right
2,1,binary,6,2,trial,4351088.0,4353056.0,1968.0,6,R,4352666,4352868,204,1554.1,520.3,3325,right
2,1,binary,6,2,trial,4351088.0,4353056.0,1968.0,6,R,4352938,4353322,386,563.1,562.1,3304,left
2,1,binary,6,2,postResponse,4351088.0,4353056.0,1968.0,6,R,4353344,4353386,44,737.1,542.5,3368,NA
2,1,binary,7,2,trial,4353705.0,4355555.0,1850.0,7,R,4353462,4353872,412,774.5,545.5,3509,NA
2,1,binary,7,2,trial,4353705.0,4355555.0,1850.0,7,R,4353908,4354130,224,534.0,503.7,3653,left
2,1,binary,7,2,trial,4353705.0,4355555.0,1850.0,7,R,4354194,4354424,232,1430.0,523.3,3638,right
2,1,binary,7,2,trial,4353705.0,4355555.0,1850.0,7,R,4354626,4354918,294,1441.1,517.8,3643,right
2,1,binary,7,2,trial,4353705.0,4355555.0,1850.0,7,R,4354988,4355468,482,529.8,505.5,3474,left
2,1,binary,7,2,postResponse,4353705.0,4355555.0,1850.0,7,R,4355480,4355888,410,539.0,476.7,3398,left
2,1,binary,8,2,trial,4356221.0,4358255.0,2034.0,8,R,4355962,4356382,422,692.6,494.7,3552,left
2,1,binary,8,2,trial,4356221.0,4358255.0,2034.0,8,R,4356420,4356600,182,477.0,547.6,3630,left
2,1,binary,8,2,trial,4356221.0,4358255.0,2034.0,8,R,4356616,4356696,82,424.9,556.1,3479,left
2,1,binary,8,2,trial,4356221.0,4358255.0,2034.0,8,R,4356720,4356922,204,561.5,486.8,3352,left
2,1,binary,8,2,trial,4356221.0,4358255.0,2034.0,8,R,4356990,4357194,206,1486.6,540.1,3296,right
2,1,binary,8,2,trial,4356221.0,4358255.0,2034.0,8,R,4357220,4357376,158,1320.0,568.3,3232,right
2,1,binary,8,2,trial,4356221.0,4358255.0,2034.0,8,R,4357388,4357878,492,1273.2,559.5,3206,right
2,1,binary,8,2,trial,4356221.0,4358255.0,2034.0,8,R,4357940,4358096,158,519.9,516.2,3245,left
2,1,binary,8,2,trial,4356221.0,4358255.0,2034.0,8,R,4358116,4358536,422,573.3,494.5,3268,left
2,1,binary,9,1,trial,4358922.0,4360722.0,1800.0,9,R,4358660,4359108,450,874.5,496.8,3431,NA
2,1,binary,9,1,trial,4358922.0,4360722.0,1800.0,9,R,4359156,4359308,154,480.4,555.5,3622,left
2,1,binary,9,1,trial,4358922.0,4360722.0,1800.0,9,R,4359336,4359522,188,421.5,438.8,3545,left
2,1,binary,9,1,trial,4358922.0,4360722.0,1800.0,9,R,4359542,4359742,202,418.0,417.9,3465,left
2,1,binary,9,1,trial,4358922.0,4360722.0,1800.0,9,R,4359810,4360276,468,1395.1,517.3,3502,right
2,1,binary,9,1,trial,4358922.0,4360722.0,1800.0,9,R,4360358,4360520,164,369.0,442.9,3371,left
2,1,binary,9,1,postResponse,4358922.0,4360722.0,1800.0,9,R,4360536,4361040,506,420.2,431.4,3254,left
2,1,binary,10,2,trial,4361422.0,4363355.0,1933.0,10,R,4361154,4361618,466,517.2,449.3,3341,left
2,1,binary,10,2,trial,4361422.0,4363355.0,1933.0,10,R,4361660,4361902,244,472.4,589.4,3312,left
2,1,binary,10,2,trial,4361422.0,4363355.0,1933.0,10,R,4361976,4362124,150,1445.1,466.5,3252,right
2,1,binary,10,2,trial,4361422.0,4363355.0,1933.0,10,R,4362146,4362508,364,1357.8,490.8,3215,right
2,1,binary,10,2,trial,4361422.0,4363355.0,1933.0,10,R,4362524,4362888,366,1392.3,459.2,3250,right
2,1,binary,10,2,trial,4361422.0,4363355.0,1933.0,10,R,4362900,4363150,252,1357.9,481.2,3333,right
2,1,binary,10,2,trial,4361422.0,4363355.0,1933.0,10,R,4363220,4363586,368,490.9,511.9,3345,left
2,1,binary,11,1,trial,4364055.0,4366906.0,2851.0,11,R,4363784,4364200,418,635.7,470.3,3450,left
2,1,binary,11,1,trial,4364055.0,4366906.0,2851.0,11,R,4364238,4364610,374,459.8,579.3,3371,left
2,1,binary,11,1,trial,4364055.0,4366906.0,2851.0,11,R,4364680,4364826,148,1449.3,518.0,3299,right
2,1,binary,11,1,trial,4364055.0,4366906.0,2851.0,11,R,4364852,4365088,238,1337.7,437.0,3332,right
2,1,binary,11,1,trial,4364055.0,4366906.0,2851.0,11,R,4365120,4365370,252,1346.3,584.2,3526,right
2,1,binary,11,1,trial,4364055.0,4366906.0,2851.0,11,R,4365392,4365732,342,1393.0,521.8,3516,right
2,1,binary,11,1,trial,4364055.0,4366906.0,2851.0,11,R,4365758,4366058,302,1556.4,575.9,3473,right
2,1,binary,11,1,trial,4364055.0,4366906.0,2851.0,11,R,4366140,4366302,164,432.8,596.9,3413,left
2,1,binary,11,1,trial,4364055.0,4366906.0,2851.0,11,R,4366316,4366580,266,467.1,589.5,3311,left
2,1,binary,11,1,postResponse,4364055.0,4366906.0,2851.0,11,R,4366594,4367238,646,459.2,563.0,3205,left
2,1,binary,12,1,trial,4367589.0,4369705.0,2116.0,12,R,4367312,4367870,560,477.5,566.2,3463,left
2,1,binary,12,1,trial,4367589.0,4369705.0,2116.0,12,R,4367954,4368198,246,1495.1,559.7,3553,right
2,1,binary,12,1,trial,4367589.0,4369705.0,2116.0,12,R,4368222,4368556,336,1512.6,494.9,3574,right
2,1,binary,12,1,trial,4367589.0,4369705.0,2116.0,12,R,4368630,4368918,290,500.8,539.3,3423,left
2,1,binary,12,1,trial,4367589.0,4369705.0,2116.0,12,R,4368932,4369182,252,466.9,573.3,3350,left
2,1,binary,12,1,trial,4367589.0,4369705.0,2116.0,12,R,4369208,4369426,220,627.0,569.1,3335,left
2,1,binary,12,1,trial,4367589.0,4369705.0,2116.0,12,R,4369458,4369752,296,420.3,580.3,3351,left
2,1,binary,12,1,postResponse,4367589.0,4369705.0,2116.0,12,R,4369768,4370036,270,473.6,573.2,3350,left
2,1,binary,13,2,trial,4370355.0,4372322.0,1967.0,13,R,4370110,4370550,442,478.4,572.1,3416,left
2,1,binary,13,2,trial,4370355.0,4372322.0,1967.0,13,R,4370574,4370900,328,509.3,498.2,3335,left
2,1,binary,13,2,trial,4370355.0,4372322.0,1967.0,13,R,4370968,4371328,362,1416.2,588.6,3268,right
2,1,binary,13,2,trial,4370355.0,4372322.0,1967.0,13,R,4371358,4371646,290,1531.3,677.1,3418,right
2,1,binary,13,2,trial,4370355.0,4372322.0,1967.0,13,R,4371686,4371922,238,1497.5,484.8,3417,right
2,1,binary,13,2,trial,4370355.0,4372322.0,1967.0,13,R,4371994,4372264,272,520.3,514.6,3330,left
2,1,binary,13,2,postResponse,4370355.0,4372322.0,1967.0,13,R,4372326,4372674,350,1383.2,613.6,3465,right
2,1,binary,14,1,fixationCross,4373022.0,4374389.0,1367.0,14,R,4372748,4372766,20,1380.8,609.3,3588,right
2,1,binary,14,1,trial,4373022.0,4374389.0,1367.0,14,R,4372808,4373196,390,1042.5,465.0,3662,NA
2,1,binary,14,1,trial,4373022.0,4374389.0,1367.0,14,R,4373244,4373494,252,540.9,551.9,3580,left
2,1,binary,14,1,trial,4373022.0,4374389.0,1367.0,14,R,4373558,4373862,306,1476.8,569.7,3320,right
2,1,binary,14,1,trial,4373022.0,4374389.0,1367.0,14,R,4373934,4374690,758,498.7,586.1,3143,left
2,1,binary,15,2,trial,4375089.0,4378155.0,3066.0,15,R,4374822,4375276,456,567.5,534.3,3247,left
2,1,binary,15,2,trial,4375089.0,4378155.0,3066.0,15,R,4375294,4375444,152,529.7,572.1,3331,left
2,1,binary,15,2,trial,4375089.0,4378155.0,3066.0,15,R,4375510,4375764,256,1418.8,587.4,3353,right
2,1,binary,15,2,trial,4375089.0,4378155.0,3066.0,15,R,4375786,4375976,192,1438.7,493.1,3437,right
2,1,binary,15,2,trial,4375089.0,4378155.0,3066.0,15,R,4376038,4376166,130,585.7,553.4,3471,left
2,1,binary,15,2,trial,4375089.0,4378155.0,3066.0,15,R,4376182,4376500,320,530.1,567.6,3425,left
2,1,binary,15,2,trial,4375089.0,4378155.0,3066.0,15,R,4376564,4377028,466,1463.1,569.6,3482,right
2,1,binary,15,2,trial,4375089.0,4378155.0,3066.0,15,R,4377100,4377474,376,524.6,559.1,3427,left
2,1,binary,15,2,trial,4375089.0,4378155.0,3066.0,15,R,4377496,4377714,220,608.3,596.3,3399,left
2,1,binary,15,2,trial,4375089.0,4378155.0,3066.0,15,R,4377778,4377984,208,1509.5,577.7,3424,right
2,1,binary,15,2,trial,4375089.0,4378155.0,3066.0,15,R,4378008,4378346,340,1402.7,524.3,3460,right
2,1,binary,16,1,trial,4378838.0,4381155.0,2317.0,16,R,4378586,4378972,388,816.3,512.1,3529,NA
2,1,binary,16,1,trial,4378838.0,4381155.0,2317.0,16,R,4379018,4379260,244,438.2,489.3,3507,left
2,1,binary,16,1,trial,4378838.0,4381155.0,2317.0,16,R,4379272,4379666,396,428.0,458.6,3282,left
2,1,binary,16,1,trial,4378838.0,4381155.0,2317.0,16,R,4379734,4379976,244,1404.2,521.3,3392,right
2,1,binary,16,1,trial,4378838.0,4381155.0,2317.0,16,R,4379992,4380210,220,1449.5,538.7,3532,right
2,1,binary,16,1,trial,4378838.0,4381155.0,2317.0,16,R,4380282,4380420,140,463.8,480.5,3454,left
2,1,binary,16,1,trial,4378838.0,4381155.0,2317.0,16,R,4380436,4380718,284,430.2,447.7,3323,left
2,1,binary,16,1,trial,4378838.0,4381155.0,2317.0,16,R,4380746,4381400,656,492.0,638.2,3267,left
2,1,binary,16,1,postResponse,4378838.0,4381155.0,2317.0,16,R,4381426,4381486,62,550.2,493.3,3293,left
2,1,binary,17,1,trial,4381839.0,4385289.0,3450.0,17,R,4381586,4382194,610,561.5,494.9,3450,left
2,1,binary,17,1,trial,4381839.0,4385289.0,3450.0,17,R,4382258,4382654,398,1372.0,533.5,3347,right
2,1,binary,17,1,trial,4381839.0,4385289.0,3450.0,17,R,4382724,4382948,226,527.0,556.6,3228,left
2,1,binary,17,1,trial,4381839.0,4385289.0,3450.0,17,R,4382978,4383182,206,559.0,691.2,3204,left
2,1,binary,17,1,trial,4381839.0,4385289.0,3450.0,17,R,4383224,4383656,434,375.6,457.4,3142,left
2,1,binary,17,1,trial,4381839.0,4385289.0,3450.0,17,R,4383686,4383946,262,584.5,503.0,3118,left
2,1,binary,17,1,trial,4381839.0,4385289.0,3450.0,17,R,4383980,4384924,946,546.2,711.6,3138,left
2,1,binary,17,1,postResponse,4381839.0,4385289.0,3450.0,17,R,4384956,4385624,670,530.3,479.4,3213,left
2,1,binary,18,1,trial,4385955.0,4388089.0,2134.0,18,R,4385698,4386176,480,540.9,482.0,3417,left
2,1,binary,18,1,trial,4385955.0,4388089.0,2134.0,18,R,4386208,4386366,160,482.9,657.8,3468,left
2,1,binary,18,1,trial,4385955.0,4388089.0,2134.0,18,R,4386432,4386692,262,1394.0,563.9,3366,right
2,1,binary,18,1,trial,4385955.0,4388089.0,2134.0,18,R,4386708,4387130,424,1448.4,555.7,3382,right
2,1,binary,18,1,trial,4385955.0,4388089.0,2134.0,18,R,4387146,4387360,216,1508.7,574.0,3308,right
2,1,binary,18,1,trial,4385955.0,4388089.0,2134.0,18,R,4387434,4388110,678,523.3,605.8,3146,left
2,1,binary,18,1,postResponse,4385955.0,4388089.0,2134.0,18,R,4388132,4388420,290,574.6,520.6,3170,left
2,1,binary,19,2,trial,4388739.0,4390522.0,1783.0,19,R,4388494,4388926,434,581.9,523.2,3383,left
2,1,binary,19,2,trial,4388739.0,4390522.0,1783.0,19,R,4389010,4389174,166,1472.1,577.7,3506,right
2,1,binary,19,2,trial,4388739.0,4390522.0,1783.0,19,R,4389198,4389354,158,1541.1,521.8,3420,right
2,1,binary,19,2,trial,4388739.0,4390522.0,1783.0,19,R,4389384,4389600,218,1377.1,494.4,3445,right
2,1,binary,19,2,trial,4388739.0,4390522.0,1783.0,19,R,4389626,4390042,418,1541.3,528.0,3483,right
2,1,binary,19,2,trial,4388739.0,4390522.0,1783.0,19,R,4390124,4390420,298,589.4,606.5,3438,left
2,1,binary,19,2,trial,4388739.0,4390522.0,1783.0,19,R,4390446,4390738,294,445.4,530.8,3264,left
2,1,binary,19,2,postResponse,4388739.0,4390522.0,1783.0,19,R,4390812,4390854,44,1213.4,485.1,3245,right
2,1,binary,20,2,fixationCross,4391188.0,4393039.0,1851.0,20,R,4390928,4390944,18,1218.9,488.1,3245,right
2,1,binary,20,2,trial,4391188.0,4393039.0,1851.0,20,R,4390986,4391360,376,823.2,447.4,3362,NA
2,1,binary,20,2,trial,4391188.0,4393039.0,1851.0,20,R,4391402,4391548,148,498.8,546.5,3397,left
2,1,binary,20,2,trial,4391188.0,4393039.0,1851.0,20,R,4391570,4391690,122,525.8,454.1,3307,left
2,1,binary,20,2,trial,4391188.0,4393039.0,1851.0,20,R,4391758,4391902,146,1493.1,548.8,3302,right
2,1,binary,20,2,trial,4391188.0,4393039.0,1851.0,20,R,4391920,4392134,216,1537.0,594.9,3279,right
2,1,binary,20,2,trial,4391188.0,4393039.0,1851.0,20,R,4392146,4392336,192,1548.0,574.3,3328,right
2,1,binary,20,2,trial,4391188.0,4393039.0,1851.0,20,R,4392362,4392872,512,1403.7,524.4,3249,right
2,1,binary,20,2,postResponse,4391188.0,4393039.0,1851.0,20,R,4392894,4393370,478,1543.7,555.0,3352,right
2,1,binary,21,2,trial,4393705.0,4396972.0,3267.0,21,R,4393444,4393864,422,900.3,482.9,3482,NA
2,1,binary,21,2,trial,4393705.0,4396972.0,3267.0,21,R,4393910,4394112,204,500.5,527.9,3520,left
2,1,binary,21,2,trial,4393705.0,4396972.0,3267.0,21,R,4394132,4394388,258,418.4,528.4,3257,left
2,1,binary,21,2,trial,4393705.0,4396972.0,3267.0,21,R,4394402,4394662,262,375.9,520.7,3082,left
2,1,binary,21,2,trial,4393705.0,4396972.0,3267.0,21,R,4394682,4394820,140,478.3,538.7,3061,left
2,1,binary,21,2,trial,4393705.0,4396972.0,3267.0,21,R,4394886,4395228,344,1401.1,561.3,3141,right
2,1,binary,21,2,trial,4393705.0,4396972.0,3267.0,21,R,4395248,4395504,258,1494.5,601.1,3342,right
2,1,binary,21,2,trial,4393705.0,4396972.0,3267.0,21,R,4395526,4396292,768,1590.1,576.0,3367,right
2,1,binary,21,2,trial,4393705.0,4396972.0,3267.0,21,R,4396320,4396522,204,1364.6,547.8,3400,right
2,1,binary,21,2,trial,4393705.0,4396972.0,3267.0,21,R,4396546,4396794,250,1427.9,423.9,3418,right
2,1,binary,21,2,trial,4393705.0,4396972.0,3267.0,21,R,4396824,4397158,336,1351.7,574.4,3460,right
2,1,binary,22,2,trial,4397656.0,4400389.0,2733.0,22,R,4397402,4397802,402,872.1,499.8,3581,NA
2,1,binary,22,2,trial,4397656.0,4400389.0,2733.0,22,R,4397848,4398028,182,501.6,573.1,3510,left
2,1,binary,22,2,trial,4397656.0,4400389.0,2733.0,22,R,4398038,4398234,198,474.7,590.4,3376,left
2,1,binary,22,2,trial,4397656.0,4400389.0,2733.0,22,R,4398302,4398514,214,1460.6,608.5,3386,right
2,1,binary,22,2,trial,4397656.0,4400389.0,2733.0,22,R,4398530,4398796,268,1419.9,575.2,3372,right
2,1,binary,22,2,trial,4397656.0,4400389.0,2733.0,22,R,4398816,4398980,166,1448.3,496.8,3306,right
2,1,binary,22,2,trial,4397656.0,4400389.0,2733.0,22,R,4399054,4399250,198,483.8,599.2,3198,left
2,1,binary,22,2,trial,4397656.0,4400389.0,2733.0,22,R,4399262,4399462,202,466.8,585.7,3203,left
2,1,binary,22,2,trial,4397656.0,4400389.0,2733.0,22,R,4399476,4399754,280,471.7,551.9,3223,left
2,1,binary,22,2,trial,4397656.0,4400389.0,2733.0,22,R,4399824,4400098,276,1459.3,591.4,3317,right
2,1,binary,22,2,trial,4397656.0,4400389.0,2733.0,22,R,4400112,4400602,492,1434.2,568.9,3262,right
2,1,binary,22,2,postResponse,4397656.0,4400389.0,2733.0,22,R,4400672,4400722,52,749.5,511.5,3197,NA
2,1,binary,23,2,trial,4401073.0,4402773.0,1700.0,23,R,4400796,4401212,418,752.7,515.2,3322,NA
2,1,binary,23,2,trial,4401073.0,4402773.0,1700.0,23,R,4401254,4401568,316,440.1,583.4,3328,left
2,1,binary,23,2,trial,4401073.0,4402773.0,1700.0,23,R,4401634,4401908,276,1329.0,602.1,3313,right
2,1,binary,23,2,postResponse,4401073.0,4402773.0,1700.0,23,R,4401920,4403104,1186,1377.0,604.7,3399,right
2,1,binary,24,1,trial,4403456.0,4406206.0,2750.0,24,R,4403204,4403516,314,1429.3,531.4,3596,right
2,1,binary,24,1,trial,4403456.0,4406206.0,2750.0,24,R,4403562,4403688,128,971.0,527.1,3671,NA
2,1,binary,24,1,trial,4403456.0,4406206.0,2750.0,24,R,4403734,4404304,572,543.3,529.9,3400,left
2,1,binary,24,1,trial,4403456.0,4406206.0,2750.0,24,R,4404316,4404628,314,504.8,549.6,3232,left
2,1,binary,24,1,trial,4403456.0,4406206.0,2750.0,24,R,4404646,4404818,174,550.6,501.8,3189,left
2,1,binary,24,1,trial,4403456.0,4406206.0,2750.0,24,R,4404844,4405142,300,468.2,590.9,3163,left
2,1,binary,24,1,trial,4403456.0,4406206.0,2750.0,24,R,4405216,4405486,272,1481.7,491.8,3169,right
2,1,binary,24,1,trial,4403456.0,4406206.0,2750.0,24,R,4405510,4405772,264,1437.7,387.8,3164,right
2,1,binary,24,1,postResponse,4403456.0,4406206.0,2750.0,24,R,4405852,4406536,686,471.8,551.2,3075,left
2,1,binary,25,2,trial,4406872.0,4408756.0,1884.0,25,R,4406610,4407110,502,504.5,534.3,3250,left
2,1,binary,25,2,trial,4406872.0,4408756.0,1884.0,25,R,4407124,4407386,264,493.0,571.6,3326,left
2,1,binary,25,2,trial,4406872.0,4408756.0,1884.0,25,R,4407452,4407644,194,1382.1,546.2,3344,right
2,1,binary,25,2,trial,4406872.0,4408756.0,1884.0,25,R,4407660,4407786,128,1320.1,563.0,3382,right
2,1,binary,25,2,trial,4406872.0,4408756.0,1884.0,25,R,4408006,4408592,588,1403.3,564.1,3559,right
2,1,binary,25,2,postResponse,4406872.0,4408756.0,1884.0,25,R,4408610,4409086,478,1493.0,543.9,3423,right
2,1,binary,26,1,fixationCross,4433090.0,4435673.0,2583.0,26,R,4432817,4433059,244,173.2,49.8,3087,NA
2,1,binary,26,1,trial,4433090.0,4435673.0,2583.0,26,R,4433205,4433343,140,942.1,504.9,3367,NA
2,1,binary,26,1,trial,4433090.0,4435673.0,2583.0,26,R,4433387,4433557,172,1335.0,601.9,3569,right
2,1,binary,26,1,trial,4433090.0,4435673.0,2583.0,26,R,4433613,4433765,154,1462.4,979.3,3791,NA
2,1,binary,26,1,trial,4433090.0,4435673.0,2583.0,26,R,4433785,4433899,116,1422.7,1011.1,3797,NA
2,1,binary,26,1,trial,4433090.0,4435673.0,2583.0,26,R,4433969,4434175,208,571.4,600.3,3638,left
2,1,binary,26,1,trial,4433090.0,4435673.0,2583.0,26,R,4434199,4434399,202,564.2,490.8,3499,left
2,1,binary,26,1,trial,4433090.0,4435673.0,2583.0,26,R,4434425,4434661,238,378.6,609.2,3300,left
2,1,binary,26,1,trial,4433090.0,4435673.0,2583.0,26,R,4434691,4434949,260,581.2,526.7,3197,left
2,1,binary,26,1,trial,4433090.0,4435673.0,2583.0,26,R,4435013,4435233,222,1419.4,551.9,3224,right
2,1,binary,26,1,trial,4433090.0,4435673.0,2583.0,26,R,4435295,4435457,164,636.7,562.7,3313,left
2,1,binary,26,1,postResponse,4433090.0,4435673.0,2583.0,26,R,4435475,4436005,532,563.9,530.7,3303,left
2,1,binary,27,2,trial,4436356.0,4437756.0,1400.0,27,R,4436079,4436583,506,569.3,533.7,3425,left
2,1,binary,27,2,trial,4436356.0,4437756.0,1400.0,27,R,4436677,4436845,170,490.5,514.1,3393,left
2,1,binary,27,2,trial,4436356.0,4437756.0,1400.0,27,R,4436869,4437035,168,505.3,453.3,3320,left
2,1,binary,27,2,trial,4436356.0,4437756.0,1400.0,27,R,4437067,4437189,124,550.5,619.2,3327,left
2,1,binary,27,2,trial,4436356.0,4437756.0,1400.0,27,R,4437257,4437395,140,1465.5,541.0,3412,right
2,1,binary,27,2,trial,4436356.0,4437756.0,1400.0,27,R,4437417,4437589,174,1425.3,465.2,3377,right
2,1,binary,27,2,trial,4436356.0,4437756.0,1400.0,27,R,4437599,4438021,424,1410.3,485.7,3465,right
2,1,binary,28,1,fixationCross,4438406.0,4440157.0,1751.0,28,R,4438163,4438287,126,836.6,583.0,3424,NA
2,1,binary,28,1,trial,4438406.0,4440157.0,1751.0,28,R,4438315,4438561,248,668.4,502.5,3509,left
2,1,binary,28,1,trial,4438406.0,4440157.0,1751.0,28,R,4438593,4438785,194,495.0,505.0,3512,left
2,1,binary,28,1,trial,4438406.0,4440157.0,1751.0,28,R,4438801,4438983,184,492.1,461.3,3309,left
2,1,binary,28,1,trial,4438406.0,4440157.0,1751.0,28,R,4439051,4439475,426,1439.8,564.3,3252,right
2,1,binary,28,1,trial,4438406.0,4440157.0,1751.0,28,R,4439547,4439763,218,499.9,496.8,3185,left
2,1,binary,28,1,postResponse,4438406.0,4440157.0,1751.0,28,R,4439779,4440487,710,484.0,462.2,3062,left
2,1,binary,29,2,trial,4440823.0,4442989.0,2166.0,29,R,4440561,4441037,478,497.3,466.9,3302,left
2,1,binary,29,2,trial,4440823.0,4442989.0,2166.0,29,R,4441059,4441209,152,542.0,549.1,3414,left
2,1,binary,29,2,trial,4440823.0,4442989.0,2166.0,29,R,4441229,4441363,136,610.7,493.4,3348,left
2,1,binary,29,2,trial,4440823.0,4442989.0,2166.0,29,R,4441431,4441915,486,1538.8,525.8,3400,right
2,1,binary,29,2,trial,4440823.0,4442989.0,2166.0,29,R,4441945,4442363,420,1313.7,511.4,3353,right
2,1,binary,29,2,trial,4440823.0,4442989.0,2166.0,29,R,4442541,4442641,102,1440.8,508.0,3356,right
2,1,binary,29,2,trial,4440823.0,4442989.0,2166.0,29,R,4442663,4443253,592,1548.4,515.1,3413,right
2,1,binary,30,2,trial,4443706.0,4445773.0,2067.0,30,R,4443419,4443743,326,1088.7,426.0,3562,NA
2,1,binary,30,2,trial,4443706.0,4445773.0,2067.0,30,R,4443773,4443891,120,929.3,522.5,3705,NA
2,1,binary,30,2,trial,4443706.0,4445773.0,2067.0,30,R,4443933,4444097,166,590.7,543.2,3646,left
2,1,binary,30,2,trial,4443706.0,4445773.0,2067.0,30,R,4444115,4444381,268,513.4,537.6,3469,left
2,1,binary,30,2,trial,4443706.0,4445773.0,2067.0,30,R,4444393,4444531,140,507.8,519.7,3300,left
2,1,binary,30,2,trial,4443706.0,4445773.0,2067.0,30,R,4444597,4444823,228,1408.4,580.0,3298,right
2,1,binary,30,2,trial,4443706.0,4445773.0,2067.0,30,R,4444841,4445495,656,1499.4,582.8,3387,right
2,1,binary,30,2,trial,4443706.0,4445773.0,2067.0,30,R,4445519,4445635,118,1363.3,606.4,3395,right
2,1,binary,30,2,postResponse,4443706.0,4445773.0,2067.0,30,R,4445703,4446103,402,519.5,555.9,3293,left
2,1,binary,31,1,trial,4446440.0,4448856.0,2416.0,31,R,4446177,4446651,476,573.9,509.1,3270,left
2,1,binary,31,1,trial,4446440.0,4448856.0,2416.0,31,R,4446669,4446823,156,491.4,541.7,3315,left
2,1,binary,31,1,trial,4446440.0,4448856.0,2416.0,31,R,4446839,4447139,302,435.5,548.5,3132,left
2,1,binary,31,1,trial,4446440.0,4448856.0,2416.0,31,R,4447207,4447363,158,1401.1,531.0,3062,right
2,1,binary,31,1,trial,4446440.0,4448856.0,2416.0,31,R,4447377,4447795,420,1424.7,571.5,3139,right
2,1,binary,31,1,trial,4446440.0,4448856.0,2416.0,31,R,4447807,4448031,226,1437.5,554.1,3224,right
2,1,binary,31,1,trial,4446440.0,4448856.0,2416.0,31,R,4448107,4448379,274,407.6,530.9,3176,left
2,1,binary,31,1,trial,4446440.0,4448856.0,2416.0,31,R,4448391,4448603,214,441.2,545.8,3173,left
2,1,binary,31,1,postResponse,4446440.0,4448856.0,2416.0,31,R,4448625,4449187,564,528.7,530.8,3229,left
2,1,binary,32,2,trial,4449506.0,4451656.0,2150.0,32,R,4449261,4449819,560,522.8,492.9,3431,left
2,1,binary,32,2,trial,4449506.0,4451656.0,2150.0,32,R,4449835,4449935,102,582.4,496.1,3476,left
2,1,binary,32,2,trial,4449506.0,4451656.0,2150.0,32,R,4450001,4450303,304,1447.4,557.7,3521,right
2,1,binary,32,2,trial,4449506.0,4451656.0,2150.0,32,R,4450317,4450735,420,1415.3,553.1,3409,right
2,1,binary,32,2,trial,4449506.0,4451656.0,2150.0,32,R,4450747,4451105,360,1449.8,577.2,3229,right
2,1,binary,32,2,trial,4449506.0,4451656.0,2150.0,32,R,4451181,4451371,192,539.4,559.9,3075,left
2,1,binary,32,2,trial,4449506.0,4451656.0,2150.0,32,R,4451391,4451521,132,595.5,492.5,3042,left
2,1,binary,32,2,trial,4449506.0,4451656.0,2150.0,32,R,4451583,4451925,344,1417.2,531.9,3169,right
2,1,binary,33,1,trial,4452339.0,4455089.0,2750.0,33,R,4452089,4452505,418,745.9,479.0,3282,NA
2,1,binary,33,1,trial,4452339.0,4455089.0,2750.0,33,R,4452531,4452729,200,565.5,525.3,3466,left
2,1,binary,33,1,trial,4452339.0,4455089.0,2750.0,33,R,4452753,4452965,214,448.0,549.6,3343,left
2,1,binary,33,1,trial,4452339.0,4455089.0,2750.0,33,R,4453035,4453625,592,1428.6,550.3,3390,right
2,1,binary,33,1,trial,4452339.0,4455089.0,2750.0,33,R,4453643,4453863,222,1462.3,616.6,3410,right
2,1,binary,33,1,trial,4452339.0,4455089.0,2750.0,33,R,4453885,4454099,216,1394.1,666.8,3360,right
2,1,binary,33,1,trial,4452339.0,4455089.0,2750.0,33,R,4454171,4454745,576,513.4,557.7,3222,left
2,1,binary,33,1,trial,4452339.0,4455089.0,2750.0,33,R,4454789,4455063,276,460.1,993.2,3287,NA
2,1,binary,33,1,trial,4452339.0,4455089.0,2750.0,33,R,4455075,4455319,246,496.5,1001.0,3348,NA
2,1,binary,33,1,postResponse,4452339.0,4455089.0,2750.0,33,R,4455385,4455421,38,830.2,554.1,3358,NA
2,1,binary,34,1,trial,4455757.0,4458140.0,2383.0,34,R,4455495,4455913,420,831.3,543.1,3424,NA
2,1,binary,34,1,trial,4455757.0,4458140.0,2383.0,34,R,4455957,4456191,236,472.1,502.7,3435,left
2,1,binary,34,1,trial,4455757.0,4458140.0,2383.0,34,R,4456257,4456687,432,1371.6,578.9,3339,right
2,1,binary,34,1,trial,4455757.0,4458140.0,2383.0,34,R,4456757,4456989,234,473.3,511.3,3245,left
2,1,binary,34,1,trial,4455757.0,4458140.0,2383.0,34,R,4457007,4457331,326,460.8,448.4,3199,left
2,1,binary,34,1,trial,4455757.0,4458140.0,2383.0,34,R,4457353,4457529,178,447.2,541.1,3216,left
2,1,binary,34,1,trial,4455757.0,4458140.0,2383.0,34,R,4457601,4457819,220,1453.7,593.6,3328,right
2,1,binary,34,1,trial,4455757.0,4458140.0,2383.0,34,R,4457839,4458365,528,1362.0,585.0,3323,right
2,1,binary,34,1,postResponse,4455757.0,4458140.0,2383.0,34,R,4458433,4458471,40,778.0,498.7,3258,NA
2,1,binary,35,1,trial,4458807.0,4461074.0,2267.0,35,R,4458547,4458943,398,777.7,502.2,3369,NA
2,1,binary,35,1,trial,4458807.0,4461074.0,2267.0,35,R,4458985,4459125,142,473.1,506.2,3511,left
2,1,binary,35,1,trial,4458807.0,4461074.0,2267.0,35,R,4459141,4459375,236,449.6,463.1,3371,left
2,1,binary,35,1,trial,4458807.0,4461074.0,2267.0,35,R,4459405,4459547,144,494.4,592.3,3303,left
2,1,binary,35,1,trial,4458807.0,4461074.0,2267.0,35,R,4459615,4460001,388,1428.5,592.8,3383,right
2,1,binary,35,1,trial,4458807.0,4461074.0,2267.0,35,R,4460019,4460253,236,1482.1,632.8,3403,right
2,1,binary,35,1,trial,4458807.0,4461074.0,2267.0,35,R,4460277,4460481,206,1590.2,658.6,3318,right
2,1,binary,35,1,trial,4458807.0,4461074.0,2267.0,35,R,4460565,4460865,302,444.1,470.5,3105,left
2,1,binary,35,1,trial,4458807.0,4461074.0,2267.0,35,R,4460891,4461249,360,507.5,590.2,3034,left
2,1,binary,36,1,trial,4461756.0,4464240.0,2484.0,36,R,4461483,4461983,502,565.5,524.4,3239,left
2,1,binary,36,1,trial,4461756.0,4464240.0,2484.0,36,R,4461999,4462139,142,549.5,568.5,3302,left
2,1,binary,36,1,trial,4461756.0,4464240.0,2484.0,36,R,4462159,4462333,176,492.1,503.9,3284,left
2,1,binary,36,1,trial,4461756.0,4464240.0,2484.0,36,R,4462399,4462567,170,1342.8,511.3,3363,right
2,1,binary,36,1,trial,4461756.0,4464240.0,2484.0,36,R,4462591,4462833,244,1404.6,434.5,3446,right
2,1,binary,36,1,trial,4461756.0,4464240.0,2484.0,36,R,4462853,4463331,480,1509.8,472.0,3514,right
2,1,binary,36,1,trial,4461756.0,4464240.0,2484.0,36,R,4463353,4463445,94,1396.7,463.8,3497,right
2,1,binary,36,1,trial,4461756.0,4464240.0,2484.0,36,R,4463523,4463783,262,484.9,515.2,3360,left
2,1,binary,36,1,trial,4461756.0,4464240.0,2484.0,36,R,4463807,4464533,728,571.3,592.5,3195,left
2,1,binary,37,1,fixationCross,4464939.0,4467090.0,2151.0,37,R,4464671,4464853,184,747.5,471.5,3058,NA
2,1,binary,37,1,trial,4464939.0,4467090.0,2151.0,37,R,4464879,4465113,236,629.2,458.6,3166,left
2,1,binary,37,1,trial,4464939.0,4467090.0,2151.0,37,R,4465141,4465361,222,509.1,545.8,3219,left
2,1,binary,37,1,trial,4464939.0,4467090.0,2151.0,37,R,4465429,4465787,360,1410.7,533.1,3226,right
2,1,binary,37,1,trial,4464939.0,4467090.0,2151.0,37,R,4465807,4465865,60,1456.9,587.8,3324,right
2,1,binary,37,1,trial,4464939.0,4467090.0,2151.0,37,R,4465939,4467025,1088,496.0,545.6,3328,left
2,1,binary,37,1,trial,4464939.0,4467090.0,2151.0,37,R,4467093,4467293,202,1403.9,572.4,3404,right
2,1,binary,38,2,trial,4467790.0,4469590.0,1800.0,38,R,4467519,4467939,422,818.4,523.4,3565,NA
2,1,binary,38,2,trial,4467790.0,4469590.0,1800.0,38,R,4467977,4468163,188,567.4,554.5,3470,left
2,1,binary,38,2,trial,4467790.0,4469590.0,1800.0,38,R,4468185,4468325,142,473.7,560.9,3397,left
2,1,binary,38,2,trial,4467790.0,4469590.0,1800.0,38,R,4468397,4468643,248,1445.7,565.6,3400,right
2,1,binary,38,2,trial,4467790.0,4469590.0,1800.0,38,R,4468663,4468817,156,1375.8,515.0,3418,right
2,1,binary,38,2,trial,4467790.0,4469590.0,1800.0,38,R,4468831,4469079,250,1336.3,513.1,3460,right
2,1,binary,38,2,trial,4467790.0,4469590.0,1800.0,38,R,4469111,4469445,336,1434.3,697.9,3459,right
2,1,binary,38,2,postResponse,4467790.0,4469590.0,1800.0,38,R,4469481,4469919,440,1418.6,485.9,3447,right
2,1,binary,39,1,trial,4470257.0,4472790.0,2533.0,39,R,4470059,4470433,376,691.4,499.0,3464,left
2,1,binary,39,1,trial,4470257.0,4472790.0,2533.0,39,R,4470461,4470593,134,543.7,594.0,3455,left
2,1,binary,39,1,trial,4470257.0,4472790.0,2533.0,39,R,4470627,4470969,344,357.8,423.8,3210,left
2,1,binary,39,1,trial,4470257.0,4472790.0,2533.0,39,R,4470995,4471183,190,462.3,548.0,3174,left
2,1,binary,39,1,trial,4470257.0,4472790.0,2533.0,39,R,4471253,4471543,292,1432.7,549.6,3266,right
2,1,binary,39,1,trial,4470257.0,4472790.0,2533.0,39,R,4471563,4471817,256,1342.1,505.1,3236,right
2,1,binary,39,1,trial,4470257.0,4472790.0,2533.0,39,R,4471839,4471949,112,1412.1,561.9,3223,right
2,1,binary,39,1,trial,4470257.0,4472790.0,2533.0,39,R,4472021,4472321,302,495.8,614.6,3203,left
2,1,binary,39,1,trial,4470257.0,4472790.0,2533.0,39,R,4472343,4472505,164,595.9,604.9,3320,left
2,1,binary,39,1,trial,4470257.0,4472790.0,2533.0,39,R,4472547,4472855,310,400.7,407.1,3372,left
2,1,binary,39,1,postResponse,4470257.0,4472790.0,2533.0,39,R,4473001,4473123,124,573.4,500.0,3433,left
2,1,binary,40,1,trial,4473457.0,4475156.0,1699.0,40,R,4473197,4473869,674,572.4,503.6,3495,left
2,1,binary,40,1,trial,4473457.0,4475156.0,1699.0,40,R,4473887,4474073,188,642.6,488.2,3254,left
2,1,binary,40,1,trial,4473457.0,4475156.0,1699.0,40,R,4474137,4474487,352,1418.6,620.3,3273,right
2,1,binary,40,1,trial,4473457.0,4475156.0,1699.0,40,R,4474503,4474619,118,1426.5,673.3,3183,right
2,1,binary,40,1,trial,4473457.0,4475156.0,1699.0,40,R,4474687,4474953,268,619.9,511.5,3092,left
2,1,binary,40,1,trial,4473457.0,4475156.0,1699.0,40,R,4474973,4475459,488,549.9,505.5,3095,left
2,1,binary,41,2,trial,4475806.0,4479040.0,3234.0,41,R,4475563,4475963,402,772.2,525.6,3283,NA
2,1,binary,41,2,trial,4475806.0,4479040.0,3234.0,41,R,4475991,4476189,200,574.0,574.5,3451,left
2,1,binary,41,2,trial,4475806.0,4479040.0,3234.0,41,R,4476251,4476519,270,1415.2,562.7,3503,right
2,1,binary,41,2,trial,4475806.0,4479040.0,3234.0,41,R,4476539,4476789,252,1339.4,550.2,3439,right
2,1,binary,41,2,trial,4475806.0,4479040.0,3234.0,41,R,4476809,4476949,142,1267.6,577.5,3423,right
2,1,binary,41,2,trial,4475806.0,4479040.0,3234.0,41,R,4476973,4477089,118,1404.0,493.2,3442,right
2,1,binary,41,2,trial,4475806.0,4479040.0,3234.0,41,R,4477207,4477575,370,505.4,544.4,3427,left
2,1,binary,41,2,trial,4475806.0,4479040.0,3234.0,41,R,4477599,4477775,178,439.3,651.8,3442,left
2,1,binary,41,2,trial,4475806.0,4479040.0,3234.0,41,R,4477801,4478169,370,605.6,660.1,3355,left
2,1,binary,41,2,trial,4475806.0,4479040.0,3234.0,41,R,4478191,4478403,214,571.9,568.5,3316,left
2,1,binary,41,2,trial,4475806.0,4479040.0,3234.0,41,R,4478429,4478781,354,404.4,642.4,3323,left
2,1,binary,41,2,trial,4475806.0,4479040.0,3234.0,41,R,4478853,4479269,418,1387.4,574.1,3411,right
2,1,binary,41,2,postResponse,4475806.0,4479040.0,3234.0,41,R,4479331,4479371,42,902.4,486.4,3367,NA
2,1,binary,42,1,trial,4479706.0,4481757.0,2051.0,42,R,4479481,4479921,442,669.2,483.2,3372,left
2,1,binary,42,1,trial,4479706.0,4481757.0,2051.0,42,R,4479947,4480105,160,576.0,580.7,3356,left
2,1,binary,42,1,trial,4479706.0,4481757.0,2051.0,42,R,4480131,4480413,284,374.1,591.0,3193,left
2,1,binary,42,1,trial,4479706.0,4481757.0,2051.0,42,R,4480485,4480783,300,1423.2,567.5,3107,right
2,1,binary,42,1,trial,4479706.0,4481757.0,2051.0,42,R,4480803,4481151,350,1424.3,635.9,3305,right
2,1,binary,42,1,trial,4479706.0,4481757.0,2051.0,42,R,4481223,4481443,222,474.8,607.6,3268,left
2,1,binary,42,1,postResponse,4479706.0,4481757.0,2051.0,42,R,4481465,4482087,624,528.7,547.8,3109,left
2,1,binary,43,1,trial,4482423.0,4484306.0,1883.0,43,R,4482163,4482659,498,540.5,549.1,3370,left
2,1,binary,43,1,trial,4482423.0,4484306.0,1883.0,43,R,4482737,4482969,234,1489.6,584.8,3471,right
2,1,binary,43,1,trial,4482423.0,4484306.0,1883.0,43,R,4482989,4483151,164,1446.8,531.4,3389,right
2,1,binary,43,1,trial,4482423.0,4484306.0,1883.0,43,R,4483175,4483467,294,1217.7,518.5,3249,right
2,1,binary,43,1,trial,4482423.0,4484306.0,1883.0,43,R,4483495,4483615,122,1440.4,552.2,3237,right
2,1,binary,43,1,trial,4482423.0,4484306.0,1883.0,43,R,4483687,4483899,214,552.6,605.8,3112,left
2,1,binary,43,1,trial,4482423.0,4484306.0,1883.0,43,R,4483921,4484125,206,430.0,595.5,3026,left
2,1,binary,43,1,trial,4482423.0,4484306.0,1883.0,43,R,4484151,4484605,456,368.5,448.9,2966,left
2,1,binary,44,2,trial,4484973.0,4486873.0,1900.0,44,R,4484711,4485167,458,638.9,527.3,3157,left
2,1,binary,44,2,trial,4484973.0,4486873.0,1900.0,44,R,4485199,4485541,344,448.4,558.1,3261,left
2,1,binary,44,2,trial,4484973.0,4486873.0,1900.0,44,R,4485555,4485641,88,416.4,553.0,3208,left
2,1,binary,44,2,trial,4484973.0,4486873.0,1900.0,44,R,4485709,4486039,332,1390.7,524.7,3343,right
2,1,binary,44,2,trial,4484973.0,4486873.0,1900.0,44,R,4486059,4486201,144,1463.8,516.6,3368,right
2,1,binary,44,2,trial,4484973.0,4486873.0,1900.0,44,R,4486221,4486613,394,1359.6,517.3,3296,right
2,1,binary,44,2,trial,4484973.0,4486873.0,1900.0,44,R,4486629,4487117,490,1417.6,498.3,3363,right
2,1,binary,45,1,fixationCross,4487573.0,4489257.0,1684.0,45,R,4487305,4487389,86,758.5,485.8,3439,NA
2,1,binary,45,1,trial,4487573.0,4489257.0,1684.0,45,R,4487527,4487777,252,701.3,482.6,3491,left
2,1,binary,45,1,trial,4487573.0,4489257.0,1684.0,45,R,4487805,4487969,166,556.3,552.7,3530,left
2,1,binary,45,1,trial,4487573.0,4489257.0,1684.0,45,R,4487987,4488255,270,488.3,564.0,3373,left
2,1,binary,45,1,trial,4487573.0,4489257.0,1684.0,45,R,4488319,4488513,196,1356.6,599.0,3312,right
2,1,binary,45,1,trial,4487573.0,4489257.0,1684.0,45,R,4488531,4488727,198,1420.5,583.2,3314,right
2,1,binary,45,1,trial,4487573.0,4489257.0,1684.0,45,R,4488803,4489145,344,462.9,569.8,3211,left
2,1,binary,45,1,postResponse,4487573.0,4489257.0,1684.0,45,R,4489163,4489587,426,498.5,530.5,3149,left
2,1,binary,46,2,trial,4489940.0,4492891.0,2951.0,46,R,4489687,4490405,720,505.6,535.9,3305,left
2,1,binary,46,2,trial,4489940.0,4492891.0,2951.0,46,R,4490477,4490703,228,1487.2,568.7,3399,right
2,1,binary,46,2,trial,4489940.0,4492891.0,2951.0,46,R,4490727,4490915,190,1419.1,493.3,3394,right
2,1,binary,46,2,trial,4489940.0,4492891.0,2951.0,46,R,4490941,4491105,166,1269.9,402.5,3367,right
2,1,binary,46,2,trial,4489940.0,4492891.0,2951.0,46,R,4491137,4491431,296,1511.9,430.8,3393,right
2,1,binary,46,2,trial,4489940.0,4492891.0,2951.0,46,R,4491461,4491705,246,1506.3,551.5,3423,right
2,1,binary,46,2,trial,4489940.0,4492891.0,2951.0,46,R,4491719,4492125,408,1502.2,526.9,3452,right
2,1,binary,46,2,trial,4489940.0,4492891.0,2951.0,46,R,4492149,4492511,364,1541.2,614.7,3518,right
2,1,binary,46,2,trial,4489940.0,4492891.0,2951.0,46,R,4492533,4492643,112,1409.7,594.1,3543,right
2,1,binary,46,2,trial,4489940.0,4492891.0,2951.0,46,R,4492717,4493071,356,502.9,571.9,3396,left
2,1,binary,47,2,trial,4493557.0,4496057.0,2500.0,47,R,4493297,4493735,440,757.9,526.7,3425,NA
2,1,binary,47,2,trial,4493557.0,4496057.0,2500.0,47,R,4493775,4493991,218,510.6,568.7,3388,left
2,1,binary,47,2,trial,4493557.0,4496057.0,2500.0,47,R,4494009,4494215,208,452.2,586.6,3206,left
2,1,binary,47,2,trial,4493557.0,4496057.0,2500.0,47,R,4494285,4494815,532,1432.6,581.2,3275,right
2,1,binary,47,2,trial,4493557.0,4496057.0,2500.0,47,R,4494893,4495225,334,457.3,599.3,3129,left
2,1,binary,47,2,trial,4493557.0,4496057.0,2500.0,47,R,4495247,4495483,238,536.5,572.0,3052,left
2,1,binary,47,2,trial,4493557.0,4496057.0,2500.0,47,R,4495547,4495881,336,1400.4,586.6,3165,right
2,1,binary,47,2,postResponse,4493557.0,4496057.0,2500.0,47,R,4495897,4496389,494,1446.8,604.2,3247,right
2,1,binary,48,2,trial,4496757.0,4499457.0,2700.0,48,R,4496537,4496911,376,716.4,535.2,3321,left
2,1,binary,48,2,trial,4496757.0,4499457.0,2700.0,48,R,4496941,4497117,178,531.2,563.9,3396,left
2,1,binary,48,2,trial,4496757.0,4499457.0,2700.0,48,R,4497137,4497617,482,449.9,590.0,3190,left
2,1,binary,48,2,trial,4496757.0,4499457.0,2700.0,48,R,4497689,4498345,658,1437.4,555.8,3261,right
2,1,binary,48,2,trial,4496757.0,4499457.0,2700.0,48,R,4498359,4499063,706,1402.7,584.6,3397,right
2,1,binary,48,2,trial,4496757.0,4499457.0,2700.0,48,R,4499077,4499231,156,1460.0,575.6,3456,right
2,1,binary,48,2,trial,4496757.0,4499457.0,2700.0,48,R,4499305,4499739,436,476.2,608.1,3320,left
2,1,binary,49,1,trial,4500157.0,4503907.0,3750.0,49,R,4499889,4500313,426,729.1,492.4,3262,left
2,1,binary,49,1,trial,4500157.0,4503907.0,3750.0,49,R,4500349,4500533,186,512.1,553.2,3363,left
2,1,binary,49,1,trial,4500157.0,4503907.0,3750.0,49,R,4500551,4500817,268,454.6,524.7,3230,left
2,1,binary,49,1,trial,4500157.0,4503907.0,3750.0,49,R,4500833,4501103,272,454.6,475.3,3139,left
2,1,binary,49,1,trial,4500157.0,4503907.0,3750.0,49,R,4501123,4501263,142,477.0,531.6,3153,left
2,1,binary,49,1,trial,4500157.0,4503907.0,3750.0,49,R,4501331,4501623,294,1382.6,550.0,3266,right
2,1,binary,49,1,trial,4500157.0,4503907.0,3750.0,49,R,4501647,4501955,310,1478.3,505.4,3315,right
2,1,binary,49,1,trial,4500157.0,4503907.0,3750.0,49,R,4501977,4502407,432,1434.2,611.1,3306,right
2,1,binary,49,1,trial,4500157.0,4503907.0,3750.0,49,R,4502479,4502739,262,511.5,547.9,3258,left
2,1,binary,49,1,trial,4500157.0,4503907.0,3750.0,49,R,4502761,4503065,306,461.8,489.9,3229,left
2,1,binary,49,1,trial,4500157.0,4503907.0,3750.0,49,R,4503093,4503921,830,477.3,679.5,3276,left
2,1,binary,49,1,trial,4500157.0,4503907.0,3750.0,49,R,4503941,4504215,276,566.4,641.7,3297,left
2,1,binary,50,1,trial,4504590.0,4506924.0,2334.0,50,R,4504337,4504759,424,640.3,504.2,3347,left
2,1,binary,50,1,trial,4504590.0,4506924.0,2334.0,50,R,4504793,4504971,180,517.8,565.8,3369,left
2,1,binary,50,1,trial,4504590.0,4506924.0,2334.0,50,R,4504991,4505115,126,503.8,495.8,3224,left
2,1,binary,50,1,trial,4504590.0,4506924.0,2334.0,50,R,4505181,4505375,196,1371.0,543.4,3257,right
2,1,binary,50,1,trial,4504590.0,4506924.0,2334.0,50,R,4505391,4505665,276,1421.2,570.9,3281,right
2,1,binary,50,1,trial,4504590.0,4506924.0,2334.0,50,R,4505859,4506085,228,507.7,548.0,3271,left
2,1,binary,50,1,postResponse,4504590.0,4506924.0,2334.0,50,R,4506101,4507255,1156,491.0,505.5,3241,left
2,2,continuous,1,19,trial,4566541.0,4573575.0,7034.0,51,R,4566270,4566680,412,914.4,388.6,3986,NA
2,2,continuous,1,19,trial,4566541.0,4573575.0,7034.0,51,R,4566730,4566860,132,1360.0,523.3,4025,right
2,2,continuous,1,19,trial,4566541.0,4573575.0,7034.0,51,R,4566880,4567020,142,1309.0,520.8,3994,right
2,2,continuous,1,19,trial,4566541.0,4573575.0,7034.0,51,R,4567068,4567224,158,950.7,959.7,3977,likertHorizontal
2,2,continuous,1,19,trial,4566541.0,4573575.0,7034.0,51,R,4567274,4567474,202,1423.9,992.3,3944,NA
2,2,continuous,1,19,trial,4566541.0,4573575.0,7034.0,51,R,4567536,4567816,282,523.7,945.0,3894,NA
2,2,continuous,1,19,trial,4566541.0,4573575.0,7034.0,51,R,4567870,4568056,188,523.8,503.4,3750,left
2,2,continuous,1,19,trial,4566541.0,4573575.0,7034.0,51,R,4568078,4568366,290,564.4,430.6,3650,left
2,2,continuous,1,19,trial,4566541.0,4573575.0,7034.0,51,R,4568396,4568552,158,513.0,600.1,3610,left
2,2,continuous,1,19,trial,4566541.0,4573575.0,7034.0,51,R,4568612,4568744,134,1326.7,537.5,3726,right
2,2,continuous,1,19,trial,4566541.0,4573575.0,7034.0,51,R,4568764,4568892,130,1289.5,526.1,3700,right
2,2,continuous,1,19,trial,4566541.0,4573575.0,7034.0,51,R,4568934,4569130,198,1597.5,462.8,3718,right
2,2,continuous,1,19,trial,4566541.0,4573575.0,7034.0,51,R,4569146,4569246,102,1566.3,500.2,3738,right
2,2,continuous,1,19,trial,4566541.0,4573575.0,7034.0,51,R,4569280,4569452,174,1380.5,696.2,3748,right
2,2,continuous,1,19,trial,4566541.0,4573575.0,7034.0,51,R,4569476,4569766,292,1293.0,659.0,3706,right
2,2,continuous,1,19,trial,4566541.0,4573575.0,7034.0,51,R,4569786,4570052,268,1299.9,618.0,3612,right
2,2,continuous,1,19,trial,4566541.0,4573575.0,7034.0,51,R,4570064,4570184,122,1276.2,612.5,3576,right
2,2,continuous,1,19,trial,4566541.0,4573575.0,7034.0,51,R,4570224,4570594,372,1582.0,500.2,3526,right
2,2,continuous,1,19,trial,4566541.0,4573575.0,7034.0,51,R,4570624,4570896,274,1391.0,707.1,3517,right
2,2,continuous,1,19,trial,4566541.0,4573575.0,7034.0,51,R,4570952,4571104,154,793.8,947.9,3462,likertHorizontal
2,2,continuous,1,19,trial,4566541.0,4573575.0,7034.0,51,R,4571142,4571256,116,511.6,992.2,3412,NA
2,2,continuous,1,19,trial,4566541.0,4573575.0,7034.0,51,R,4571298,4571540,244,532.2,555.5,3359,left
2,2,continuous,1,19,trial,4566541.0,4573575.0,7034.0,51,R,4571564,4571932,370,550.2,448.6,3374,left
2,2,continuous,1,19,trial,4566541.0,4573575.0,7034.0,51,R,4571984,4572166,184,546.2,1008.7,3478,NA
2,2,continuous,1,19,trial,4566541.0,4573575.0,7034.0,51,R,4572188,4572562,376,635.2,954.9,3583,NA
2,2,continuous,1,19,trial,4566541.0,4573575.0,7034.0,51,R,4572622,4572752,132,1382.0,991.1,3677,NA
2,2,continuous,1,19,trial,4566541.0,4573575.0,7034.0,51,R,4572880,4573270,392,648.6,863.5,3660,NA
2,2,continuous,1,19,trial,4566541.0,4573575.0,7034.0,51,R,4573298,4573498,202,569.8,986.1,3664,NA
2,2,continuous,1,19,trial,4566541.0,4573575.0,7034.0,51,R,4573554,4573846,294,705.8,646.4,3641,left
2,2,continuous,2,11,fixationCross,4574258.0,4580325.0,6067.0,52,R,4574006,4574114,110,958.5,498.6,3734,NA
2,2,continuous,2,11,trial,4574258.0,4580325.0,6067.0,52,R,4574176,4574470,296,632.6,436.7,3775,left
2,2,continuous,2,11,trial,4574258.0,4580325.0,6067.0,52,R,4574504,4574684,182,498.8,611.9,3739,left
2,2,continuous,2,11,trial,4574258.0,4580325.0,6067.0,52,R,4574752,4574908,158,1471.0,558.9,3727,right
2,2,continuous,2,11,trial,4574258.0,4580325.0,6067.0,52,R,4574930,4575050,122,1552.2,543.7,3682,right
2,2,continuous,2,11,trial,4574258.0,4580325.0,6067.0,52,R,4575074,4575208,136,1446.5,453.7,3643,right
2,2,continuous,2,11,trial,4574258.0,4580325.0,6067.0,52,R,4575280,4575492,214,475.5,572.0,3462,left
2,2,continuous,2,11,trial,4574258.0,4580325.0,6067.0,52,R,4575506,4575684,180,466.6,603.8,3456,left
2,2,continuous,2,11,trial,4574258.0,4580325.0,6067.0,52,R,4575730,4575916,188,492.0,1011.8,3509,NA
2,2,continuous,2,11,trial,4574258.0,4580325.0,6067.0,52,R,4575988,4576138,152,1417.6,536.5,3592,right
2,2,continuous,2,11,trial,4574258.0,4580325.0,6067.0,52,R,4576170,4576394,226,1440.8,439.0,3596,right
2,2,continuous,2,11,trial,4574258.0,4580325.0,6067.0,52,R,4576420,4576624,206,1454.8,531.1,3622,right
2,2,continuous,2,11,trial,4574258.0,4580325.0,6067.0,52,R,4576702,4577004,304,514.2,608.8,3441,left
2,2,continuous,2,11,trial,4574258.0,4580325.0,6067.0,52,R,4577030,4577286,258,404.5,529.1,3414,left
2,2,continuous,2,11,trial,4574258.0,4580325.0,6067.0,52,R,4577298,4577466,170,376.7,518.4,3431,left
2,2,continuous,2,11,trial,4574258.0,4580325.0,6067.0,52,R,4577512,4577880,370,500.4,973.2,3511,NA
2,2,continuous,2,11,trial,4574258.0,4580325.0,6067.0,52,R,4577916,4578124,210,708.2,957.2,3567,NA
2,2,continuous,2,11,trial,4574258.0,4580325.0,6067.0,52,R,4578142,4578348,208,599.1,955.2,3591,NA
2,2,continuous,2,11,trial,4574258.0,4580325.0,6067.0,52,R,4578392,4578558,168,614.4,609.0,3621,left
2,2,continuous,2,11,trial,4574258.0,4580325.0,6067.0,52,R,4578578,4578802,226,588.1,659.1,3653,left
2,2,continuous,2,11,trial,4574258.0,4580325.0,6067.0,52,R,4578844,4579014,172,420.0,442.5,3600,left
2,2,continuous,2,11,trial,4574258.0,4580325.0,6067.0,52,R,4579064,4579472,410,506.9,979.8,3663,NA
2,2,continuous,2,11,trial,4574258.0,4580325.0,6067.0,52,R,4579512,4579718,208,494.9,562.8,3655,left
2,2,continuous,2,11,trial,4574258.0,4580325.0,6067.0,52,R,4579788,4579934,148,1468.2,542.5,3757,right
2,2,continuous,2,11,trial,4574258.0,4580325.0,6067.0,52,R,4580002,4580520,520,599.6,948.8,3700,NA
2,2,continuous,2,11,postResponse,4574258.0,4580325.0,6067.0,52,R,4580582,4580658,78,714.9,558.4,3586,left
2,2,continuous,3,73,trial,4581008.0,4585241.0,4233.0,53,R,4580758,4581200,444,620.2,488.3,3662,left
2,2,continuous,3,73,trial,4581008.0,4585241.0,4233.0,53,R,4581224,4581414,192,518.3,546.1,3647,left
2,2,continuous,3,73,trial,4581008.0,4585241.0,4233.0,53,R,4581482,4581862,382,1423.8,573.3,3451,right
2,2,continuous,3,73,trial,4581008.0,4585241.0,4233.0,53,R,4581914,4582122,210,914.4,973.2,3406,likertHorizontal
2,2,continuous,3,73,trial,4581008.0,4585241.0,4233.0,53,R,4582184,4582340,158,447.3,621.9,3410,left
2,2,continuous,3,73,trial,4581008.0,4585241.0,4233.0,53,R,4582364,4582462,100,510.2,551.9,3475,left
2,2,continuous,3,73,trial,4581008.0,4585241.0,4233.0,53,R,4582588,4582746,160,533.3,550.7,3465,left
2,2,continuous,3,73,trial,4581008.0,4585241.0,4233.0,53,R,4582810,4583154,346,1410.3,590.7,3570,right
2,2,continuous,3,73,trial,4581008.0,4585241.0,4233.0,53,R,4583222,4583416,196,563.9,578.4,3432,left
2,2,continuous,3,73,trial,4581008.0,4585241.0,4233.0,53,R,4583434,4583596,164,535.4,553.9,3389,left
2,2,continuous,3,73,trial,4581008.0,4585241.0,4233.0,53,R,4583648,4584004,358,1061.5,983.9,3455,likertHorizontal
2,2,continuous,3,73,trial,4581008.0,4585241.0,4233.0,53,R,4584028,4584256,230,1079.6,956.7,3562,likertHorizontal
2,2,continuous,3,73,trial,4581008.0,4585241.0,4233.0,53,R,4584282,4584626,346,1225.5,942.9,3638,NA
2,2,continuous,3,73,trial,4581008.0,4585241.0,4233.0,53,R,4584696,4584852,158,541.3,554.0,3623,left
2,2,continuous,3,73,trial,4581008.0,4585241.0,4233.0,53,R,4584912,4585186,276,1196.0,879.6,3601,NA
2,2,continuous,3,73,trial,4581008.0,4585241.0,4233.0,53,R,4585210,4585444,236,1171.6,951.4,3618,likertHorizontal
2,2,continuous,3,73,postResponse,4581008.0,4585241.0,4233.0,53,R,4585524,4585572,50,662.6,493.0,3613,left
2,2,continuous,4,100,fixationCross,4585908.0,4589058.0,3150.0,54,R,4585646,4585734,90,656.5,493.1,3639,left
2,2,continuous,4,100,trial,4585908.0,4589058.0,3150.0,54,R,4585766,4586072,308,814.5,426.9,3708,NA
2,2,continuous,4,100,trial,4585908.0,4589058.0,3150.0,54,R,4586114,4586310,198,511.5,536.9,3755,left
2,2,continuous,4,100,trial,4585908.0,4589058.0,3150.0,54,R,4586336,4586478,144,356.3,435.3,3616,left
2,2,continuous,4,100,trial,4585908.0,4589058.0,3150.0,54,R,4586548,4586804,258,1351.4,526.9,3552,right
2,2,continuous,4,100,trial,4585908.0,4589058.0,3150.0,54,R,4586826,4587112,288,1469.2,582.1,3675,right
2,2,continuous,4,100,trial,4585908.0,4589058.0,3150.0,54,R,4587156,4587340,186,1442.5,1003.0,3717,NA
2,2,continuous,4,100,trial,4585908.0,4589058.0,3150.0,54,R,4587382,4587560,180,1483.1,597.0,3754,right
2,2,continuous,4,100,trial,4585908.0,4589058.0,3150.0,54,R,4587584,4587920,338,1330.2,592.6,3818,right
2,2,continuous,4,100,trial,4585908.0,4589058.0,3150.0,54,R,4587940,4588318,380,1287.7,522.1,3747,right
2,2,continuous,4,100,trial,4585908.0,4589058.0,3150.0,54,R,4588346,4588654,310,1290.3,624.9,3765,right
2,2,continuous,4,100,trial,4585908.0,4589058.0,3150.0,54,R,4588714,4588910,198,594.7,605.9,3648,left
2,2,continuous,4,100,trial,4585908.0,4589058.0,3150.0,54,R,4588942,4589330,390,372.3,449.1,3383,left
2,2,continuous,5,1,trial,4589758.0,4592658.0,2900.0,55,R,4589488,4589934,448,717.2,533.0,3556,left
2,2,continuous,5,1,trial,4589758.0,4592658.0,2900.0,55,R,4589976,4590194,220,458.2,669.9,3612,left
2,2,continuous,5,1,trial,4589758.0,4592658.0,2900.0,55,R,4590216,4590350,136,464.8,592.7,3403,left
2,2,continuous,5,1,trial,4589758.0,4592658.0,2900.0,55,R,4590422,4590658,238,1524.3,533.5,3422,right
2,2,continuous,5,1,trial,4589758.0,4592658.0,2900.0,55,R,4590678,4590914,238,1599.9,556.3,3502,right
2,2,continuous,5,1,trial,4589758.0,4592658.0,2900.0,55,R,4590936,4591060,126,1573.2,466.8,3562,right
2,2,continuous,5,1,trial,4589758.0,4592658.0,2900.0,55,R,4591136,4591454,320,542.2,668.3,3493,left
2,2,continuous,5,1,trial,4589758.0,4592658.0,2900.0,55,R,4591470,4591728,260,475.9,660.9,3458,left
2,2,continuous,5,1,trial,4589758.0,4592658.0,2900.0,55,R,4591778,4591864,88,543.0,1019.8,3437,NA
2,2,continuous,5,1,trial,4589758.0,4592658.0,2900.0,55,R,4591884,4592076,194,542.6,969.0,3448,NA
2,2,continuous,5,1,trial,4589758.0,4592658.0,2900.0,55,R,4592120,4592396,278,492.7,614.5,3505,left
2,2,continuous,5,1,trial,4589758.0,4592658.0,2900.0,55,R,4592420,4592862,444,517.8,559.7,3508,left
2,2,continuous,6,58,fixationCross,4593308.0,4597292.0,3984.0,56,R,4593064,4593264,202,644.4,480.1,3520,left
2,2,continuous,6,58,trial,4593308.0,4597292.0,3984.0,56,R,4593286,4593478,194,555.6,487.5,3720,left
2,2,continuous,6,58,trial,4593308.0,4597292.0,3984.0,56,R,4593502,4593712,212,543.6,580.5,3649,left
2,2,continuous,6,58,trial,4593308.0,4597292.0,3984.0,56,R,4593780,4594002,224,1442.2,528.3,3499,right
2,2,continuous,6,58,trial,4593308.0,4597292.0,3984.0,56,R,4594014,4594260,248,1477.0,523.6,3401,right
2,2,continuous,6,58,trial,4593308.0,4597292.0,3984.0,56,R,4594284,4594420,138,1392.0,612.8,3340,right
2,2,continuous,6,58,trial,4593308.0,4597292.0,3984.0,56,R,4594490,4594716,228,547.7,576.1,3247,left
2,2,continuous,6,58,trial,4593308.0,4597292.0,3984.0,56,R,4594732,4594944,214,509.6,574.4,3248,left
2,2,continuous,6,58,trial,4593308.0,4597292.0,3984.0,56,R,4594962,4595348,388,542.9,538.3,3289,left
2,2,continuous,6,58,trial,4593308.0,4597292.0,3984.0,56,R,4595416,4595582,168,1467.1,571.9,3425,right
2,2,continuous,6,58,trial,4593308.0,4597292.0,3984.0,56,R,4595600,4595934,336,1479.6,522.8,3422,right
2,2,continuous,6,58,trial,4593308.0,4597292.0,3984.0,56,R,4595984,4596096,114,1137.1,984.4,3357,likertHorizontal
2,2,continuous,6,58,trial,4593308.0,4597292.0,3984.0,56,R,4596124,4596262,140,1418.0,1008.7,3384,NA
2,2,continuous,6,58,trial,4593308.0,4597292.0,3984.0,56,R,4596436,4596548,114,974.8,927.4,3490,likertHorizontal
2,2,continuous,6,58,trial,4593308.0,4597292.0,3984.0,56,R,4596596,4596838,244,1394.1,577.8,3653,right
2,2,continuous,6,58,trial,4593308.0,4597292.0,3984.0,56,R,4596884,4597082,200,1041.9,966.8,3588,likertHorizontal
2,2,continuous,6,58,trial,4593308.0,4597292.0,3984.0,56,R,4597092,4597536,446,1021.0,968.3,3613,likertHorizontal
2,2,continuous,7,29,trial,4597941.0,4602975.0,5034.0,57,R,4597698,4598092,396,698.9,486.5,3697,left
2,2,continuous,7,29,trial,4597941.0,4602975.0,5034.0,57,R,4598126,4598302,178,503.0,533.3,3654,left
2,2,continuous,7,29,trial,4597941.0,4602975.0,5034.0,57,R,4598330,4598598,270,499.1,681.4,3593,left
2,2,continuous,7,29,trial,4597941.0,4602975.0,5034.0,57,R,4598666,4598950,286,1402.2,575.6,3650,right
2,2,continuous,7,29,trial,4597941.0,4602975.0,5034.0,57,R,4598968,4599388,422,1454.5,592.8,3575,right
2,2,continuous,7,29,trial,4597941.0,4602975.0,5034.0,57,R,4599408,4599726,320,1446.0,519.6,3296,right
2,2,continuous,7,29,trial,4597941.0,4602975.0,5034.0,57,R,4599776,4599922,148,1447.1,1010.1,3131,NA
2,2,continuous,7,29,trial,4597941.0,4602975.0,5034.0,57,R,4599998,4600230,234,518.3,535.3,3189,left
2,2,continuous,7,29,trial,4597941.0,4602975.0,5034.0,57,R,4600260,4600618,360,487.6,675.2,3328,left
2,2,continuous,7,29,trial,4597941.0,4602975.0,5034.0,57,R,4600638,4600764,128,527.1,605.9,3335,left
2,2,continuous,7,29,trial,4597941.0,4602975.0,5034.0,57,R,4600900,4601016,118,978.0,977.5,3419,likertHorizontal
2,2,continuous,7,29,trial,4597941.0,4602975.0,5034.0,57,R,4601062,4601244,184,1418.1,1010.6,3614,NA
2,2,continuous,7,29,trial,4597941.0,4602975.0,5034.0,57,R,4601298,4601400,104,1470.8,593.4,3741,right
2,2,continuous,7,29,trial,4597941.0,4602975.0,5034.0,57,R,4601468,4601720,254,554.2,580.4,3623,left
2,2,continuous,7,29,trial,4597941.0,4602975.0,5034.0,57,R,4601764,4601988,226,865.4,995.4,3601,likertHorizontal
2,2,continuous,7,29,trial,4597941.0,4602975.0,5034.0,57,R,4602020,4602182,164,654.0,952.2,3662,NA
2,2,continuous,7,29,trial,4597941.0,4602975.0,5034.0,57,R,4602236,4602476,242,547.6,563.5,3704,left
2,2,continuous,7,29,trial,4597941.0,4602975.0,5034.0,57,R,4602520,4602844,326,726.5,941.7,3832,NA
2,2,continuous,7,29,trial,4597941.0,4602975.0,5034.0,57,R,4602884,4603204,322,491.1,993.0,3795,NA
2,2,continuous,7,29,postResponse,4597941.0,4602975.0,5034.0,57,R,4603280,4603308,30,680.6,573.7,3703,left
2,2,continuous,8,100,trial,4603625.0,4606408.0,2783.0,58,R,4603382,4603710,330,676.5,566.7,3689,left
2,2,continuous,8,100,trial,4603625.0,4606408.0,2783.0,58,R,4603756,4603860,106,990.3,533.2,3700,NA
2,2,continuous,8,100,trial,4603625.0,4606408.0,2783.0,58,R,4603908,4604166,260,518.0,524.4,3567,left
2,2,continuous,8,100,trial,4603625.0,4606408.0,2783.0,58,R,4604184,4604380,198,498.5,485.7,3443,left
2,2,continuous,8,100,trial,4603625.0,4606408.0,2783.0,58,R,4604396,4604752,358,474.7,538.6,3255,left
2,2,continuous,8,100,trial,4603625.0,4606408.0,2783.0,58,R,4604818,4605074,258,1386.7,604.1,3318,right
2,2,continuous,8,100,trial,4603625.0,4606408.0,2783.0,58,R,4605118,4605338,222,1446.7,988.4,3471,NA
2,2,continuous,8,100,trial,4603625.0,4606408.0,2783.0,58,R,4605412,4605620,210,553.6,527.3,3501,left
2,2,continuous,8,100,trial,4603625.0,4606408.0,2783.0,58,R,4605640,4605842,204,466.1,512.6,3495,left
2,2,continuous,8,100,trial,4603625.0,4606408.0,2783.0,58,R,4605860,4606112,254,406.7,492.5,3447,left
2,2,continuous,8,100,trial,4603625.0,4606408.0,2783.0,58,R,4606130,4606236,108,389.0,549.6,3414,left
2,2,continuous,8,100,trial,4603625.0,4606408.0,2783.0,58,R,4606270,4606664,396,577.9,650.9,3468,left
2,2,continuous,8,100,postResponse,4603625.0,4606408.0,2783.0,58,R,4606690,4606744,56,705.1,509.7,3529,left
2,2,continuous,9,16,trial,4607075.0,4611958.0,4883.0,59,R,4606820,4607230,412,724.1,498.8,3649,left
2,2,continuous,9,16,trial,4607075.0,4611958.0,4883.0,59,R,4607264,4607436,174,516.8,574.4,3705,left
2,2,continuous,9,16,trial,4607075.0,4611958.0,4883.0,59,R,4607450,4607738,290,497.7,613.9,3588,left
2,2,continuous,9,16,trial,4607075.0,4611958.0,4883.0,59,R,4607808,4607982,176,1486.2,587.1,3532,right
2,2,continuous,9,16,trial,4607075.0,4611958.0,4883.0,59,R,4608008,4608350,344,1456.3,515.2,3512,right
2,2,continuous,9,16,trial,4607075.0,4611958.0,4883.0,59,R,4608426,4608674,250,456.8,621.5,3437,left
2,2,continuous,9,16,trial,4607075.0,4611958.0,4883.0,59,R,4608688,4608830,144,489.0,623.3,3365,left
2,2,continuous,9,16,trial,4607075.0,4611958.0,4883.0,59,R,4608862,4609138,278,267.8,521.8,3351,left
2,2,continuous,9,16,trial,4607075.0,4611958.0,4883.0,59,R,4609176,4609420,246,541.0,487.1,3340,left
2,2,continuous,9,16,trial,4607075.0,4611958.0,4883.0,59,R,4609430,4609818,390,564.5,506.7,3414,left
2,2,continuous,9,16,trial,4607075.0,4611958.0,4883.0,59,R,4609840,4610128,290,499.8,447.2,3423,left
2,2,continuous,9,16,trial,4607075.0,4611958.0,4883.0,59,R,4610202,4610374,174,1553.6,627.4,3482,right
2,2,continuous,9,16,trial,4607075.0,4611958.0,4883.0,59,R,4610400,4610952,554,1462.5,523.3,3556,right
2,2,continuous,9,16,trial,4607075.0,4611958.0,4883.0,59,R,4610976,4611098,124,1332.4,607.8,3570,right
2,2,continuous,9,16,trial,4607075.0,4611958.0,4883.0,59,R,4611162,4611906,746,603.2,926.0,3516,NA
2,2,continuous,9,16,trial,4607075.0,4611958.0,4883.0,59,R,4611916,4612196,282,625.4,943.5,3587,NA
2,2,continuous,9,16,postResponse,4607075.0,4611958.0,4883.0,59,R,4612256,4612288,34,705.2,530.8,3599,left
2,2,continuous,10,85,fixationCross,4612608.0,4616491.0,3883.0,60,R,4612362,4612456,96,698.4,525.3,3587,left
2,2,continuous,10,85,trial,4612608.0,4616491.0,3883.0,60,R,4612482,4612766,286,583.3,453.2,3597,left
2,2,continuous,10,85,trial,4612608.0,4616491.0,3883.0,60,R,4612794,4613108,316,425.6,584.2,3551,left
2,2,continuous,10,85,trial,4612608.0,4616491.0,3883.0,60,R,4613176,4613410,236,1393.6,471.1,3459,right
2,2,continuous,10,85,trial,4612608.0,4616491.0,3883.0,60,R,4613424,4613784,362,1405.6,447.2,3412,right
2,2,continuous,10,85,trial,4612608.0,4616491.0,3883.0,60,R,4613834,4614032,200,1436.8,985.1,3341,NA
2,2,continuous,10,85,trial,4612608.0,4616491.0,3883.0,60,R,4614082,4614220,140,1392.6,426.6,3413,right
2,2,continuous,10,85,trial,4612608.0,4616491.0,3883.0,60,R,4614286,4614514,230,468.4,555.5,3403,left
2,2,continuous,10,85,trial,4612608.0,4616491.0,3883.0,60,R,4614594,4614844,252,1360.0,931.4,3520,NA
2,2,continuous,10,85,trial,4612608.0,4616491.0,3883.0,60,R,4614888,4615092,206,1425.3,450.7,3663,right
2,2,continuous,10,85,trial,4612608.0,4616491.0,3883.0,60,R,4615102,4615388,288,1407.4,444.9,3633,right
2,2,continuous,10,85,trial,4612608.0,4616491.0,3883.0,60,R,4615426,4615834,410,1493.6,692.1,3619,right
2,2,continuous,10,85,trial,4612608.0,4616491.0,3883.0,60,R,4615878,4616042,166,1412.4,473.9,3654,right
2,2,continuous,10,85,trial,4612608.0,4616491.0,3883.0,60,R,4616054,4616222,170,1408.3,453.1,3617,right
2,2,continuous,10,85,trial,4612608.0,4616491.0,3883.0,60,R,4616270,4616476,208,1319.1,957.2,3535,NA
2,2,continuous,10,85,trial,4612608.0,4616491.0,3883.0,60,R,4616486,4616672,188,1293.8,969.9,3575,NA
2,2,continuous,11,15,fixationCross,4617142.0,4622109.0,4967.0,61,R,4616898,4616964,68,764.5,480.3,3639,NA
2,2,continuous,11,15,trial,4617142.0,4622109.0,4967.0,61,R,4616988,4617352,366,600.8,470.9,3640,left
2,2,continuous,11,15,trial,4617142.0,4622109.0,4967.0,61,R,4617384,4617636,254,453.3,559.6,3528,left
2,2,continuous,11,15,trial,4617142.0,4622109.0,4967.0,61,R,4617658,4617762,106,521.1,493.2,3457,left
2,2,continuous,11,15,trial,4617142.0,4622109.0,4967.0,61,R,4617822,4618048,228,1305.9,562.8,3554,right
2,2,continuous,11,15,trial,4617142.0,4622109.0,4967.0,61,R,4618068,4618278,212,1395.2,594.6,3619,right
2,2,continuous,11,15,trial,4617142.0,4622109.0,4967.0,61,R,4618288,4618552,266,1367.9,609.6,3605,right
2,2,continuous,11,15,trial,4617142.0,4622109.0,4967.0,61,R,4618584,4618716,134,1292.4,472.8,3528,right
2,2,continuous,11,15,trial,4617142.0,4622109.0,4967.0,61,R,4618850,4618970,122,959.0,906.4,3469,likertHorizontal
2,2,continuous,11,15,trial,4617142.0,4622109.0,4967.0,61,R,4618988,4619186,200,946.7,965.1,3519,likertHorizontal
2,2,continuous,11,15,trial,4617142.0,4622109.0,4967.0,61,R,4619244,4619530,288,519.2,546.3,3508,left
2,2,continuous,11,15,trial,4617142.0,4622109.0,4967.0,61,R,4619550,4619888,340,421.3,515.2,3414,left
2,2,continuous,11,15,trial,4617142.0,4622109.0,4967.0,61,R,4619934,4620192,260,599.6,956.2,3473,NA
2,2,continuous,11,15,trial,4617142.0,4622109.0,4967.0,61,R,4620212,4620386,176,522.4,953.3,3548,NA
2,2,continuous,11,15,trial,4617142.0,4622109.0,4967.0,61,R,4620454,4620740,288,1372.8,553.5,3679,right
2,2,continuous,11,15,trial,4617142.0,4622109.0,4967.0,61,R,4620766,4621154,390,1362.9,621.5,3654,right
2,2,continuous,11,15,trial,4617142.0,4622109.0,4967.0,61,R,4621218,4621508,292,653.0,943.9,3469,NA
2,2,continuous,11,15,trial,4617142.0,4622109.0,4967.0,61,R,4621552,4621844,294,513.6,502.8,3442,left
2,2,continuous,11,15,trial,4617142.0,4622109.0,4967.0,61,R,4621866,4622158,294,407.6,483.6,3499,left
2,2,continuous,11,15,postResponse,4617142.0,4622109.0,4967.0,61,R,4622184,4622442,260,520.4,530.1,3531,left
2,2,continuous,12,58,trial,4622775.0,4625842.0,3067.0,62,R,4622516,4622924,410,760.3,519.3,3611,NA
2,2,continuous,12,58,trial,4622775.0,4625842.0,3067.0,62,R,4622952,4623098,148,513.2,518.3,3721,left
2,2,continuous,12,58,trial,4622775.0,4625842.0,3067.0,62,R,4623122,4623364,244,369.0,462.8,3452,left
2,2,continuous,12,58,trial,4622775.0,4625842.0,3067.0,62,R,4623434,4623588,156,1379.6,539.7,3320,right
2,2,continuous,12,58,trial,4622775.0,4625842.0,3067.0,62,R,4623606,4623978,374,1313.4,547.0,3342,right
2,2,continuous,12,58,trial,4622775.0,4625842.0,3067.0,62,R,4624032,4624186,156,888.4,995.5,3405,likertHorizontal
2,2,continuous,12,58,trial,4622775.0,4625842.0,3067.0,62,R,4624346,4624434,90,765.3,902.4,3451,likertHorizontal
2,2,continuous,12,58,trial,4622775.0,4625842.0,3067.0,62,R,4624458,4625198,742,982.1,964.3,3591,likertHorizontal
2,2,continuous,12,58,trial,4622775.0,4625842.0,3067.0,62,R,4625252,4625384,134,576.0,549.3,3583,left
2,2,continuous,12,58,trial,4622775.0,4625842.0,3067.0,62,R,4625422,4625672,252,373.7,450.4,3500,left
2,2,continuous,12,58,trial,4622775.0,4625842.0,3067.0,62,R,4625726,4626038,314,905.1,766.0,3474,likertHorizontal
2,2,continuous,13,42,fixationCross,4626525.0,4632842.0,6317.0,63,R,4626274,4626336,64,782.4,503.1,3592,NA
2,2,continuous,13,42,trial,4626525.0,4632842.0,6317.0,63,R,4626374,4626718,346,600.4,494.8,3674,left
2,2,continuous,13,42,trial,4626525.0,4632842.0,6317.0,63,R,4626744,4626952,210,533.3,583.0,3602,left
2,2,continuous,13,42,trial,4626525.0,4632842.0,6317.0,63,R,4626970,4627130,162,516.9,551.3,3457,left
2,2,continuous,13,42,trial,4626525.0,4632842.0,6317.0,63,R,4627196,4627386,192,1394.7,485.4,3405,right
2,2,continuous,13,42,trial,4626525.0,4632842.0,6317.0,63,R,4627410,4627850,442,1427.3,440.2,3452,right
2,2,continuous,13,42,trial,4626525.0,4632842.0,6317.0,63,R,4627906,4628070,166,947.5,967.6,3573,likertHorizontal
2,2,continuous,13,42,trial,4626525.0,4632842.0,6317.0,63,R,4628112,4628254,144,1388.0,987.4,3662,NA
2,2,continuous,13,42,trial,4626525.0,4632842.0,6317.0,63,R,4628316,4628586,272,1430.6,480.3,3706,right
2,2,continuous,13,42,trial,4626525.0,4632842.0,6317.0,63,R,4628602,4628864,264,1430.3,442.5,3734,right
2,2,continuous,13,42,trial,4626525.0,4632842.0,6317.0,63,R,4628882,4629106,226,1482.1,468.5,3701,right
2,2,continuous,13,42,trial,4626525.0,4632842.0,6317.0,63,R,4629126,4629324,200,1431.2,492.5,3663,right
2,2,continuous,13,42,trial,4626525.0,4632842.0,6317.0,63,R,4629396,4629756,362,502.4,581.9,3508,left
2,2,continuous,13,42,trial,4626525.0,4632842.0,6317.0,63,R,4629894,4630210,318,515.3,562.6,3392,left
2,2,continuous,13,42,trial,4626525.0,4632842.0,6317.0,63,R,4630276,4630868,594,1422.6,455.7,3378,right
2,2,continuous,13,42,trial,4626525.0,4632842.0,6317.0,63,R,4630944,4631154,212,513.5,597.1,3336,left
2,2,continuous,13,42,trial,4626525.0,4632842.0,6317.0,63,R,4631172,4632024,854,517.1,555.7,3250,left
2,2,continuous,13,42,trial,4626525.0,4632842.0,6317.0,63,R,4632072,4632606,536,883.3,954.0,3317,likertHorizontal
2,2,continuous,13,42,trial,4626525.0,4632842.0,6317.0,63,R,4632682,4633040,360,1431.9,496.0,3526,right
2,2,continuous,14,1,fixationCross,4633526.0,4637042.0,3516.0,64,R,4633254,4633360,108,759.7,504.0,3572,NA
2,2,continuous,14,1,trial,4633526.0,4637042.0,3516.0,64,R,4633384,4633692,310,630.8,460.1,3616,left
2,2,continuous,14,1,trial,4633526.0,4637042.0,3516.0,64,R,4633726,4634050,326,432.1,437.2,3466,left
2,2,continuous,14,1,trial,4633526.0,4637042.0,3516.0,64,R,4634122,4634406,286,1452.4,547.5,3386,right
2,2,continuous,14,1,trial,4633526.0,4637042.0,3516.0,64,R,4634430,4634760,332,1565.4,586.1,3350,right
2,2,continuous,14,1,trial,4633526.0,4637042.0,3516.0,64,R,4634788,4635016,230,1484.3,472.9,3250,right
2,2,continuous,14,1,trial,4633526.0,4637042.0,3516.0,64,R,4635046,4635324,280,1319.5,702.8,3235,right
2,2,continuous,14,1,trial,4633526.0,4637042.0,3516.0,64,R,4635370,4635658,290,1591.5,602.3,3302,right
2,2,continuous,14,1,trial,4633526.0,4637042.0,3516.0,64,R,4635680,4635924,246,1576.9,523.9,3329,right
2,2,continuous,14,1,trial,4633526.0,4637042.0,3516.0,64,R,4636006,4636180,176,473.4,451.6,3239,left
2,2,continuous,14,1,trial,4633526.0,4637042.0,3516.0,64,R,4636200,4636332,134,422.3,386.9,3197,left
2,2,continuous,14,1,trial,4633526.0,4637042.0,3516.0,64,R,4636410,4636694,286,1543.0,530.4,3396,right
2,2,continuous,14,1,trial,4633526.0,4637042.0,3516.0,64,R,4636714,4636816,104,1585.6,520.7,3454,right
2,2,continuous,14,1,trial,4633526.0,4637042.0,3516.0,64,R,4636896,4637036,142,470.5,430.6,3351,left
2,2,continuous,14,1,postResponse,4633526.0,4637042.0,3516.0,64,R,4637058,4637372,316,435.5,381.3,3274,left
2,2,continuous,15,59,trial,4637725.0,4642626.0,4901.0,65,R,4637448,4637872,426,746.1,499.5,3511,NA
2,2,continuous,15,59,trial,4637725.0,4642626.0,4901.0,65,R,4637914,4638026,114,425.2,487.4,3608,left
2,2,continuous,15,59,trial,4637725.0,4642626.0,4901.0,65,R,4638050,4638286,238,410.5,453.5,3509,left
2,2,continuous,15,59,trial,4637725.0,4642626.0,4901.0,65,R,4638358,4638630,274,1467.7,573.9,3567,right
2,2,continuous,15,59,trial,4637725.0,4642626.0,4901.0,65,R,4638656,4638790,136,1608.7,557.2,3579,right
2,2,continuous,15,59,trial,4637725.0,4642626.0,4901.0,65,R,4638828,4639158,332,1324.0,427.0,3579,right
2,2,continuous,15,59,trial,4637725.0,4642626.0,4901.0,65,R,4639172,4639504,334,1366.8,428.6,3551,right
2,2,continuous,15,59,trial,4637725.0,4642626.0,4901.0,65,R,4639528,4639842,316,1265.3,417.3,3510,right
2,2,continuous,15,59,trial,4637725.0,4642626.0,4901.0,65,R,4639900,4639998,100,743.5,608.0,3516,NA
2,2,continuous,15,59,trial,4637725.0,4642626.0,4901.0,65,R,4640038,4640164,128,423.3,485.0,3469,left
2,2,continuous,15,59,trial,4637725.0,4642626.0,4901.0,65,R,4640182,4640288,108,412.8,450.5,3452,left
2,2,continuous,15,59,trial,4637725.0,4642626.0,4901.0,65,R,4640350,4640534,186,994.9,833.5,3471,likertHorizontal
2,2,continuous,15,59,trial,4637725.0,4642626.0,4901.0,65,R,4640558,4640774,218,1153.2,945.3,3540,likertHorizontal
2,2,continuous,15,59,trial,4637725.0,4642626.0,4901.0,65,R,4640824,4640994,172,1551.4,509.1,3694,right
2,2,continuous,15,59,trial,4637725.0,4642626.0,4901.0,65,R,4641012,4641468,458,1617.2,538.9,3640,right
2,2,continuous,15,59,trial,4637725.0,4642626.0,4901.0,65,R,4641492,4641742,252,1494.2,561.8,3646,right
2,2,continuous,15,59,trial,4637725.0,4642626.0,4901.0,65,R,4641772,4642034,264,1338.8,432.7,3585,right
2,2,continuous,15,59,trial,4637725.0,4642626.0,4901.0,65,R,4642050,4642330,282,1270.9,425.5,3571,right
2,2,continuous,15,59,trial,4637725.0,4642626.0,4901.0,65,R,4642402,4642516,116,489.8,430.7,3547,left
2,2,continuous,15,59,postResponse,4637725.0,4642626.0,4901.0,65,R,4642534,4642958,426,425.3,444.7,3498,left
2,2,continuous,16,20,fixationCross,4643309.0,4647225.0,3916.0,66,R,4643056,4643112,58,426.4,442.5,3486,left
2,2,continuous,16,20,trial,4643309.0,4647225.0,3916.0,66,R,4643140,4643544,406,630.7,446.3,3558,left
2,2,continuous,16,20,trial,4643309.0,4647225.0,3916.0,66,R,4643576,4643786,212,537.2,650.3,3569,left
2,2,continuous,16,20,trial,4643309.0,4647225.0,3916.0,66,R,4643896,4644042,148,1445.0,494.2,3479,right
2,2,continuous,16,20,trial,4643309.0,4647225.0,3916.0,66,R,4644066,4644430,366,1492.7,433.4,3603,right
2,2,continuous,16,20,trial,4643309.0,4647225.0,3916.0,66,R,4644506,4644722,218,501.0,597.4,3473,left
2,2,continuous,16,20,trial,4643309.0,4647225.0,3916.0,66,R,4644738,4645374,638,517.9,647.6,3335,left
2,2,continuous,16,20,trial,4643309.0,4647225.0,3916.0,66,R,4645398,4645594,198,421.3,527.7,3323,left
2,2,continuous,16,20,trial,4643309.0,4647225.0,3916.0,66,R,4645652,4645796,146,507.4,991.2,3355,NA
2,2,continuous,16,20,trial,4643309.0,4647225.0,3916.0,66,R,4645872,4646002,132,1532.0,483.3,3427,right
2,2,continuous,16,20,trial,4643309.0,4647225.0,3916.0,66,R,4646026,4646448,424,1491.8,434.5,3576,right
2,2,continuous,16,20,trial,4643309.0,4647225.0,3916.0,66,R,4646520,4646720,202,661.1,955.0,3595,NA
2,2,continuous,16,20,trial,4643309.0,4647225.0,3916.0,66,R,4646736,4647026,292,622.3,955.5,3562,NA
2,2,continuous,16,20,trial,4643309.0,4647225.0,3916.0,66,R,4647036,4647420,386,671.5,948.8,3587,NA
2,2,continuous,17,100,trial,4647925.0,4649992.0,2067.0,67,R,4647658,4648092,436,626.8,436.5,3648,left
2,2,continuous,17,100,trial,4647925.0,4649992.0,2067.0,67,R,4648122,4648444,324,545.4,544.9,3579,left
2,2,continuous,17,100,trial,4647925.0,4649992.0,2067.0,67,R,4648506,4648750,246,1355.1,547.6,3425,right
2,2,continuous,17,100,trial,4647925.0,4649992.0,2067.0,67,R,4648768,4649448,682,1436.2,559.1,3472,right
2,2,continuous,17,100,trial,4647925.0,4649992.0,2067.0,67,R,4649474,4649706,234,1531.7,667.7,3517,right
2,2,continuous,17,100,trial,4647925.0,4649992.0,2067.0,67,R,4649720,4649876,158,1560.7,648.6,3532,right
2,2,continuous,17,100,postResponse,4647925.0,4649992.0,2067.0,67,R,4649946,4650324,380,602.5,531.8,3370,left
2,2,continuous,18,62,fixationCross,4650642.0,4653642.0,3000.0,68,R,4650398,4650414,18,601.4,529.0,3314,left
2,2,continuous,18,62,trial,4650642.0,4653642.0,3000.0,68,R,4650436,4650824,390,708.3,470.6,3369,left
2,2,continuous,18,62,trial,4650642.0,4653642.0,3000.0,68,R,4650860,4651086,228,536.3,563.1,3438,left
2,2,continuous,18,62,trial,4650642.0,4653642.0,3000.0,68,R,4651152,4651374,224,1368.4,512.7,3414,right
2,2,continuous,18,62,trial,4650642.0,4653642.0,3000.0,68,R,4651400,4651598,200,1570.7,607.1,3447,right
2,2,continuous,18,62,trial,4650642.0,4653642.0,3000.0,68,R,4651782,4651872,92,1555.2,609.4,3516,right
2,2,continuous,18,62,trial,4650642.0,4653642.0,3000.0,68,R,4651940,4652148,210,626.0,577.4,3540,left
2,2,continuous,18,62,trial,4650642.0,4653642.0,3000.0,68,R,4652176,4652424,250,485.2,576.5,3426,left
2,2,continuous,18,62,trial,4650642.0,4653642.0,3000.0,68,R,4652452,4652614,164,705.8,603.1,3343,left
2,2,continuous,18,62,trial,4650642.0,4653642.0,3000.0,68,R,4652662,4653376,716,1036.6,938.4,3529,likertHorizontal
2,2,continuous,18,62,trial,4650642.0,4653642.0,3000.0,68,R,4653418,4653860,444,1296.2,577.3,3714,right
2,2,continuous,19,100,trial,4654342.0,4656859.0,2517.0,69,R,4654074,4654498,426,757.6,457.2,3696,NA
2,2,continuous,19,100,trial,4654342.0,4656859.0,2517.0,69,R,4654538,4654766,230,519.8,598.6,3558,left
2,2,continuous,19,100,trial,4654342.0,4656859.0,2517.0,69,R,4654786,4655044,260,438.5,565.4,3303,left
2,2,continuous,19,100,trial,4654342.0,4656859.0,2517.0,69,R,4655118,4655368,252,1485.8,609.7,3268,right
2,2,continuous,19,100,trial,4654342.0,4656859.0,2517.0,69,R,4655378,4655830,454,1467.6,610.9,3357,right
2,2,continuous,19,100,trial,4654342.0,4656859.0,2517.0,69,R,4655888,4656102,216,1063.3,983.8,3355,likertHorizontal
2,2,continuous,19,100,trial,4654342.0,4656859.0,2517.0,69,R,4656132,4656364,234,1347.7,991.1,3478,NA
2,2,continuous,19,100,trial,4654342.0,4656859.0,2517.0,69,R,4656434,4656622,190,455.6,577.1,3643,left
2,2,continuous,19,100,trial,4654342.0,4656859.0,2517.0,69,R,4656644,4656838,196,525.8,563.9,3633,left
2,2,continuous,19,100,trial,4654342.0,4656859.0,2517.0,69,R,4656908,4657096,190,1513.2,593.5,3625,right
2,2,continuous,19,100,postResponse,4654342.0,4656859.0,2517.0,69,R,4657152,4657190,40,971.0,518.2,3603,NA
2,2,continuous,20,100,trial,4657509.0,4659725.0,2216.0,70,R,4657264,4657654,392,964.7,515.0,3847,NA
2,2,continuous,20,100,trial,4657509.0,4659725.0,2216.0,70,R,4657702,4657832,132,574.7,555.6,3901,left
2,2,continuous,20,100,trial,4657509.0,4659725.0,2216.0,70,R,4657894,4658170,278,1447.8,596.5,3712,right
2,2,continuous,20,100,trial,4657509.0,4659725.0,2216.0,70,R,4658192,4658324,134,1444.1,521.9,3696,right
2,2,continuous,20,100,trial,4657509.0,4659725.0,2216.0,70,R,4658390,4658738,350,592.5,563.2,3622,left
2,2,continuous,20,100,trial,4657509.0,4659725.0,2216.0,70,R,4658800,4658958,160,1393.2,634.9,3766,right
2,2,continuous,20,100,trial,4657509.0,4659725.0,2216.0,70,R,4658980,4659188,210,1496.3,635.3,3765,right
2,2,continuous,20,100,trial,4657509.0,4659725.0,2216.0,70,R,4659204,4659456,254,1483.8,598.9,3782,right
2,2,continuous,20,100,trial,4657509.0,4659725.0,2216.0,70,R,4659478,4659706,230,1448.8,686.5,3797,right
2,2,continuous,20,100,trial,4657509.0,4659725.0,2216.0,70,R,4659734,4659926,194,1419.8,517.4,3778,right
2,2,continuous,20,100,postResponse,4657509.0,4659725.0,2216.0,70,R,4659988,4660058,72,790.8,475.1,3676,NA
2,2,continuous,21,76,trial,4660442.0,4664460.0,4018.0,71,R,4660156,4660600,446,787.3,471.6,3805,NA
2,2,continuous,21,76,trial,4660442.0,4664460.0,4018.0,71,R,4660638,4660736,100,527.1,545.0,3768,left
2,2,continuous,21,76,trial,4660442.0,4664460.0,4018.0,71,R,4660800,4661096,298,1470.5,584.8,3729,right
2,2,continuous,21,76,trial,4660442.0,4664460.0,4018.0,71,R,4661116,4661302,188,1428.9,520.0,3685,right
2,2,continuous,21,76,trial,4660442.0,4664460.0,4018.0,71,R,4661376,4661618,244,473.3,555.1,3438,left
2,2,continuous,21,76,trial,4660442.0,4664460.0,4018.0,71,R,4661634,4662082,450,517.1,545.7,3392,left
2,2,continuous,21,76,trial,4660442.0,4664460.0,4018.0,71,R,4662094,4662274,182,486.3,543.3,3374,left
2,2,continuous,21,76,trial,4660442.0,4664460.0,4018.0,71,R,4662298,4662598,302,385.0,628.5,3363,left
2,2,continuous,21,76,trial,4660442.0,4664460.0,4018.0,71,R,4662640,4662794,156,663.5,948.2,3477,NA
2,2,continuous,21,76,trial,4660442.0,4664460.0,4018.0,71,R,4662860,4663170,312,1494.4,601.6,3561,right
2,2,continuous,21,76,trial,4660442.0,4664460.0,4018.0,71,R,4663186,4663340,156,1545.9,574.9,3561,right
2,2,continuous,21,76,trial,4660442.0,4664460.0,4018.0,71,R,4663360,4663530,172,1557.4,510.6,3557,right
2,2,continuous,21,76,trial,4660442.0,4664460.0,4018.0,71,R,4663560,4663876,318,1390.9,552.2,3497,right
2,2,continuous,21,76,trial,4660442.0,4664460.0,4018.0,71,R,4663920,4664324,406,1224.1,932.4,3514,NA
2,2,continuous,21,76,trial,4660442.0,4664460.0,4018.0,71,R,4664364,4664632,270,1208.5,710.4,3650,right
2,2,continuous,21,76,postResponse,4660442.0,4664460.0,4018.0,71,R,4664746,4664790,46,772.2,423.1,3608,NA
2,2,continuous,22,39,trial,4665142.0,4669976.0,4834.0,72,R,4664898,4665370,474,600.9,477.2,3637,left
2,2,continuous,22,39,trial,4665142.0,4669976.0,4834.0,72,R,4665398,4665576,180,565.5,652.6,3488,left
2,2,continuous,22,39,trial,4665142.0,4669976.0,4834.0,72,R,4665614,4665906,294,536.7,484.3,3295,left
2,2,continuous,22,39,trial,4665142.0,4669976.0,4834.0,72,R,4665970,4666242,274,1354.2,495.7,3344,right
2,2,continuous,22,39,trial,4665142.0,4669976.0,4834.0,72,R,4666264,4666512,250,1445.1,472.9,3405,right
2,2,continuous,22,39,trial,4665142.0,4669976.0,4834.0,72,R,4666588,4666896,310,483.3,618.4,3270,left
2,2,continuous,22,39,trial,4665142.0,4669976.0,4834.0,72,R,4666918,4667170,254,395.1,676.9,3297,left
2,2,continuous,22,39,trial,4665142.0,4669976.0,4834.0,72,R,4667194,4667436,244,545.9,675.7,3295,left
2,2,continuous,22,39,trial,4665142.0,4669976.0,4834.0,72,R,4667472,4667872,402,521.8,488.2,3288,left
2,2,continuous,22,39,trial,4665142.0,4669976.0,4834.0,72,R,4667900,4668348,450,376.2,658.4,3335,left
2,2,continuous,22,39,trial,4665142.0,4669976.0,4834.0,72,R,4668392,4668652,262,749.1,926.4,3327,likertHorizontal
2,2,continuous,22,39,trial,4665142.0,4669976.0,4834.0,72,R,4668710,4668998,290,1342.7,512.7,3478,right
2,2,continuous,22,39,trial,4665142.0,4669976.0,4834.0,72,R,4669018,4669248,232,1408.1,484.9,3529,right
2,2,continuous,22,39,trial,4665142.0,4669976.0,4834.0,72,R,4669290,4669428,140,1176.0,847.2,3502,likertHorizontal
2,2,continuous,22,39,trial,4665142.0,4669976.0,4834.0,72,R,4669464,4669716,254,942.9,957.4,3485,likertHorizontal
2,2,continuous,22,39,trial,4665142.0,4669976.0,4834.0,72,R,4669734,4670158,426,836.9,956.9,3604,likertHorizontal
2,2,continuous,23,1,trial,4670626.0,4673409.0,2783.0,73,R,4670382,4670796,416,805.8,550.6,3638,NA
2,2,continuous,23,1,trial,4670626.0,4673409.0,2783.0,73,R,4670836,4671066,232,552.7,558.5,3582,left
2,2,continuous,23,1,trial,4670626.0,4673409.0,2783.0,73,R,4671090,4671474,386,443.7,507.5,3390,left
2,2,continuous,23,1,trial,4670626.0,4673409.0,2783.0,73,R,4671544,4671752,210,1425.2,540.5,3436,right
2,2,continuous,23,1,trial,4670626.0,4673409.0,2783.0,73,R,4671990,4672092,104,1482.6,494.5,3399,right
2,2,continuous,23,1,trial,4670626.0,4673409.0,2783.0,73,R,4672166,4672328,164,504.4,526.0,3370,left
2,2,continuous,23,1,trial,4670626.0,4673409.0,2783.0,73,R,4672344,4672478,136,448.5,519.8,3295,left
2,2,continuous,23,1,trial,4670626.0,4673409.0,2783.0,73,R,4672504,4673004,502,577.8,548.1,3374,left
2,2,continuous,23,1,trial,4670626.0,4673409.0,2783.0,73,R,4673068,4673250,184,1424.9,544.8,3533,right
2,2,continuous,23,1,trial,4670626.0,4673409.0,2783.0,73,R,4673264,4673610,348,1460.5,528.2,3519,right
2,2,continuous,24,100,fixationCross,4674076.0,4675960.0,1884.0,74,R,4673814,4673938,126,826.2,539.5,3428,NA
2,2,continuous,24,100,trial,4674076.0,4675960.0,1884.0,74,R,4673964,4674232,270,698.6,509.7,3572,left
2,2,continuous,24,100,trial,4674076.0,4675960.0,1884.0,74,R,4674272,4674470,200,438.4,579.3,3574,left
2,2,continuous,24,100,trial,4674076.0,4675960.0,1884.0,74,R,4674482,4674604,124,410.2,589.9,3392,left
2,2,continuous,24,100,trial,4674076.0,4675960.0,1884.0,74,R,4674670,4674972,304,1365.3,586.8,3349,right
2,2,continuous,24,100,trial,4674076.0,4675960.0,1884.0,74,R,4674994,4675302,310,1460.4,661.1,3367,right
2,2,continuous,24,100,trial,4674076.0,4675960.0,1884.0,74,R,4675348,4675594,248,1307.3,961.6,3309,NA
2,2,continuous,24,100,trial,4674076.0,4675960.0,1884.0,74,R,4675614,4675712,100,1422.1,975.7,3375,NA
2,2,continuous,24,100,trial,4674076.0,4675960.0,1884.0,74,R,4675788,4675930,144,447.3,560.1,3507,left
2,2,continuous,24,100,trial,4674076.0,4675960.0,1884.0,74,R,4675946,4676190,246,418.6,586.2,3484,left
2,2,continuous,25,1,trial,4676642.0,4678943.0,2301.0,75,R,4676366,4676798,434,649.1,504.6,3552,left
2,2,continuous,25,1,trial,4676642.0,4678943.0,2301.0,75,R,4676824,4677172,350,497.2,594.0,3577,left
2,2,continuous,25,1,trial,4676642.0,4678943.0,2301.0,75,R,4677234,4677494,262,1338.3,565.4,3457,right
2,2,continuous,25,1,trial,4676642.0,4678943.0,2301.0,75,R,4677514,4677720,208,1416.5,579.4,3416,right
2,2,continuous,25,1,trial,4676642.0,4678943.0,2301.0,75,R,4677734,4677976,244,1455.2,577.7,3405,right
2,2,continuous,25,1,trial,4676642.0,4678943.0,2301.0,75,R,4678050,4678400,352,484.0,603.9,3227,left
2,2,continuous,25,1,trial,4676642.0,4678943.0,2301.0,75,R,4678420,4678724,306,385.0,608.3,3375,left
2,2,continuous,25,1,trial,4676642.0,4678943.0,2301.0,75,R,4678754,4679146,394,573.8,623.2,3404,left
2,2,continuous,26,1,fixationCross,4703360.0,4705993.0,2633.0,76,R,4703089,4703153,66,1028.5,49.4,4237,NA
2,2,continuous,26,1,trial,4703360.0,4705993.0,2633.0,76,R,4703187,4703413,228,813.4,328.9,4219,NA
2,2,continuous,26,1,trial,4703360.0,4705993.0,2633.0,76,R,4703447,4703563,118,962.5,560.4,4219,NA
2,2,continuous,26,1,trial,4703360.0,4705993.0,2633.0,76,R,4703621,4703881,262,540.2,572.5,4100,left
2,2,continuous,26,1,trial,4703360.0,4705993.0,2633.0,76,R,4703947,4704325,380,1438.8,555.6,3908,right
2,2,continuous,26,1,trial,4703360.0,4705993.0,2633.0,76,R,4704347,4704563,218,1532.4,511.2,3869,right
2,2,continuous,26,1,trial,4703360.0,4705993.0,2633.0,76,R,4704585,4704741,158,1450.0,561.5,3789,right
2,2,continuous,26,1,trial,4703360.0,4705993.0,2633.0,76,R,4704811,4705695,886,553.1,602.8,3477,left
2,2,continuous,26,1,trial,4703360.0,4705993.0,2633.0,76,R,4705757,4705895,140,1387.8,515.8,3526,right
2,2,continuous,26,1,trial,4703360.0,4705993.0,2633.0,76,R,4705923,4706181,260,1288.8,437.2,3598,right
2,2,continuous,27,75,trial,4706692.0,4710109.0,3417.0,77,R,4706425,4706727,304,748.8,590.1,3659,NA
2,2,continuous,27,75,trial,4706692.0,4710109.0,3417.0,77,R,4706759,4706899,142,916.3,542.5,3754,NA
2,2,continuous,27,75,trial,4706692.0,4710109.0,3417.0,77,R,4706943,4707159,218,550.0,571.9,3663,left
2,2,continuous,27,75,trial,4706692.0,4710109.0,3417.0,77,R,4707179,4707243,66,540.7,519.9,3561,left
2,2,continuous,27,75,trial,4706692.0,4710109.0,3417.0,77,R,4707307,4707557,252,1411.4,523.1,3551,right
2,2,continuous,27,75,trial,4706692.0,4710109.0,3417.0,77,R,4707573,4707747,176,1435.1,569.5,3627,right
2,2,continuous,27,75,trial,4706692.0,4710109.0,3417.0,77,R,4707775,4708013,240,1578.8,543.9,3731,right
2,2,continuous,27,75,trial,4706692.0,4710109.0,3417.0,77,R,4708043,4708239,198,1451.2,655.4,3727,right
2,2,continuous,27,75,trial,4706692.0,4710109.0,3417.0,77,R,4708277,4708605,330,1428.6,451.4,3738,right
2,2,continuous,27,75,trial,4706692.0,4710109.0,3417.0,77,R,4708625,4708701,78,1424.0,403.9,3760,right
2,2,continuous,27,75,trial,4706692.0,4710109.0,3417.0,77,R,4708769,4709153,386,561.8,547.2,3643,left
2,2,continuous,27,75,trial,4706692.0,4710109.0,3417.0,77,R,4709213,4709411,200,1311.3,952.0,3632,NA
2,2,continuous,27,75,trial,4706692.0,4710109.0,3417.0,77,R,4709425,4709617,194,1249.9,965.2,3616,NA
2,2,continuous,27,75,trial,4706692.0,4710109.0,3417.0,77,R,4709655,4710285,632,1211.3,751.5,3681,NA
2,2,continuous,28,73,trial,4710760.0,4714793.0,4033.0,78,R,4710515,4710881,368,798.4,390.9,3724,NA
2,2,continuous,28,73,trial,4710760.0,4714793.0,4033.0,78,R,4710921,4711169,250,523.8,474.6,3679,left
2,2,continuous,28,73,trial,4710760.0,4714793.0,4033.0,78,R,4711183,4711307,126,571.2,476.2,3547,left
2,2,continuous,28,73,trial,4710760.0,4714793.0,4033.0,78,R,4711369,4711629,262,1357.2,524.4,3542,right
2,2,continuous,28,73,trial,4710760.0,4714793.0,4033.0,78,R,4711651,4711929,280,1473.8,496.4,3516,right
2,2,continuous,28,73,trial,4710760.0,4714793.0,4033.0,78,R,4711947,4712039,94,1475.3,541.6,3486,right
2,2,continuous,28,73,trial,4710760.0,4714793.0,4033.0,78,R,4712119,4712253,136,476.3,444.5,3373,left
2,2,continuous,28,73,trial,4710760.0,4714793.0,4033.0,78,R,4712273,4712479,208,390.3,470.2,3348,left
2,2,continuous,28,73,trial,4710760.0,4714793.0,4033.0,78,R,4712507,4713303,798,577.3,466.9,3427,left
2,2,continuous,28,73,trial,4710760.0,4714793.0,4033.0,78,R,4713311,4713477,168,585.4,458.3,3408,left
2,2,continuous,28,73,trial,4710760.0,4714793.0,4033.0,78,R,4713539,4713733,196,1356.3,560.0,3486,right
2,2,continuous,28,73,trial,4710760.0,4714793.0,4033.0,78,R,4713755,4713897,144,1281.6,528.7,3483,right
2,2,continuous,28,73,trial,4710760.0,4714793.0,4033.0,78,R,4713925,4714209,286,1462.5,518.6,3459,right
2,2,continuous,28,73,trial,4710760.0,4714793.0,4033.0,78,R,4714223,4714423,202,1467.8,552.8,3411,right
2,2,continuous,28,73,trial,4710760.0,4714793.0,4033.0,78,R,4714471,4714721,252,1147.9,951.5,3418,likertHorizontal
2,2,continuous,28,73,trial,4710760.0,4714793.0,4033.0,78,R,4714765,4714957,194,1282.1,579.8,3563,right
2,2,continuous,29,100,fixationCross,4715443.0,4717476.0,2033.0,79,R,4715199,4715423,226,721.0,466.1,3658,left
2,2,continuous,29,100,trial,4715443.0,4717476.0,2033.0,79,R,4715451,4715611,162,561.2,473.9,3804,left
2,2,continuous,29,100,trial,4715443.0,4717476.0,2033.0,79,R,4715629,4715805,178,497.8,522.6,3696,left
2,2,continuous,29,100,trial,4715443.0,4717476.0,2033.0,79,R,4715829,4715965,138,633.9,635.5,3512,left
2,2,continuous,29,100,trial,4715443.0,4717476.0,2033.0,79,R,4716025,4716187,164,1387.2,557.5,3486,right
2,2,continuous,29,100,trial,4715443.0,4717476.0,2033.0,79,R,4716213,4716439,228,1577.4,534.2,3403,right
2,2,continuous,29,100,trial,4715443.0,4717476.0,2033.0,79,R,4716451,4716753,304,1548.8,513.3,3382,right
2,2,continuous,29,100,trial,4715443.0,4717476.0,2033.0,79,R,4716831,4717039,210,486.9,569.4,3319,left
2,2,continuous,29,100,trial,4715443.0,4717476.0,2033.0,79,R,4717067,4717507,442,647.9,642.2,3437,left
2,2,continuous,29,100,postResponse,4715443.0,4717476.0,2033.0,79,R,4717565,4717807,244,1358.2,936.2,3591,NA
2,2,continuous,30,1,trial,4718160.0,4720377.0,2217.0,80,R,4717949,4718337,390,754.5,472.5,3836,NA
2,2,continuous,30,1,trial,4718160.0,4720377.0,2217.0,80,R,4718375,4718599,226,543.4,594.0,3784,left
2,2,continuous,30,1,trial,4718160.0,4720377.0,2217.0,80,R,4718667,4718967,302,1440.9,572.6,3690,right
2,2,continuous,30,1,trial,4718160.0,4720377.0,2217.0,80,R,4718981,4719251,272,1394.2,574.9,3533,right
2,2,continuous,30,1,trial,4718160.0,4720377.0,2217.0,80,R,4719313,4719605,294,588.7,614.8,3295,left
2,2,continuous,30,1,trial,4718160.0,4720377.0,2217.0,80,R,4719623,4719857,236,513.9,604.8,3332,left
2,2,continuous,30,1,trial,4718160.0,4720377.0,2217.0,80,R,4719903,4720069,168,454.1,972.5,3473,NA
2,2,continuous,30,1,trial,4718160.0,4720377.0,2217.0,80,R,4720083,4720577,496,485.6,963.2,3487,NA
2,2,continuous,31,95,trial,4721060.0,4726277.0,5217.0,81,R,4720785,4721285,502,612.6,498.3,3636,left
2,2,continuous,31,95,trial,4721060.0,4726277.0,5217.0,81,R,4721309,4721437,130,464.7,565.6,3617,left
2,2,continuous,31,95,trial,4721060.0,4726277.0,5217.0,81,R,4721463,4721699,238,323.5,629.0,3366,left
2,2,continuous,31,95,trial,4721060.0,4726277.0,5217.0,81,R,4721713,4721915,204,281.7,647.8,3263,left
2,2,continuous,31,95,trial,4721060.0,4726277.0,5217.0,81,R,4721991,4722421,432,1435.0,560.9,3393,right
2,2,continuous,31,95,trial,4721060.0,4726277.0,5217.0,81,R,4722435,4722787,354,1458.2,597.2,3490,right
2,2,continuous,31,95,trial,4721060.0,4726277.0,5217.0,81,R,4722835,4722973,140,1114.0,936.4,3340,likertHorizontal
2,2,continuous,31,95,trial,4721060.0,4726277.0,5217.0,81,R,4722997,4723347,352,938.0,954.9,3447,likertHorizontal
2,2,continuous,31,95,trial,4721060.0,4726277.0,5217.0,81,R,4723409,4723571,164,431.0,564.9,3486,left
2,2,continuous,31,95,trial,4721060.0,4726277.0,5217.0,81,R,4723633,4723861,230,1188.0,966.0,3449,NA
2,2,continuous,31,95,trial,4721060.0,4726277.0,5217.0,81,R,4723907,4724255,350,1223.2,670.4,3513,right
2,2,continuous,31,95,trial,4721060.0,4726277.0,5217.0,81,R,4724279,4724545,268,1207.5,813.8,3518,NA
2,2,continuous,31,95,trial,4721060.0,4726277.0,5217.0,81,R,4724587,4724823,238,1437.2,603.9,3663,right
2,2,continuous,31,95,trial,4721060.0,4726277.0,5217.0,81,R,4724843,4725155,314,1449.2,557.4,3601,right
2,2,continuous,31,95,trial,4721060.0,4726277.0,5217.0,81,R,4725235,4725437,204,413.3,573.4,3327,left
2,2,continuous,31,95,trial,4721060.0,4726277.0,5217.0,81,R,4725461,4725637,178,293.8,648.3,3268,left
2,2,continuous,31,95,trial,4721060.0,4726277.0,5217.0,81,R,4725711,4726033,324,1356.9,965.7,3391,NA
2,2,continuous,31,95,trial,4721060.0,4726277.0,5217.0,81,R,4726089,4726445,358,1443.8,560.7,3711,right
2,2,continuous,32,1,fixationCross,4726959.0,4728810.0,1851.0,82,R,4726683,4726795,114,704.5,492.4,3601,left
2,2,continuous,32,1,trial,4726959.0,4728810.0,1851.0,82,R,4726819,4727171,354,565.3,506.2,3739,left
2,2,continuous,32,1,trial,4726959.0,4728810.0,1851.0,82,R,4727195,4727405,212,652.1,575.2,3676,left
2,2,continuous,32,1,trial,4726959.0,4728810.0,1851.0,82,R,4727467,4727709,244,1425.4,535.3,3567,right
2,2,continuous,32,1,trial,4726959.0,4728810.0,1851.0,82,R,4727727,4727907,182,1476.5,513.7,3571,right
2,2,continuous,32,1,trial,4726959.0,4728810.0,1851.0,82,R,4727981,4728183,204,467.5,548.4,3451,left
2,2,continuous,32,1,trial,4726959.0,4728810.0,1851.0,82,R,4728195,4728347,154,454.5,522.4,3384,left
2,2,continuous,32,1,trial,4726959.0,4728810.0,1851.0,82,R,4728377,4728623,248,657.4,594.5,3433,left
2,2,continuous,32,1,trial,4726959.0,4728810.0,1851.0,82,R,4728683,4728993,312,1461.3,533.3,3528,right
2,2,continuous,33,37,trial,4729476.0,4734826.0,5350.0,83,R,4729215,4729639,426,740.5,547.8,3622,NA
2,2,continuous,33,37,trial,4729476.0,4734826.0,5350.0,83,R,4729669,4730087,420,548.3,529.7,3497,left
2,2,continuous,33,37,trial,4729476.0,4734826.0,5350.0,83,R,4730151,4730521,372,1435.1,559.7,3530,right
2,2,continuous,33,37,trial,4729476.0,4734826.0,5350.0,83,R,4730547,4730753,208,1549.7,476.1,3470,right
2,2,continuous,33,37,trial,4729476.0,4734826.0,5350.0,83,R,4730797,4730951,156,1237.5,485.5,3409,right
2,2,continuous,33,37,trial,4729476.0,4734826.0,5350.0,83,R,4731013,4731265,254,561.6,595.3,3395,left
2,2,continuous,33,37,trial,4729476.0,4734826.0,5350.0,83,R,4731287,4731487,202,619.2,542.5,3495,left
2,2,continuous,33,37,trial,4729476.0,4734826.0,5350.0,83,R,4731509,4731651,144,524.8,524.6,3518,left
2,2,continuous,33,37,trial,4729476.0,4734826.0,5350.0,83,R,4731683,4732079,398,665.8,660.7,3607,left
2,2,continuous,33,37,trial,4729476.0,4734826.0,5350.0,83,R,4732125,4732265,142,466.5,519.5,3632,left
2,2,continuous,33,37,trial,4729476.0,4734826.0,5350.0,83,R,4732283,4732581,300,421.5,526.8,3600,left
2,2,continuous,33,37,trial,4729476.0,4734826.0,5350.0,83,R,4732623,4733023,402,735.1,833.3,3712,NA
2,2,continuous,33,37,trial,4729476.0,4734826.0,5350.0,83,R,4733079,4733297,220,1366.7,611.4,3805,right
2,2,continuous,33,37,trial,4729476.0,4734826.0,5350.0,83,R,4733323,4733523,202,1468.7,499.4,3648,right
2,2,continuous,33,37,trial,4729476.0,4734826.0,5350.0,83,R,4733559,4733915,358,1246.2,485.3,3391,right
2,2,continuous,33,37,trial,4729476.0,4734826.0,5350.0,83,R,4733951,4734117,168,1553.9,638.7,3337,right
2,2,continuous,33,37,trial,4729476.0,4734826.0,5350.0,83,R,4734179,4734293,116,939.8,933.8,3312,likertHorizontal
2,2,continuous,33,37,trial,4729476.0,4734826.0,5350.0,83,R,4734315,4734483,170,836.6,954.0,3354,likertHorizontal
2,2,continuous,33,37,trial,4729476.0,4734826.0,5350.0,83,R,4734531,4734705,176,591.8,570.1,3398,left
2,2,continuous,33,37,trial,4729476.0,4734826.0,5350.0,83,R,4734725,4735025,302,522.6,540.6,3424,left
2,2,continuous,34,64,trial,4735493.0,4738677.0,3184.0,84,R,4735233,4735717,486,557.6,463.1,3557,left
2,2,continuous,34,64,trial,4735493.0,4738677.0,3184.0,84,R,4735743,4735925,184,499.2,584.4,3567,left
2,2,continuous,34,64,trial,4735493.0,4738677.0,3184.0,84,R,4735951,4736145,196,452.6,450.8,3427,left
2,2,continuous,34,64,trial,4735493.0,4738677.0,3184.0,84,R,4736167,4736267,102,389.3,532.0,3396,left
2,2,continuous,34,64,trial,4735493.0,4738677.0,3184.0,84,R,4736429,4736547,120,395.2,533.2,3424,left
2,2,continuous,34,64,trial,4735493.0,4738677.0,3184.0,84,R,4736615,4736963,350,1410.0,600.9,3638,right
2,2,continuous,34,64,trial,4735493.0,4738677.0,3184.0,84,R,4736983,4737187,206,1427.1,661.3,3660,right
2,2,continuous,34,64,trial,4735493.0,4738677.0,3184.0,84,R,4737259,4737509,252,472.2,557.3,3458,left
2,2,continuous,34,64,trial,4735493.0,4738677.0,3184.0,84,R,4737533,4737753,222,437.7,473.3,3353,left
2,2,continuous,34,64,trial,4735493.0,4738677.0,3184.0,84,R,4737809,4738047,240,1041.7,848.1,3430,likertHorizontal
2,2,continuous,34,64,trial,4735493.0,4738677.0,3184.0,84,R,4738075,4738445,372,1095.0,964.6,3656,likertHorizontal
2,2,continuous,34,64,trial,4735493.0,4738677.0,3184.0,84,R,4738489,4738895,408,1333.0,665.6,3729,right
2,2,continuous,34,64,postResponse,4735493.0,4738677.0,3184.0,84,R,4738965,4739009,46,689.5,497.1,3622,left
2,2,continuous,35,1,trial,4739360.0,4741510.0,2150.0,85,R,4739109,4739519,412,687.6,491.7,3726,left
2,2,continuous,35,1,trial,4739360.0,4741510.0,2150.0,85,R,4739541,4739781,242,615.4,441.1,3686,left
2,2,continuous,35,1,trial,4739360.0,4741510.0,2150.0,85,R,4739791,4739925,136,633.1,440.3,3624,left
2,2,continuous,35,1,trial,4739360.0,4741510.0,2150.0,85,R,4739989,4740235,248,1444.3,636.8,3718,right
2,2,continuous,35,1,trial,4739360.0,4741510.0,2150.0,85,R,4740271,4740445,176,1405.6,482.2,3748,right
2,2,continuous,35,1,trial,4739360.0,4741510.0,2150.0,85,R,4740507,4740717,212,654.7,444.0,3641,left
2,2,continuous,35,1,trial,4739360.0,4741510.0,2150.0,85,R,4740729,4741705,978,629.1,439.4,3578,left
2,2,continuous,36,100,trial,4742193.0,4745094.0,2901.0,86,R,4741919,4742375,458,657.4,482.2,3691,left
2,2,continuous,36,100,trial,4742193.0,4745094.0,2901.0,86,R,4742393,4742697,306,665.9,449.4,3562,left
2,2,continuous,36,100,trial,4742193.0,4745094.0,2901.0,86,R,4742739,4743053,316,324.8,546.3,3358,left
2,2,continuous,36,100,trial,4742193.0,4745094.0,2901.0,86,R,4743131,4743295,166,1455.2,535.0,3429,right
2,2,continuous,36,100,trial,4742193.0,4745094.0,2901.0,86,R,4743505,4743605,102,1506.5,512.5,3391,right
2,2,continuous,36,100,trial,4742193.0,4745094.0,2901.0,86,R,4743629,4743917,290,1371.0,537.1,3440,right
2,2,continuous,36,100,trial,4742193.0,4745094.0,2901.0,86,R,4743933,4744173,242,1411.1,513.6,3360,right
2,2,continuous,36,100,trial,4742193.0,4745094.0,2901.0,86,R,4744197,4744383,188,1595.2,553.6,3262,right
2,2,continuous,36,100,trial,4742193.0,4745094.0,2901.0,86,R,4744431,4744591,162,1388.0,990.2,3307,NA
2,2,continuous,36,100,trial,4742193.0,4745094.0,2901.0,86,R,4744661,4744813,154,556.9,469.1,3448,left
2,2,continuous,36,100,trial,4742193.0,4745094.0,2901.0,86,R,4744839,4745001,164,659.0,431.9,3473,left
2,2,continuous,36,100,postResponse,4742193.0,4745094.0,2901.0,86,R,4745047,4745427,382,311.1,559.1,3424,left
2,2,continuous,37,10,trial,4745794.0,4748960.0,3166.0,87,R,4745527,4745821,296,777.9,459.4,3526,NA
2,2,continuous,37,10,trial,4745794.0,4748960.0,3166.0,87,R,4745839,4745989,152,706.3,467.3,3662,left
2,2,continuous,37,10,trial,4745794.0,4748960.0,3166.0,87,R,4746027,4746173,148,440.2,550.7,3682,left
2,2,continuous,37,10,trial,4745794.0,4748960.0,3166.0,87,R,4746193,4746395,204,416.8,488.4,3608,left
2,2,continuous,37,10,trial,4745794.0,4748960.0,3166.0,87,R,4746467,4746823,358,1452.1,557.7,3685,right
2,2,continuous,37,10,trial,4745794.0,4748960.0,3166.0,87,R,4746847,4747153,308,1549.4,498.4,3654,right
2,2,continuous,37,10,trial,4745794.0,4748960.0,3166.0,87,R,4747189,4747325,138,1374.2,639.9,3597,right
2,2,continuous,37,10,trial,4745794.0,4748960.0,3166.0,87,R,4747371,4747579,210,951.3,947.9,3537,likertHorizontal
2,2,continuous,37,10,trial,4745794.0,4748960.0,3166.0,87,R,4747639,4747877,240,433.3,536.7,3500,left
2,2,continuous,37,10,trial,4745794.0,4748960.0,3166.0,87,R,4747897,4748251,356,418.3,478.8,3442,left
2,2,continuous,37,10,trial,4745794.0,4748960.0,3166.0,87,R,4748299,4748721,424,587.5,943.6,3455,NA
2,2,continuous,37,10,trial,4745794.0,4748960.0,3166.0,87,R,4748793,4749131,340,1470.6,547.8,3509,right
2,2,continuous,38,1,trial,4749627.0,4751827.0,2200.0,88,R,4749365,4749799,436,608.7,487.9,3597,left
2,2,continuous,38,1,trial,4749627.0,4751827.0,2200.0,88,R,4749827,4750035,210,481.5,595.4,3594,left
2,2,continuous,38,1,trial,4749627.0,4751827.0,2200.0,88,R,4750055,4750243,190,402.4,664.3,3434,left
2,2,continuous,38,1,trial,4749627.0,4751827.0,2200.0,88,R,4750311,4750589,280,1383.8,580.7,3525,right
2,2,continuous,38,1,trial,4749627.0,4751827.0,2200.0,88,R,4750603,4750931,330,1414.2,570.3,3564,right
2,2,continuous,38,1,trial,4749627.0,4751827.0,2200.0,88,R,4751005,4751239,236,532.0,544.2,3415,left
2,2,continuous,38,1,trial,4749627.0,4751827.0,2200.0,88,R,4751257,4751501,246,457.8,548.2,3325,left
2,2,continuous,38,1,trial,4749627.0,4751827.0,2200.0,88,R,4751531,4751691,162,355.8,687.8,3315,left
2,2,continuous,38,1,trial,4749627.0,4751827.0,2200.0,88,R,4751761,4752009,250,1351.3,589.4,3413,right
2,2,continuous,39,87,trial,4752527.0,4756144.0,3617.0,89,R,4752261,4752673,414,684.5,536.3,3652,left
2,2,continuous,39,87,trial,4752527.0,4756144.0,3617.0,89,R,4752711,4752923,214,441.7,542.8,3646,left
2,2,continuous,39,87,trial,4752527.0,4756144.0,3617.0,89,R,4752941,4753077,138,410.6,494.7,3427,left
2,2,continuous,39,87,trial,4752527.0,4756144.0,3617.0,89,R,4753143,4753365,224,1386.4,583.5,3452,right
2,2,continuous,39,87,trial,4752527.0,4756144.0,3617.0,89,R,4753383,4753547,166,1354.3,541.7,3517,right
2,2,continuous,39,87,trial,4752527.0,4756144.0,3617.0,89,R,4753619,4753987,370,420.9,508.2,3451,left
2,2,continuous,39,87,trial,4752527.0,4756144.0,3617.0,89,R,4754043,4754489,448,1165.1,861.3,3561,likertHorizontal
2,2,continuous,39,87,trial,4752527.0,4756144.0,3617.0,89,R,4754513,4754789,278,1238.3,946.2,3759,NA
2,2,continuous,39,87,trial,4752527.0,4756144.0,3617.0,89,R,4754851,4755001,152,1326.6,551.0,3840,right
2,2,continuous,39,87,trial,4752527.0,4756144.0,3617.0,89,R,4755027,4755209,184,1462.2,450.0,3728,right
2,2,continuous,39,87,trial,4752527.0,4756144.0,3617.0,89,R,4755259,4755495,238,1385.8,925.6,3764,NA
2,2,continuous,39,87,trial,4752527.0,4756144.0,3617.0,89,R,4755505,4755741,238,1381.2,954.0,3801,NA
2,2,continuous,39,87,trial,4752527.0,4756144.0,3617.0,89,R,4755755,4756033,280,1325.8,955.9,3836,NA
2,2,continuous,39,87,trial,4752527.0,4756144.0,3617.0,89,R,4756109,4756327,220,451.6,647.7,3714,left
2,2,continuous,40,100,fixationCross,4756827.0,4759378.0,2551.0,90,R,4756575,4756797,224,592.1,433.4,3622,left
2,2,continuous,40,100,trial,4756827.0,4759378.0,2551.0,90,R,4756821,4757173,354,492.1,490.0,3708,left
2,2,continuous,40,100,trial,4756827.0,4759378.0,2551.0,90,R,4757197,4757319,124,486.3,628.7,3603,left
2,2,continuous,40,100,trial,4756827.0,4759378.0,2551.0,90,R,4757385,4757601,218,1361.2,584.9,3597,right
2,2,continuous,40,100,trial,4756827.0,4759378.0,2551.0,90,R,4757625,4757941,318,1537.7,662.0,3628,right
2,2,continuous,40,100,trial,4756827.0,4759378.0,2551.0,90,R,4757959,4758241,284,1592.5,634.1,3610,right
2,2,continuous,40,100,trial,4756827.0,4759378.0,2551.0,90,R,4758297,4758439,144,1040.3,941.5,3532,likertHorizontal
2,2,continuous,40,100,trial,4756827.0,4759378.0,2551.0,90,R,4758503,4758693,192,485.8,566.8,3545,left
2,2,continuous,40,100,trial,4756827.0,4759378.0,2551.0,90,R,4758765,4759255,492,1468.8,581.2,3783,right
2,2,continuous,40,100,trial,4756827.0,4759378.0,2551.0,90,R,4759279,4759581,304,1611.9,627.3,3826,right
2,2,continuous,41,1,trial,4760027.0,4762844.0,2817.0,91,R,4759783,4760159,378,740.5,506.3,3837,NA
2,2,continuous,41,1,trial,4760027.0,4762844.0,2817.0,91,R,4760197,4760337,142,481.9,561.2,3816,left
2,2,continuous,41,1,trial,4760027.0,4762844.0,2817.0,91,R,4760403,4760653,252,1434.1,569.7,3659,right
