DAU,participantNo,age,gender,eye,trial,task,block,blockTrial,trialStartTime,trialFinishTime,trialStage,lImage,lValue,rImage,rValue,response,rt,fixStart,fixEnd,fixLength,dilation,fixPosX,fixPosY,aoi,fixStartTr,fixEndTr,fixDurationTr,fixDurationProp,intra_choice
NS01,2,19,Female,R,1,binary,1,1,4334788,4337438,fixationCross,7237,5.43,2500,6.16,1,2650,4334492,4334750,260,4084,942.6,846.6,likertHorizontal,4334788,4334788,0,0,0
NS01,2,19,Female,R,1,binary,1,1,4334788,4337438,trial,7237,5.43,2500,6.16,1,2650,4334944,4335026,84,4114,965.3,544.4,,4334944,4335026,82,0.0309433962264151,1
NS01,2,19,Female,R,1,binary,1,1,4334788,4337438,trial,7237,5.43,2500,6.16,1,2650,4335130,4335224,96,4157,1329.6,506.2,right,4335130,4335224,94,0.0354716981132076,1
NS01,2,19,Female,R,1,binary,1,1,4334788,4337438,trial,7237,5.43,2500,6.16,1,2650,4335286,4335390,106,3987,636.4,918.5,,4335286,4335390,104,0.0392452830188679,1
NS01,2,19,Female,R,1,binary,1,1,4334788,4337438,trial,7237,5.43,2500,6.16,1,2650,4335414,4335642,230,3774,468.7,968.6,,4335414,4335642,228,0.0860377358490566,1
NS01,2,19,Female,R,1,binary,1,1,4334788,4337438,trial,7237,5.43,2500,6.16,1,2650,4335710,4335868,160,3739,1476.8,955.3,,4335710,4335868,158,0.059622641509434,1
NS01,2,19,Female,R,1,binary,1,1,4334788,4337438,trial,7237,5.43,2500,6.16,1,2650,4335888,4335994,108,3723,1437.1,998.6,,4335888,4335994,106,0.04,1
NS01,2,19,Female,R,1,binary,1,1,4334788,4337438,trial,7237,5.43,2500,6.16,1,2650,4336050,4336214,166,3841,1458.4,537.3,right,4336050,4336214,164,0.0618867924528302,1
NS01,2,19,Female,R,1,binary,1,1,4334788,4337438,trial,7237,5.43,2500,6.16,1,2650,4336282,4336796,516,3612,523.2,570.9,left,4336282,4336796,514,0.193962264150943,1
NS01,2,19,Female,R,1,binary,1,1,4334788,4337438,trial,7237,5.43,2500,6.16,1,2650,4336832,4336944,114,3407,488.9,920,,4336832,4336944,112,0.0422641509433962,1
NS01,2,19,Female,R,1,binary,1,1,4334788,4337438,trial,7237,5.43,2500,6.16,1,2650,4336960,4337296,338,3448,485.3,959.9,,4336960,4337296,336,0.126792452830189,1
NS01,2,19,Female,R,1,binary,1,1,4334788,4337438,trial,7237,5.43,2500,6.16,1,2650,4337308,4337692,386,3516,501.5,980.1,,4337308,4337438,130,0.0490566037735849,1
NS01,2,19,Female,R,1,binary,1,1,4334788,4337438,postResponse,7237,5.43,2500,6.16,1,2650,4337762,4337798,38,3514,929.2,539.8,,4337438,4337438,0,0,0
NS01,2,19,Female,R,2,binary,1,2,4338171,4340638,trial,7019,5.2,5520,5.33,2,2467,4337898,4338328,432,3672,934.6,539.9,,4338171,4338328,157,0.0636400486420754,1
NS01,2,19,Female,R,2,binary,1,2,4338171,4340638,trial,7019,5.2,5520,5.33,2,2467,4338380,4338682,304,3689,1383.8,604.4,right,4338380,4338682,302,0.122415889744629,1
NS01,2,19,Female,R,2,binary,1,2,4338171,4340638,trial,7019,5.2,5520,5.33,2,2467,4338750,4339030,282,3345,477.2,562.2,left,4338750,4339030,280,0.113498175922173,1
NS01,2,19,Female,R,2,binary,1,2,4338171,4340638,trial,7019,5.2,5520,5.33,2,2467,4339048,4339216,170,3218,535.8,593.8,left,4339048,4339216,168,0.0680989055533036,1
NS01,2,19,Female,R,2,binary,1,2,4338171,4340638,trial,7019,5.2,5520,5.33,2,2467,4339280,4339770,492,3343,1424.5,593.4,right,4339280,4339770,490,0.198621807863802,1
NS01,2,19,Female,R,2,binary,1,2,4338171,4340638,trial,7019,5.2,5520,5.33,2,2467,4339796,4340200,406,3378,1598.4,530.7,right,4339796,4340200,404,0.163761653830563,1
NS01,2,19,Female,R,2,binary,1,2,4338171,4340638,trial,7019,5.2,5520,5.33,2,2467,4340250,4340522,274,3436,1435.5,1021.3,,4340250,4340522,272,0.110255370895825,1
NS01,2,19,Female,R,2,binary,1,2,4338171,4340638,trial,7019,5.2,5520,5.33,2,2467,4340566,4340926,362,3575,1392.4,588.6,right,4340566,4340638,72,0.0291852452371301,1
NS01,2,19,Female,R,3,binary,1,3,4341372,4344689,trial,2342,6.2,8320,6.24,1,3317,4341084,4341536,454,3731,1064.4,522.6,,4341372,4341536,164,0.0494422671088333,1
NS01,2,19,Female,R,3,binary,1,3,4341372,4344689,trial,2342,6.2,8320,6.24,1,3317,4341580,4341760,182,3896,1428.5,549.4,right,4341580,4341760,180,0.0542659029243292,1
NS01,2,19,Female,R,3,binary,1,3,4341372,4344689,trial,2342,6.2,8320,6.24,1,3317,4341774,4341960,188,3663,1471.1,574.2,right,4341774,4341960,186,0.0560747663551402,1
NS01,2,19,Female,R,3,binary,1,3,4341372,4344689,trial,2342,6.2,8320,6.24,1,3317,4342032,4342204,174,3428,526.9,535.1,left,4342032,4342204,172,0.0518540850165813,1
NS01,2,19,Female,R,3,binary,1,3,4341372,4344689,trial,2342,6.2,8320,6.24,1,3317,4342224,4342522,300,3317,531.9,490,left,4342224,4342522,298,0.0898402170636117,1
NS01,2,19,Female,R,3,binary,1,3,4341372,4344689,trial,2342,6.2,8320,6.24,1,3317,4342536,4342852,318,3285,577.3,506.8,left,4342536,4342852,316,0.0952668073560446,1
NS01,2,19,Female,R,3,binary,1,3,4341372,4344689,trial,2342,6.2,8320,6.24,1,3317,4342916,4343610,696,3428,1471.8,563.2,right,4342916,4343610,694,0.209225203497136,1
NS01,2,19,Female,R,3,binary,1,3,4341372,4344689,trial,2342,6.2,8320,6.24,1,3317,4343638,4343880,244,3557,1479.4,717.4,right,4343638,4343880,242,0.072957491709376,1
NS01,2,19,Female,R,3,binary,1,3,4341372,4344689,trial,2342,6.2,8320,6.24,1,3317,4343954,4344328,376,3466,513.9,543.6,left,4343954,4344328,374,0.112752487187217,1
NS01,2,19,Female,R,3,binary,1,3,4341372,4344689,trial,2342,6.2,8320,6.24,1,3317,4344350,4344628,280,3477,535.7,483.4,left,4344350,4344628,278,0.0838106722942418,1
NS01,2,19,Female,R,3,binary,1,3,4341372,4344689,postResponse,2342,6.2,8320,6.24,1,3317,4344648,4345024,378,3525,601.6,506.5,left,4344648,4344689,41,0.0123605667772083,1
NS01,2,19,Female,R,4,binary,1,4,4345371,4347105,trial,5800,6.36,5531,5.15,1,1734,4345124,4345438,316,3656,610.7,509.7,left,4345371,4345438,67,0.038638985005767,1
NS01,2,19,Female,R,4,binary,1,4,4345371,4347105,trial,5800,6.36,5531,5.15,1,1734,4345476,4345612,138,3797,930.9,543.6,,4345476,4345612,136,0.0784313725490196,1
NS01,2,19,Female,R,4,binary,1,4,4345371,4347105,trial,5800,6.36,5531,5.15,1,1734,4345660,4346002,344,3641,493.1,555.5,left,4345660,4346002,342,0.197231833910035,1
NS01,2,19,Female,R,4,binary,1,4,4345371,4347105,trial,5800,6.36,5531,5.15,1,1734,4346068,4346350,284,3493,1441.8,508.9,right,4346068,4346350,282,0.162629757785467,1
NS01,2,19,Female,R,4,binary,1,4,4345371,4347105,trial,5800,6.36,5531,5.15,1,1734,4346422,4347002,582,3334,480.6,563.9,left,4346422,4347002,580,0.334486735870819,1
NS01,2,19,Female,R,4,binary,1,4,4345371,4347105,postResponse,5800,6.36,5531,5.15,1,1734,4347018,4347464,448,3250,539.3,544.7,left,4347018,4347105,87,0.0501730103806228,1
NS01,2,19,Female,R,5,binary,1,5,4347838,4350339,trial,7182,5.16,2018,5.56,2,2501,4347564,4348068,506,3479,549.6,545.4,left,4347838,4348068,230,0.0919632147141144,1
NS01,2,19,Female,R,5,binary,1,5,4347838,4350339,trial,7182,5.16,2018,5.56,2,2501,4348088,4348170,84,3594,502.1,544,left,4348088,4348170,82,0.0327868852459016,1
NS01,2,19,Female,R,5,binary,1,5,4347838,4350339,trial,7182,5.16,2018,5.56,2,2501,4348240,4348364,126,3428,1510.7,499.9,right,4348240,4348364,124,0.0495801679328269,1
NS01,2,19,Female,R,5,binary,1,5,4347838,4350339,trial,7182,5.16,2018,5.56,2,2501,4348498,4348676,180,3380,1446,530,right,4348498,4348676,178,0.071171531387445,1
NS01,2,19,Female,R,5,binary,1,5,4347838,4350339,trial,7182,5.16,2018,5.56,2,2501,4348686,4348856,172,3578,1425.7,521.3,right,4348686,4348856,170,0.0679728108756497,1
NS01,2,19,Female,R,5,binary,1,5,4347838,4350339,trial,7182,5.16,2018,5.56,2,2501,4348882,4349182,302,3549,1604.4,547.7,right,4348882,4349182,300,0.119952019192323,1
NS01,2,19,Female,R,5,binary,1,5,4347838,4350339,trial,7182,5.16,2018,5.56,2,2501,4349208,4349524,318,3550,1513.1,673.2,right,4349208,4349524,316,0.126349460215914,1
NS01,2,19,Female,R,5,binary,1,5,4347838,4350339,trial,7182,5.16,2018,5.56,2,2501,4349600,4349924,326,3524,530.2,559.6,left,4349600,4349924,324,0.129548180727709,1
NS01,2,19,Female,R,5,binary,1,5,4347838,4350339,trial,7182,5.16,2018,5.56,2,2501,4349994,4350190,198,3402,1560.9,575.2,right,4349994,4350190,196,0.0783686525389844,1
NS01,2,19,Female,R,5,binary,1,5,4347838,4350339,postResponse,7182,5.16,2018,5.56,2,2501,4350214,4350678,466,3449,1449.9,520.8,right,4350214,4350339,125,0.0499800079968013,1
NS01,2,19,Female,R,6,binary,1,6,4351088,4353056,trial,7512,5.38,5990,6.54,2,1968,4350778,4351112,336,3760,1449.9,523.1,right,4351088,4351112,24,0.0121951219512195,1
NS01,2,19,Female,R,6,binary,1,6,4351088,4353056,trial,7512,5.38,5990,6.54,2,1968,4351160,4351280,122,3779,996.8,532.2,,4351160,4351280,120,0.0609756097560976,1
NS01,2,19,Female,R,6,binary,1,6,4351088,4353056,trial,7512,5.38,5990,6.54,2,1968,4351330,4351720,392,3603,558.1,539.4,left,4351330,4351720,390,0.198170731707317,1
NS01,2,19,Female,R,6,binary,1,6,4351088,4353056,trial,7512,5.38,5990,6.54,2,1968,4351784,4352060,278,3431,1421.8,534.6,right,4351784,4352060,276,0.140243902439024,1
NS01,2,19,Female,R,6,binary,1,6,4351088,4353056,trial,7512,5.38,5990,6.54,2,1968,4352078,4352636,560,3337,1335.1,565,right,4352078,4352636,558,0.283536585365854,1
NS01,2,19,Female,R,6,binary,1,6,4351088,4353056,trial,7512,5.38,5990,6.54,2,1968,4352666,4352868,204,3325,1554.1,520.3,right,4352666,4352868,202,0.102642276422764,1
NS01,2,19,Female,R,6,binary,1,6,4351088,4353056,trial,7512,5.38,5990,6.54,2,1968,4352938,4353322,386,3304,563.1,562.1,left,4352938,4353056,118,0.0599593495934959,1
NS01,2,19,Female,R,6,binary,1,6,4351088,4353056,postResponse,7512,5.38,5990,6.54,2,1968,4353344,4353386,44,3368,737.1,542.5,,4353056,4353056,0,0,0
NS01,2,19,Female,R,7,binary,1,7,4353705,4355555,trial,8117,6.02,7291,6.35,2,1850,4353462,4353872,412,3509,774.5,545.5,,4353705,4353872,167,0.0902702702702703,1
NS01,2,19,Female,R,7,binary,1,7,4353705,4355555,trial,8117,6.02,7291,6.35,2,1850,4353908,4354130,224,3653,534,503.7,left,4353908,4354130,222,0.12,1
NS01,2,19,Female,R,7,binary,1,7,4353705,4355555,trial,8117,6.02,7291,6.35,2,1850,4354194,4354424,232,3638,1430,523.3,right,4354194,4354424,230,0.124324324324324,1
NS01,2,19,Female,R,7,binary,1,7,4353705,4355555,trial,8117,6.02,7291,6.35,2,1850,4354626,4354918,294,3643,1441.1,517.8,right,4354626,4354918,292,0.157837837837838,1
NS01,2,19,Female,R,7,binary,1,7,4353705,4355555,trial,8117,6.02,7291,6.35,2,1850,4354988,4355468,482,3474,529.8,505.5,left,4354988,4355468,480,0.259459459459459,1
NS01,2,19,Female,R,7,binary,1,7,4353705,4355555,postResponse,8117,6.02,7291,6.35,2,1850,4355480,4355888,410,3398,539,476.7,left,4355480,4355555,75,0.0405405405405405,1
NS01,2,19,Female,R,8,binary,1,8,4356221,4358255,trial,2575,5.46,2357,5.41,2,2034,4355962,4356382,422,3552,692.6,494.7,left,4356221,4356382,161,0.0791543756145526,1
NS01,2,19,Female,R,8,binary,1,8,4356221,4358255,trial,2575,5.46,2357,5.41,2,2034,4356420,4356600,182,3630,477,547.6,left,4356420,4356600,180,0.0884955752212389,1
NS01,2,19,Female,R,8,binary,1,8,4356221,4358255,trial,2575,5.46,2357,5.41,2,2034,4356616,4356696,82,3479,424.9,556.1,left,4356616,4356696,80,0.0393313667649951,1
NS01,2,19,Female,R,8,binary,1,8,4356221,4358255,trial,2575,5.46,2357,5.41,2,2034,4356720,4356922,204,3352,561.5,486.8,left,4356720,4356922,202,0.0993117010816126,1
NS01,2,19,Female,R,8,binary,1,8,4356221,4358255,trial,2575,5.46,2357,5.41,2,2034,4356990,4357194,206,3296,1486.6,540.1,right,4356990,4357194,204,0.100294985250737,1
NS01,2,19,Female,R,8,binary,1,8,4356221,4358255,trial,2575,5.46,2357,5.41,2,2034,4357220,4357376,158,3232,1320,568.3,right,4357220,4357376,156,0.0766961651917404,1
NS01,2,19,Female,R,8,binary,1,8,4356221,4358255,trial,2575,5.46,2357,5.41,2,2034,4357388,4357878,492,3206,1273.2,559.5,right,4357388,4357878,490,0.240904621435595,1
NS01,2,19,Female,R,8,binary,1,8,4356221,4358255,trial,2575,5.46,2357,5.41,2,2034,4357940,4358096,158,3245,519.9,516.2,left,4357940,4358096,156,0.0766961651917404,1
NS01,2,19,Female,R,8,binary,1,8,4356221,4358255,trial,2575,5.46,2357,5.41,2,2034,4358116,4358536,422,3268,573.3,494.5,left,4358116,4358255,139,0.068338249754179,1
NS01,2,19,Female,R,9,binary,1,9,4358922,4360722,trial,2606,5.92,2191,5.3,1,1800,4358660,4359108,450,3431,874.5,496.8,,4358922,4359108,186,0.103333333333333,1
NS01,2,19,Female,R,9,binary,1,9,4358922,4360722,trial,2606,5.92,2191,5.3,1,1800,4359156,4359308,154,3622,480.4,555.5,left,4359156,4359308,152,0.0844444444444445,1
NS01,2,19,Female,R,9,binary,1,9,4358922,4360722,trial,2606,5.92,2191,5.3,1,1800,4359336,4359522,188,3545,421.5,438.8,left,4359336,4359522,186,0.103333333333333,1
NS01,2,19,Female,R,9,binary,1,9,4358922,4360722,trial,2606,5.92,2191,5.3,1,1800,4359542,4359742,202,3465,418,417.9,left,4359542,4359742,200,0.111111111111111,1
NS01,2,19,Female,R,9,binary,1,9,4358922,4360722,trial,2606,5.92,2191,5.3,1,1800,4359810,4360276,468,3502,1395.1,517.3,right,4359810,4360276,466,0.258888888888889,1
NS01,2,19,Female,R,9,binary,1,9,4358922,4360722,trial,2606,5.92,2191,5.3,1,1800,4360358,4360520,164,3371,369,442.9,left,4360358,4360520,162,0.09,1
NS01,2,19,Female,R,9,binary,1,9,4358922,4360722,postResponse,2606,5.92,2191,5.3,1,1800,4360536,4361040,506,3254,420.2,431.4,left,4360536,4360722,186,0.103333333333333,1
NS01,2,19,Female,R,10,binary,1,10,4361422,4363355,trial,7100,5.24,2362,6.74,2,1933,4361154,4361618,466,3341,517.2,449.3,left,4361422,4361618,196,0.10139679255044,1
NS01,2,19,Female,R,10,binary,1,10,4361422,4363355,trial,7100,5.24,2362,6.74,2,1933,4361660,4361902,244,3312,472.4,589.4,left,4361660,4361902,242,0.125193998965339,1
NS01,2,19,Female,R,10,binary,1,10,4361422,4363355,trial,7100,5.24,2362,6.74,2,1933,4361976,4362124,150,3252,1445.1,466.5,right,4361976,4362124,148,0.0765649249870667,1
NS01,2,19,Female,R,10,binary,1,10,4361422,4363355,trial,7100,5.24,2362,6.74,2,1933,4362146,4362508,364,3215,1357.8,490.8,right,4362146,4362508,362,0.187273667873771,1
NS01,2,19,Female,R,10,binary,1,10,4361422,4363355,trial,7100,5.24,2362,6.74,2,1933,4362524,4362888,366,3250,1392.3,459.2,right,4362524,4362888,364,0.188308329022245,1
NS01,2,19,Female,R,10,binary,1,10,4361422,4363355,trial,7100,5.24,2362,6.74,2,1933,4362900,4363150,252,3333,1357.9,481.2,right,4362900,4363150,250,0.129332643559234,1
NS01,2,19,Female,R,10,binary,1,10,4361422,4363355,trial,7100,5.24,2362,6.74,2,1933,4363220,4363586,368,3345,490.9,511.9,left,4363220,4363355,135,0.0698396275219866,1
NS01,2,19,Female,R,11,binary,1,11,4364055,4366906,trial,2506,5.67,8600,6.38,1,2851,4363784,4364200,418,3450,635.7,470.3,left,4364055,4364200,145,0.0508593475973343,1
NS01,2,19,Female,R,11,binary,1,11,4364055,4366906,trial,2506,5.67,8600,6.38,1,2851,4364238,4364610,374,3371,459.8,579.3,left,4364238,4364610,372,0.130480533146265,1
NS01,2,19,Female,R,11,binary,1,11,4364055,4366906,trial,2506,5.67,8600,6.38,1,2851,4364680,4364826,148,3299,1449.3,518,right,4364680,4364826,146,0.0512101017186952,1
NS01,2,19,Female,R,11,binary,1,11,4364055,4366906,trial,2506,5.67,8600,6.38,1,2851,4364852,4365088,238,3332,1337.7,437,right,4364852,4365088,236,0.0827779726411785,1
NS01,2,19,Female,R,11,binary,1,11,4364055,4366906,trial,2506,5.67,8600,6.38,1,2851,4365120,4365370,252,3526,1346.3,584.2,right,4365120,4365370,250,0.0876885303402315,1
NS01,2,19,Female,R,11,binary,1,11,4364055,4366906,trial,2506,5.67,8600,6.38,1,2851,4365392,4365732,342,3516,1393,521.8,right,4365392,4365732,340,0.119256401262715,1
NS01,2,19,Female,R,11,binary,1,11,4364055,4366906,trial,2506,5.67,8600,6.38,1,2851,4365758,4366058,302,3473,1556.4,575.9,right,4365758,4366058,300,0.105226236408278,1
NS01,2,19,Female,R,11,binary,1,11,4364055,4366906,trial,2506,5.67,8600,6.38,1,2851,4366140,4366302,164,3413,432.8,596.9,left,4366140,4366302,162,0.05682216766047,1
NS01,2,19,Female,R,11,binary,1,11,4364055,4366906,trial,2506,5.67,8600,6.38,1,2851,4366316,4366580,266,3311,467.1,589.5,left,4366316,4366580,264,0.0925990880392845,1
NS01,2,19,Female,R,11,binary,1,11,4364055,4366906,postResponse,2506,5.67,8600,6.38,1,2851,4366594,4367238,646,3205,459.2,563,left,4366594,4366906,312,0.109435285864609,1
NS01,2,19,Female,R,12,binary,1,12,4367589,4369705,trial,2594,6.05,8467,6.35,1,2116,4367312,4367870,560,3463,477.5,566.2,left,4367589,4367870,281,0.132797731568998,1
NS01,2,19,Female,R,12,binary,1,12,4367589,4369705,trial,2594,6.05,8467,6.35,1,2116,4367954,4368198,246,3553,1495.1,559.7,right,4367954,4368198,244,0.11531190926276,1
NS01,2,19,Female,R,12,binary,1,12,4367589,4369705,trial,2594,6.05,8467,6.35,1,2116,4368222,4368556,336,3574,1512.6,494.9,right,4368222,4368556,334,0.157844990548204,1
NS01,2,19,Female,R,12,binary,1,12,4367589,4369705,trial,2594,6.05,8467,6.35,1,2116,4368630,4368918,290,3423,500.8,539.3,left,4368630,4368918,288,0.136105860113422,1
NS01,2,19,Female,R,12,binary,1,12,4367589,4369705,trial,2594,6.05,8467,6.35,1,2116,4368932,4369182,252,3350,466.9,573.3,left,4368932,4369182,250,0.118147448015123,1
NS01,2,19,Female,R,12,binary,1,12,4367589,4369705,trial,2594,6.05,8467,6.35,1,2116,4369208,4369426,220,3335,627,569.1,left,4369208,4369426,218,0.103024574669187,1
NS01,2,19,Female,R,12,binary,1,12,4367589,4369705,trial,2594,6.05,8467,6.35,1,2116,4369458,4369752,296,3351,420.3,580.3,left,4369458,4369705,247,0.116729678638941,1
NS01,2,19,Female,R,12,binary,1,12,4367589,4369705,postResponse,2594,6.05,8467,6.35,1,2116,4369768,4370036,270,3350,473.6,573.2,left,4369705,4369705,0,0,0
NS01,2,19,Female,R,13,binary,1,13,4370355,4372322,trial,6250,6.32,7500,5.33,2,1967,4370110,4370550,442,3416,478.4,572.1,left,4370355,4370550,195,0.0991357397051347,1
NS01,2,19,Female,R,13,binary,1,13,4370355,4372322,trial,6250,6.32,7500,5.33,2,1967,4370574,4370900,328,3335,509.3,498.2,left,4370574,4370900,326,0.165734621250635,1
NS01,2,19,Female,R,13,binary,1,13,4370355,4372322,trial,6250,6.32,7500,5.33,2,1967,4370968,4371328,362,3268,1416.2,588.6,right,4370968,4371328,360,0.183019827147941,1
NS01,2,19,Female,R,13,binary,1,13,4370355,4372322,trial,6250,6.32,7500,5.33,2,1967,4371358,4371646,290,3418,1531.3,677.1,right,4371358,4371646,288,0.146415861718353,1
NS01,2,19,Female,R,13,binary,1,13,4370355,4372322,trial,6250,6.32,7500,5.33,2,1967,4371686,4371922,238,3417,1497.5,484.8,right,4371686,4371922,236,0.11997966446365,1
NS01,2,19,Female,R,13,binary,1,13,4370355,4372322,trial,6250,6.32,7500,5.33,2,1967,4371994,4372264,272,3330,520.3,514.6,left,4371994,4372264,270,0.137264870360956,1
NS01,2,19,Female,R,13,binary,1,13,4370355,4372322,postResponse,6250,6.32,7500,5.33,2,1967,4372326,4372674,350,3465,1383.2,613.6,right,4372322,4372322,0,0,0
NS01,2,19,Female,R,14,binary,1,14,4373022,4374389,fixationCross,7450,6.4,1903,5.5,1,1367,4372748,4372766,20,3588,1380.8,609.3,right,4373022,4373022,0,0,0
NS01,2,19,Female,R,14,binary,1,14,4373022,4374389,trial,7450,6.4,1903,5.5,1,1367,4372808,4373196,390,3662,1042.5,465,,4373022,4373196,174,0.127286027798098,1
NS01,2,19,Female,R,14,binary,1,14,4373022,4374389,trial,7450,6.4,1903,5.5,1,1367,4373244,4373494,252,3580,540.9,551.9,left,4373244,4373494,250,0.182882223847842,1
NS01,2,19,Female,R,14,binary,1,14,4373022,4374389,trial,7450,6.4,1903,5.5,1,1367,4373558,4373862,306,3320,1476.8,569.7,right,4373558,4373862,304,0.222384784198976,1
NS01,2,19,Female,R,14,binary,1,14,4373022,4374389,trial,7450,6.4,1903,5.5,1,1367,4373934,4374690,758,3143,498.7,586.1,left,4373934,4374389,455,0.332845647403072,1
NS01,2,19,Female,R,15,binary,1,15,4375089,4378155,trial,2511,6.21,7001,5.32,2,3066,4374822,4375276,456,3247,567.5,534.3,left,4375089,4375276,187,0.0609915198956295,1
NS01,2,19,Female,R,15,binary,1,15,4375089,4378155,trial,2511,6.21,7001,5.32,2,3066,4375294,4375444,152,3331,529.7,572.1,left,4375294,4375444,150,0.0489236790606654,1
NS01,2,19,Female,R,15,binary,1,15,4375089,4378155,trial,2511,6.21,7001,5.32,2,3066,4375510,4375764,256,3353,1418.8,587.4,right,4375510,4375764,254,0.0828440965427267,1
NS01,2,19,Female,R,15,binary,1,15,4375089,4378155,trial,2511,6.21,7001,5.32,2,3066,4375786,4375976,192,3437,1438.7,493.1,right,4375786,4375976,190,0.0619699934768428,1
NS01,2,19,Female,R,15,binary,1,15,4375089,4378155,trial,2511,6.21,7001,5.32,2,3066,4376038,4376166,130,3471,585.7,553.4,left,4376038,4376166,128,0.0417482061317678,1
NS01,2,19,Female,R,15,binary,1,15,4375089,4378155,trial,2511,6.21,7001,5.32,2,3066,4376182,4376500,320,3425,530.1,567.6,left,4376182,4376500,318,0.103718199608611,1
NS01,2,19,Female,R,15,binary,1,15,4375089,4378155,trial,2511,6.21,7001,5.32,2,3066,4376564,4377028,466,3482,1463.1,569.6,right,4376564,4377028,464,0.151337247227658,1
NS01,2,19,Female,R,15,binary,1,15,4375089,4378155,trial,2511,6.21,7001,5.32,2,3066,4377100,4377474,376,3427,524.6,559.1,left,4377100,4377474,374,0.121983039791259,1
NS01,2,19,Female,R,15,binary,1,15,4375089,4378155,trial,2511,6.21,7001,5.32,2,3066,4377496,4377714,220,3399,608.3,596.3,left,4377496,4377714,218,0.071102413568167,1
NS01,2,19,Female,R,15,binary,1,15,4375089,4378155,trial,2511,6.21,7001,5.32,2,3066,4377778,4377984,208,3424,1509.5,577.7,right,4377778,4377984,206,0.0671885192433138,1
NS01,2,19,Female,R,15,binary,1,15,4375089,4378155,trial,2511,6.21,7001,5.32,2,3066,4378008,4378346,340,3460,1402.7,524.3,right,4378008,4378155,147,0.0479452054794521,1
NS01,2,19,Female,R,16,binary,1,16,4378838,4381155,trial,8193,6.73,1810,6.52,1,2317,4378586,4378972,388,3529,816.3,512.1,,4378838,4378972,134,0.0578334052654294,1
NS01,2,19,Female,R,16,binary,1,16,4378838,4381155,trial,8193,6.73,1810,6.52,1,2317,4379018,4379260,244,3507,438.2,489.3,left,4379018,4379260,242,0.104445403539059,1
NS01,2,19,Female,R,16,binary,1,16,4378838,4381155,trial,8193,6.73,1810,6.52,1,2317,4379272,4379666,396,3282,428,458.6,left,4379272,4379666,394,0.170047475183427,1
NS01,2,19,Female,R,16,binary,1,16,4378838,4381155,trial,8193,6.73,1810,6.52,1,2317,4379734,4379976,244,3392,1404.2,521.3,right,4379734,4379976,242,0.104445403539059,1
NS01,2,19,Female,R,16,binary,1,16,4378838,4381155,trial,8193,6.73,1810,6.52,1,2317,4379992,4380210,220,3532,1449.5,538.7,right,4379992,4380210,218,0.0940871817004748,1
NS01,2,19,Female,R,16,binary,1,16,4378838,4381155,trial,8193,6.73,1810,6.52,1,2317,4380282,4380420,140,3454,463.8,480.5,left,4380282,4380420,138,0.0595597755718602,1
NS01,2,19,Female,R,16,binary,1,16,4378838,4381155,trial,8193,6.73,1810,6.52,1,2317,4380436,4380718,284,3323,430.2,447.7,left,4380436,4380718,282,0.121709106603366,1
NS01,2,19,Female,R,16,binary,1,16,4378838,4381155,trial,8193,6.73,1810,6.52,1,2317,4380746,4381400,656,3267,492,638.2,left,4380746,4381155,409,0.176521363832542,1
NS01,2,19,Female,R,16,binary,1,16,4378838,4381155,postResponse,8193,6.73,1810,6.52,1,2317,4381426,4381486,62,3293,550.2,493.3,left,4381155,4381155,0,0,0
NS01,2,19,Female,R,17,binary,1,17,4381839,4385289,trial,2514,5.19,8021,6.79,1,3450,4381586,4382194,610,3450,561.5,494.9,left,4381839,4382194,355,0.102898550724638,1
NS01,2,19,Female,R,17,binary,1,17,4381839,4385289,trial,2514,5.19,8021,6.79,1,3450,4382258,4382654,398,3347,1372,533.5,right,4382258,4382654,396,0.114782608695652,1
NS01,2,19,Female,R,17,binary,1,17,4381839,4385289,trial,2514,5.19,8021,6.79,1,3450,4382724,4382948,226,3228,527,556.6,left,4382724,4382948,224,0.0649275362318841,1
NS01,2,19,Female,R,17,binary,1,17,4381839,4385289,trial,2514,5.19,8021,6.79,1,3450,4382978,4383182,206,3204,559,691.2,left,4382978,4383182,204,0.0591304347826087,1
NS01,2,19,Female,R,17,binary,1,17,4381839,4385289,trial,2514,5.19,8021,6.79,1,3450,4383224,4383656,434,3142,375.6,457.4,left,4383224,4383656,432,0.125217391304348,1
NS01,2,19,Female,R,17,binary,1,17,4381839,4385289,trial,2514,5.19,8021,6.79,1,3450,4383686,4383946,262,3118,584.5,503,left,4383686,4383946,260,0.0753623188405797,1
NS01,2,19,Female,R,17,binary,1,17,4381839,4385289,trial,2514,5.19,8021,6.79,1,3450,4383980,4384924,946,3138,546.2,711.6,left,4383980,4384924,944,0.273623188405797,1
NS01,2,19,Female,R,17,binary,1,17,4381839,4385289,postResponse,2514,5.19,8021,6.79,1,3450,4384956,4385624,670,3213,530.3,479.4,left,4384956,4385289,333,0.0965217391304348,1
NS01,2,19,Female,R,18,binary,1,18,4385955,4388089,trial,5471,5.21,7352,6.2,1,2134,4385698,4386176,480,3417,540.9,482,left,4385955,4386176,221,0.103561387066542,1
NS01,2,19,Female,R,18,binary,1,18,4385955,4388089,trial,5471,5.21,7352,6.2,1,2134,4386208,4386366,160,3468,482.9,657.8,left,4386208,4386366,158,0.0740393626991565,1
NS01,2,19,Female,R,18,binary,1,18,4385955,4388089,trial,5471,5.21,7352,6.2,1,2134,4386432,4386692,262,3366,1394,563.9,right,4386432,4386692,260,0.121836925960637,1
NS01,2,19,Female,R,18,binary,1,18,4385955,4388089,trial,5471,5.21,7352,6.2,1,2134,4386708,4387130,424,3382,1448.4,555.7,right,4386708,4387130,422,0.197750702905342,1
NS01,2,19,Female,R,18,binary,1,18,4385955,4388089,trial,5471,5.21,7352,6.2,1,2134,4387146,4387360,216,3308,1508.7,574,right,4387146,4387360,214,0.100281162136832,1
NS01,2,19,Female,R,18,binary,1,18,4385955,4388089,trial,5471,5.21,7352,6.2,1,2134,4387434,4388110,678,3146,523.3,605.8,left,4387434,4388089,655,0.306935332708529,1
NS01,2,19,Female,R,18,binary,1,18,4385955,4388089,postResponse,5471,5.21,7352,6.2,1,2134,4388132,4388420,290,3170,574.6,520.6,left,4388089,4388089,0,0,0
NS01,2,19,Female,R,19,binary,1,19,4388739,4390522,trial,1850,6.15,2442,6.17,2,1783,4388494,4388926,434,3383,581.9,523.2,left,4388739,4388926,187,0.104879416713404,1
NS01,2,19,Female,R,19,binary,1,19,4388739,4390522,trial,1850,6.15,2442,6.17,2,1783,4389010,4389174,166,3506,1472.1,577.7,right,4389010,4389174,164,0.0919798093101514,1
NS01,2,19,Female,R,19,binary,1,19,4388739,4390522,trial,1850,6.15,2442,6.17,2,1783,4389198,4389354,158,3420,1541.1,521.8,right,4389198,4389354,156,0.0874929893438026,1
NS01,2,19,Female,R,19,binary,1,19,4388739,4390522,trial,1850,6.15,2442,6.17,2,1783,4389384,4389600,218,3445,1377.1,494.4,right,4389384,4389600,216,0.121144139091419,1
NS01,2,19,Female,R,19,binary,1,19,4388739,4390522,trial,1850,6.15,2442,6.17,2,1783,4389626,4390042,418,3483,1541.3,528,right,4389626,4390042,416,0.23331463825014,1
NS01,2,19,Female,R,19,binary,1,19,4388739,4390522,trial,1850,6.15,2442,6.17,2,1783,4390124,4390420,298,3438,589.4,606.5,left,4390124,4390420,296,0.166012338754907,1
NS01,2,19,Female,R,19,binary,1,19,4388739,4390522,trial,1850,6.15,2442,6.17,2,1783,4390446,4390738,294,3264,445.4,530.8,left,4390446,4390522,76,0.0426247896803141,1
NS01,2,19,Female,R,19,binary,1,19,4388739,4390522,postResponse,1850,6.15,2442,6.17,2,1783,4390812,4390854,44,3245,1213.4,485.1,right,4390522,4390522,0,0,0
NS01,2,19,Female,R,20,binary,1,20,4391188,4393039,fixationCross,1450,6.37,2308,5.22,2,1851,4390928,4390944,18,3245,1218.9,488.1,right,4391188,4391188,0,0,0
NS01,2,19,Female,R,20,binary,1,20,4391188,4393039,trial,1450,6.37,2308,5.22,2,1851,4390986,4391360,376,3362,823.2,447.4,,4391188,4391360,172,0.0929227444624527,1
NS01,2,19,Female,R,20,binary,1,20,4391188,4393039,trial,1450,6.37,2308,5.22,2,1851,4391402,4391548,148,3397,498.8,546.5,left,4391402,4391548,146,0.0788762830902215,1
NS01,2,19,Female,R,20,binary,1,20,4391188,4393039,trial,1450,6.37,2308,5.22,2,1851,4391570,4391690,122,3307,525.8,454.1,left,4391570,4391690,120,0.0648298217179903,1
NS01,2,19,Female,R,20,binary,1,20,4391188,4393039,trial,1450,6.37,2308,5.22,2,1851,4391758,4391902,146,3302,1493.1,548.8,right,4391758,4391902,144,0.0777957860615883,1
NS01,2,19,Female,R,20,binary,1,20,4391188,4393039,trial,1450,6.37,2308,5.22,2,1851,4391920,4392134,216,3279,1537,594.9,right,4391920,4392134,214,0.115613182063749,1
NS01,2,19,Female,R,20,binary,1,20,4391188,4393039,trial,1450,6.37,2308,5.22,2,1851,4392146,4392336,192,3328,1548,574.3,right,4392146,4392336,190,0.102647217720151,1
NS01,2,19,Female,R,20,binary,1,20,4391188,4393039,trial,1450,6.37,2308,5.22,2,1851,4392362,4392872,512,3249,1403.7,524.4,right,4392362,4392872,510,0.275526742301459,1
NS01,2,19,Female,R,20,binary,1,20,4391188,4393039,postResponse,1450,6.37,2308,5.22,2,1851,4392894,4393370,478,3352,1543.7,555,right,4392894,4393039,145,0.0783360345759049,1
NS01,2,19,Female,R,21,binary,1,21,4393705,4396972,trial,7053,5.22,2597,5.61,2,3267,4393444,4393864,422,3482,900.3,482.9,,4393705,4393864,159,0.0486685032139578,1
NS01,2,19,Female,R,21,binary,1,21,4393705,4396972,trial,7053,5.22,2597,5.61,2,3267,4393910,4394112,204,3520,500.5,527.9,left,4393910,4394112,202,0.0618304254667891,1
NS01,2,19,Female,R,21,binary,1,21,4393705,4396972,trial,7053,5.22,2597,5.61,2,3267,4394132,4394388,258,3257,418.4,528.4,left,4394132,4394388,256,0.0783593510866238,1
NS01,2,19,Female,R,21,binary,1,21,4393705,4396972,trial,7053,5.22,2597,5.61,2,3267,4394402,4394662,262,3082,375.9,520.7,left,4394402,4394662,260,0.0795837159473523,1
NS01,2,19,Female,R,21,binary,1,21,4393705,4396972,trial,7053,5.22,2597,5.61,2,3267,4394682,4394820,140,3061,478.3,538.7,left,4394682,4394820,138,0.0422405876951331,1
NS01,2,19,Female,R,21,binary,1,21,4393705,4396972,trial,7053,5.22,2597,5.61,2,3267,4394886,4395228,344,3141,1401.1,561.3,right,4394886,4395228,342,0.104683195592286,1
NS01,2,19,Female,R,21,binary,1,21,4393705,4396972,trial,7053,5.22,2597,5.61,2,3267,4395248,4395504,258,3342,1494.5,601.1,right,4395248,4395504,256,0.0783593510866238,1
NS01,2,19,Female,R,21,binary,1,21,4393705,4396972,trial,7053,5.22,2597,5.61,2,3267,4395526,4396292,768,3367,1590.1,576,right,4395526,4396292,766,0.234465870829507,1
NS01,2,19,Female,R,21,binary,1,21,4393705,4396972,trial,7053,5.22,2597,5.61,2,3267,4396320,4396522,204,3400,1364.6,547.8,right,4396320,4396522,202,0.0618304254667891,1
NS01,2,19,Female,R,21,binary,1,21,4393705,4396972,trial,7053,5.22,2597,5.61,2,3267,4396546,4396794,250,3418,1427.9,423.9,right,4396546,4396794,248,0.0759106213651668,1
NS01,2,19,Female,R,21,binary,1,21,4393705,4396972,trial,7053,5.22,2597,5.61,2,3267,4396824,4397158,336,3460,1351.7,574.4,right,4396824,4396972,148,0.0453014998469544,1
NS01,2,19,Female,R,22,binary,1,22,4397656,4400389,trial,2010,6.25,7095,5.99,2,2733,4397402,4397802,402,3581,872.1,499.8,,4397656,4397802,146,0.0534211489206001,1
NS01,2,19,Female,R,22,binary,1,22,4397656,4400389,trial,2010,6.25,7095,5.99,2,2733,4397848,4398028,182,3510,501.6,573.1,left,4397848,4398028,180,0.0658616904500549,1
NS01,2,19,Female,R,22,binary,1,22,4397656,4400389,trial,2010,6.25,7095,5.99,2,2733,4398038,4398234,198,3376,474.7,590.4,left,4398038,4398234,196,0.0717160629345042,1
NS01,2,19,Female,R,22,binary,1,22,4397656,4400389,trial,2010,6.25,7095,5.99,2,2733,4398302,4398514,214,3386,1460.6,608.5,right,4398302,4398514,212,0.0775704354189535,1
NS01,2,19,Female,R,22,binary,1,22,4397656,4400389,trial,2010,6.25,7095,5.99,2,2733,4398530,4398796,268,3372,1419.9,575.2,right,4398530,4398796,266,0.09732894255397,1
NS01,2,19,Female,R,22,binary,1,22,4397656,4400389,trial,2010,6.25,7095,5.99,2,2733,4398816,4398980,166,3306,1448.3,496.8,right,4398816,4398980,164,0.0600073179656056,1
NS01,2,19,Female,R,22,binary,1,22,4397656,4400389,trial,2010,6.25,7095,5.99,2,2733,4399054,4399250,198,3198,483.8,599.2,left,4399054,4399250,196,0.0717160629345042,1
NS01,2,19,Female,R,22,binary,1,22,4397656,4400389,trial,2010,6.25,7095,5.99,2,2733,4399262,4399462,202,3203,466.8,585.7,left,4399262,4399462,200,0.0731796560556165,1
NS01,2,19,Female,R,22,binary,1,22,4397656,4400389,trial,2010,6.25,7095,5.99,2,2733,4399476,4399754,280,3223,471.7,551.9,left,4399476,4399754,278,0.101719721917307,1
NS01,2,19,Female,R,22,binary,1,22,4397656,4400389,trial,2010,6.25,7095,5.99,2,2733,4399824,4400098,276,3317,1459.3,591.4,right,4399824,4400098,274,0.100256128796195,1
NS01,2,19,Female,R,22,binary,1,22,4397656,4400389,trial,2010,6.25,7095,5.99,2,2733,4400112,4400602,492,3262,1434.2,568.9,right,4400112,4400389,277,0.101353823637029,1
NS01,2,19,Female,R,22,binary,1,22,4397656,4400389,postResponse,2010,6.25,7095,5.99,2,2733,4400672,4400722,52,3197,749.5,511.5,,4400389,4400389,0,0,0
NS01,2,19,Female,R,23,binary,1,23,4401073,4402773,trial,2122,5.15,2374,6.29,2,1700,4400796,4401212,418,3322,752.7,515.2,,4401073,4401212,139,0.081764705882353,1
NS01,2,19,Female,R,23,binary,1,23,4401073,4402773,trial,2122,5.15,2374,6.29,2,1700,4401254,4401568,316,3328,440.1,583.4,left,4401254,4401568,314,0.184705882352941,1
NS01,2,19,Female,R,23,binary,1,23,4401073,4402773,trial,2122,5.15,2374,6.29,2,1700,4401634,4401908,276,3313,1329,602.1,right,4401634,4401908,274,0.161176470588235,1
NS01,2,19,Female,R,23,binary,1,23,4401073,4402773,postResponse,2122,5.15,2374,6.29,2,1700,4401920,4403104,1186,3399,1377,604.7,right,4401920,4402773,853,0.501764705882353,1
NS01,2,19,Female,R,24,binary,1,24,4403456,4406206,trial,5849,6.65,5875,6.03,1,2750,4403204,4403516,314,3596,1429.3,531.4,right,4403456,4403516,60,0.0218181818181818,1
NS01,2,19,Female,R,24,binary,1,24,4403456,4406206,trial,5849,6.65,5875,6.03,1,2750,4403562,4403688,128,3671,971,527.1,,4403562,4403688,126,0.0458181818181818,1
NS01,2,19,Female,R,24,binary,1,24,4403456,4406206,trial,5849,6.65,5875,6.03,1,2750,4403734,4404304,572,3400,543.3,529.9,left,4403734,4404304,570,0.207272727272727,1
NS01,2,19,Female,R,24,binary,1,24,4403456,4406206,trial,5849,6.65,5875,6.03,1,2750,4404316,4404628,314,3232,504.8,549.6,left,4404316,4404628,312,0.113454545454545,1
NS01,2,19,Female,R,24,binary,1,24,4403456,4406206,trial,5849,6.65,5875,6.03,1,2750,4404646,4404818,174,3189,550.6,501.8,left,4404646,4404818,172,0.0625454545454545,1
NS01,2,19,Female,R,24,binary,1,24,4403456,4406206,trial,5849,6.65,5875,6.03,1,2750,4404844,4405142,300,3163,468.2,590.9,left,4404844,4405142,298,0.108363636363636,1
NS01,2,19,Female,R,24,binary,1,24,4403456,4406206,trial,5849,6.65,5875,6.03,1,2750,4405216,4405486,272,3169,1481.7,491.8,right,4405216,4405486,270,0.0981818181818182,1
NS01,2,19,Female,R,24,binary,1,24,4403456,4406206,trial,5849,6.65,5875,6.03,1,2750,4405510,4405772,264,3164,1437.7,387.8,right,4405510,4405772,262,0.0952727272727273,1
NS01,2,19,Female,R,24,binary,1,24,4403456,4406206,postResponse,5849,6.65,5875,6.03,1,2750,4405852,4406536,686,3075,471.8,551.2,left,4405852,4406206,354,0.128727272727273,1
NS01,2,19,Female,R,25,binary,1,25,4406872,4408756,trial,5900,5.93,2593,5.8,2,1884,4406610,4407110,502,3250,504.5,534.3,left,4406872,4407110,238,0.126326963906582,1
NS01,2,19,Female,R,25,binary,1,25,4406872,4408756,trial,5900,5.93,2593,5.8,2,1884,4407124,4407386,264,3326,493,571.6,left,4407124,4407386,262,0.139065817409766,1
NS01,2,19,Female,R,25,binary,1,25,4406872,4408756,trial,5900,5.93,2593,5.8,2,1884,4407452,4407644,194,3344,1382.1,546.2,right,4407452,4407644,192,0.101910828025478,1
NS01,2,19,Female,R,25,binary,1,25,4406872,4408756,trial,5900,5.93,2593,5.8,2,1884,4407660,4407786,128,3382,1320.1,563,right,4407660,4407786,126,0.0668789808917197,1
NS01,2,19,Female,R,25,binary,1,25,4406872,4408756,trial,5900,5.93,2593,5.8,2,1884,4408006,4408592,588,3559,1403.3,564.1,right,4408006,4408592,586,0.31104033970276,1
NS01,2,19,Female,R,25,binary,1,25,4406872,4408756,postResponse,5900,5.93,2593,5.8,2,1884,4408610,4409086,478,3423,1493,543.9,right,4408610,4408756,146,0.0774946921443737,1
NS01,2,19,Female,R,26,binary,1,26,4433090,4435673,fixationCross,7507,6.25,7017,5.18,1,2583,4432817,4433059,244,3087,173.2,49.8,,4433090,4433090,0,0,0
NS01,2,19,Female,R,26,binary,1,26,4433090,4435673,trial,7507,6.25,7017,5.18,1,2583,4433205,4433343,140,3367,942.1,504.9,,4433205,4433343,138,0.0534262485481998,1
NS01,2,19,Female,R,26,binary,1,26,4433090,4435673,trial,7507,6.25,7017,5.18,1,2583,4433387,4433557,172,3569,1335,601.9,right,4433387,4433557,170,0.0658149438637244,1
NS01,2,19,Female,R,26,binary,1,26,4433090,4435673,trial,7507,6.25,7017,5.18,1,2583,4433613,4433765,154,3791,1462.4,979.3,,4433613,4433765,152,0.0588463027487418,1
NS01,2,19,Female,R,26,binary,1,26,4433090,4435673,trial,7507,6.25,7017,5.18,1,2583,4433785,4433899,116,3797,1422.7,1011.1,,4433785,4433899,114,0.0441347270615563,1
NS01,2,19,Female,R,26,binary,1,26,4433090,4435673,trial,7507,6.25,7017,5.18,1,2583,4433969,4434175,208,3638,571.4,600.3,left,4433969,4434175,206,0.0797522260936895,1
NS01,2,19,Female,R,26,binary,1,26,4433090,4435673,trial,7507,6.25,7017,5.18,1,2583,4434199,4434399,202,3499,564.2,490.8,left,4434199,4434399,200,0.0774293457220287,1
NS01,2,19,Female,R,26,binary,1,26,4433090,4435673,trial,7507,6.25,7017,5.18,1,2583,4434425,4434661,238,3300,378.6,609.2,left,4434425,4434661,236,0.0913666279519938,1
NS01,2,19,Female,R,26,binary,1,26,4433090,4435673,trial,7507,6.25,7017,5.18,1,2583,4434691,4434949,260,3197,581.2,526.7,left,4434691,4434949,258,0.099883855981417,1
NS01,2,19,Female,R,26,binary,1,26,4433090,4435673,trial,7507,6.25,7017,5.18,1,2583,4435013,4435233,222,3224,1419.4,551.9,right,4435013,4435233,220,0.0851722802942315,1
NS01,2,19,Female,R,26,binary,1,26,4433090,4435673,trial,7507,6.25,7017,5.18,1,2583,4435295,4435457,164,3313,636.7,562.7,left,4435295,4435457,162,0.0627177700348432,1
NS01,2,19,Female,R,26,binary,1,26,4433090,4435673,postResponse,7507,6.25,7017,5.18,1,2583,4435475,4436005,532,3303,563.9,530.7,left,4435475,4435673,198,0.0766550522648084,1
NS01,2,19,Female,R,27,binary,1,27,4436356,4437756,trial,2720,5.43,2488,5.73,2,1400,4436079,4436583,506,3425,569.3,533.7,left,4436356,4436583,227,0.162142857142857,1
NS01,2,19,Female,R,27,binary,1,27,4436356,4437756,trial,2720,5.43,2488,5.73,2,1400,4436677,4436845,170,3393,490.5,514.1,left,4436677,4436845,168,0.12,1
NS01,2,19,Female,R,27,binary,1,27,4436356,4437756,trial,2720,5.43,2488,5.73,2,1400,4436869,4437035,168,3320,505.3,453.3,left,4436869,4437035,166,0.118571428571429,1
NS01,2,19,Female,R,27,binary,1,27,4436356,4437756,trial,2720,5.43,2488,5.73,2,1400,4437067,4437189,124,3327,550.5,619.2,left,4437067,4437189,122,0.0871428571428572,1
NS01,2,19,Female,R,27,binary,1,27,4436356,4437756,trial,2720,5.43,2488,5.73,2,1400,4437257,4437395,140,3412,1465.5,541,right,4437257,4437395,138,0.0985714285714286,1
NS01,2,19,Female,R,27,binary,1,27,4436356,4437756,trial,2720,5.43,2488,5.73,2,1400,4437417,4437589,174,3377,1425.3,465.2,right,4437417,4437589,172,0.122857142857143,1
NS01,2,19,Female,R,27,binary,1,27,4436356,4437756,trial,2720,5.43,2488,5.73,2,1400,4437599,4438021,424,3465,1410.3,485.7,right,4437599,4437756,157,0.112142857142857,1
NS01,2,19,Female,R,28,binary,1,28,4438406,4440157,fixationCross,8465,5.96,5750,6.6,1,1751,4438163,4438287,126,3424,836.6,583,,4438406,4438406,0,0,0
NS01,2,19,Female,R,28,binary,1,28,4438406,4440157,trial,8465,5.96,5750,6.6,1,1751,4438315,4438561,248,3509,668.4,502.5,left,4438406,4438561,155,0.0885208452312964,1
NS01,2,19,Female,R,28,binary,1,28,4438406,4440157,trial,8465,5.96,5750,6.6,1,1751,4438593,4438785,194,3512,495,505,left,4438593,4438785,192,0.109651627641348,1
NS01,2,19,Female,R,28,binary,1,28,4438406,4440157,trial,8465,5.96,5750,6.6,1,1751,4438801,4438983,184,3309,492.1,461.3,left,4438801,4438983,182,0.103940605368361,1
NS01,2,19,Female,R,28,binary,1,28,4438406,4440157,trial,8465,5.96,5750,6.6,1,1751,4439051,4439475,426,3252,1439.8,564.3,right,4439051,4439475,424,0.242147344374643,1
NS01,2,19,Female,R,28,binary,1,28,4438406,4440157,trial,8465,5.96,5750,6.6,1,1751,4439547,4439763,218,3185,499.9,496.8,left,4439547,4439763,216,0.123358081096516,1
NS01,2,19,Female,R,28,binary,1,28,4438406,4440157,postResponse,8465,5.96,5750,6.6,1,1751,4439779,4440487,710,3062,484,462.2,left,4439779,4440157,378,0.215876641918904,1
NS01,2,19,Female,R,29,binary,1,29,4440823,4442989,trial,2037,6.42,4598,6.33,2,2166,4440561,4441037,478,3302,497.3,466.9,left,4440823,4441037,214,0.0987996306555863,1
NS01,2,19,Female,R,29,binary,1,29,4440823,4442989,trial,2037,6.42,4598,6.33,2,2166,4441059,4441209,152,3414,542,549.1,left,4441059,4441209,150,0.0692520775623269,1
NS01,2,19,Female,R,29,binary,1,29,4440823,4442989,trial,2037,6.42,4598,6.33,2,2166,4441229,4441363,136,3348,610.7,493.4,left,4441229,4441363,134,0.061865189289012,1
NS01,2,19,Female,R,29,binary,1,29,4440823,4442989,trial,2037,6.42,4598,6.33,2,2166,4441431,4441915,486,3400,1538.8,525.8,right,4441431,4441915,484,0.223453370267775,1
NS01,2,19,Female,R,29,binary,1,29,4440823,4442989,trial,2037,6.42,4598,6.33,2,2166,4441945,4442363,420,3353,1313.7,511.4,right,4441945,4442363,418,0.192982456140351,1
NS01,2,19,Female,R,29,binary,1,29,4440823,4442989,trial,2037,6.42,4598,6.33,2,2166,4442541,4442641,102,3356,1440.8,508,right,4442541,4442641,100,0.0461680517082179,1
NS01,2,19,Female,R,29,binary,1,29,4440823,4442989,trial,2037,6.42,4598,6.33,2,2166,4442663,4443253,592,3413,1548.4,515.1,right,4442663,4442989,326,0.15050784856879,1
NS01,2,19,Female,R,30,binary,1,30,4443706,4445773,trial,7513,5.45,8325,5.63,2,2067,4443419,4443743,326,3562,1088.7,426,,4443706,4443743,37,0.0179003386550556,1
NS01,2,19,Female,R,30,binary,1,30,4443706,4445773,trial,7513,5.45,8325,5.63,2,2067,4443773,4443891,120,3705,929.3,522.5,,4443773,4443891,118,0.0570875665215288,1
NS01,2,19,Female,R,30,binary,1,30,4443706,4445773,trial,7513,5.45,8325,5.63,2,2067,4443933,4444097,166,3646,590.7,543.2,left,4443933,4444097,164,0.0793420416061926,1
NS01,2,19,Female,R,30,binary,1,30,4443706,4445773,trial,7513,5.45,8325,5.63,2,2067,4444115,4444381,268,3469,513.4,537.6,left,4444115,4444381,266,0.128688921141751,1
NS01,2,19,Female,R,30,binary,1,30,4443706,4445773,trial,7513,5.45,8325,5.63,2,2067,4444393,4444531,140,3300,507.8,519.7,left,4444393,4444531,138,0.0667634252539913,1
NS01,2,19,Female,R,30,binary,1,30,4443706,4445773,trial,7513,5.45,8325,5.63,2,2067,4444597,4444823,228,3298,1408.4,580,right,4444597,4444823,226,0.109337203676826,1
NS01,2,19,Female,R,30,binary,1,30,4443706,4445773,trial,7513,5.45,8325,5.63,2,2067,4444841,4445495,656,3387,1499.4,582.8,right,4444841,4445495,654,0.316400580551524,1
NS01,2,19,Female,R,30,binary,1,30,4443706,4445773,trial,7513,5.45,8325,5.63,2,2067,4445519,4445635,118,3395,1363.3,606.4,right,4445519,4445635,116,0.0561199806482825,1
NS01,2,19,Female,R,30,binary,1,30,4443706,4445773,postResponse,7513,5.45,8325,5.63,2,2067,4445703,4446103,402,3293,519.5,555.9,left,4445703,4445773,70,0.0338655055636188,1
NS01,2,19,Female,R,31,binary,1,31,4446440,4448856,trial,4619,6.46,2019,6.07,1,2416,4446177,4446651,476,3270,573.9,509.1,left,4446440,4446651,211,0.0873344370860927,1
NS01,2,19,Female,R,31,binary,1,31,4446440,4448856,trial,4619,6.46,2019,6.07,1,2416,4446669,4446823,156,3315,491.4,541.7,left,4446669,4446823,154,0.0637417218543046,1
NS01,2,19,Female,R,31,binary,1,31,4446440,4448856,trial,4619,6.46,2019,6.07,1,2416,4446839,4447139,302,3132,435.5,548.5,left,4446839,4447139,300,0.124172185430464,1
NS01,2,19,Female,R,31,binary,1,31,4446440,4448856,trial,4619,6.46,2019,6.07,1,2416,4447207,4447363,158,3062,1401.1,531,right,4447207,4447363,156,0.0645695364238411,1
NS01,2,19,Female,R,31,binary,1,31,4446440,4448856,trial,4619,6.46,2019,6.07,1,2416,4447377,4447795,420,3139,1424.7,571.5,right,4447377,4447795,418,0.173013245033113,1
NS01,2,19,Female,R,31,binary,1,31,4446440,4448856,trial,4619,6.46,2019,6.07,1,2416,4447807,4448031,226,3224,1437.5,554.1,right,4447807,4448031,224,0.0927152317880795,1
NS01,2,19,Female,R,31,binary,1,31,4446440,4448856,trial,4619,6.46,2019,6.07,1,2416,4448107,4448379,274,3176,407.6,530.9,left,4448107,4448379,272,0.112582781456954,1
NS01,2,19,Female,R,31,binary,1,31,4446440,4448856,trial,4619,6.46,2019,6.07,1,2416,4448391,4448603,214,3173,441.2,545.8,left,4448391,4448603,212,0.0877483443708609,1
NS01,2,19,Female,R,31,binary,1,31,4446440,4448856,postResponse,4619,6.46,2019,6.07,1,2416,4448625,4449187,564,3229,528.7,530.8,left,4448625,4448856,231,0.095612582781457,1
NS01,2,19,Female,R,32,binary,1,32,4449506,4451656,trial,1910,6.71,7188,5.5,2,2150,4449261,4449819,560,3431,522.8,492.9,left,4449506,4449819,313,0.145581395348837,1
NS01,2,19,Female,R,32,binary,1,32,4449506,4451656,trial,1910,6.71,7188,5.5,2,2150,4449835,4449935,102,3476,582.4,496.1,left,4449835,4449935,100,0.0465116279069768,1
NS01,2,19,Female,R,32,binary,1,32,4449506,4451656,trial,1910,6.71,7188,5.5,2,2150,4450001,4450303,304,3521,1447.4,557.7,right,4450001,4450303,302,0.14046511627907,1
NS01,2,19,Female,R,32,binary,1,32,4449506,4451656,trial,1910,6.71,7188,5.5,2,2150,4450317,4450735,420,3409,1415.3,553.1,right,4450317,4450735,418,0.194418604651163,1
NS01,2,19,Female,R,32,binary,1,32,4449506,4451656,trial,1910,6.71,7188,5.5,2,2150,4450747,4451105,360,3229,1449.8,577.2,right,4450747,4451105,358,0.166511627906977,1
NS01,2,19,Female,R,32,binary,1,32,4449506,4451656,trial,1910,6.71,7188,5.5,2,2150,4451181,4451371,192,3075,539.4,559.9,left,4451181,4451371,190,0.0883720930232558,1
NS01,2,19,Female,R,32,binary,1,32,4449506,4451656,trial,1910,6.71,7188,5.5,2,2150,4451391,4451521,132,3042,595.5,492.5,left,4451391,4451521,130,0.0604651162790698,1
NS01,2,19,Female,R,32,binary,1,32,4449506,4451656,trial,1910,6.71,7188,5.5,2,2150,4451583,4451925,344,3169,1417.2,531.9,right,4451583,4451656,73,0.033953488372093,1
NS01,2,19,Female,R,33,binary,1,33,4452339,4455089,trial,7390,6.84,7351,5.82,1,2750,4452089,4452505,418,3282,745.9,479,,4452339,4452505,166,0.0603636363636364,1
NS01,2,19,Female,R,33,binary,1,33,4452339,4455089,trial,7390,6.84,7351,5.82,1,2750,4452531,4452729,200,3466,565.5,525.3,left,4452531,4452729,198,0.072,1
NS01,2,19,Female,R,33,binary,1,33,4452339,4455089,trial,7390,6.84,7351,5.82,1,2750,4452753,4452965,214,3343,448,549.6,left,4452753,4452965,212,0.0770909090909091,1
NS01,2,19,Female,R,33,binary,1,33,4452339,4455089,trial,7390,6.84,7351,5.82,1,2750,4453035,4453625,592,3390,1428.6,550.3,right,4453035,4453625,590,0.214545454545455,1
NS01,2,19,Female,R,33,binary,1,33,4452339,4455089,trial,7390,6.84,7351,5.82,1,2750,4453643,4453863,222,3410,1462.3,616.6,right,4453643,4453863,220,0.08,1
NS01,2,19,Female,R,33,binary,1,33,4452339,4455089,trial,7390,6.84,7351,5.82,1,2750,4453885,4454099,216,3360,1394.1,666.8,right,4453885,4454099,214,0.0778181818181818,1
NS01,2,19,Female,R,33,binary,1,33,4452339,4455089,trial,7390,6.84,7351,5.82,1,2750,4454171,4454745,576,3222,513.4,557.7,left,4454171,4454745,574,0.208727272727273,1
NS01,2,19,Female,R,33,binary,1,33,4452339,4455089,trial,7390,6.84,7351,5.82,1,2750,4454789,4455063,276,3287,460.1,993.2,,4454789,4455063,274,0.0996363636363636,1
NS01,2,19,Female,R,33,binary,1,33,4452339,4455089,trial,7390,6.84,7351,5.82,1,2750,4455075,4455319,246,3348,496.5,1001,,4455075,4455089,14,0.00509090909090909,1
NS01,2,19,Female,R,33,binary,1,33,4452339,4455089,postResponse,7390,6.84,7351,5.82,1,2750,4455385,4455421,38,3358,830.2,554.1,,4455089,4455089,0,0,0
NS01,2,19,Female,R,34,binary,1,34,4455757,4458140,trial,7490,5.52,5040,5.39,1,2383,4455495,4455913,420,3424,831.3,543.1,,4455757,4455913,156,0.0654637012169534,1
NS01,2,19,Female,R,34,binary,1,34,4455757,4458140,trial,7490,5.52,5040,5.39,1,2383,4455957,4456191,236,3435,472.1,502.7,left,4455957,4456191,234,0.0981955518254301,1
NS01,2,19,Female,R,34,binary,1,34,4455757,4458140,trial,7490,5.52,5040,5.39,1,2383,4456257,4456687,432,3339,1371.6,578.9,right,4456257,4456687,430,0.180444817456987,1
NS01,2,19,Female,R,34,binary,1,34,4455757,4458140,trial,7490,5.52,5040,5.39,1,2383,4456757,4456989,234,3245,473.3,511.3,left,4456757,4456989,232,0.0973562736047,1
NS01,2,19,Female,R,34,binary,1,34,4455757,4458140,trial,7490,5.52,5040,5.39,1,2383,4457007,4457331,326,3199,460.8,448.4,left,4457007,4457331,324,0.135963071758288,1
NS01,2,19,Female,R,34,binary,1,34,4455757,4458140,trial,7490,5.52,5040,5.39,1,2383,4457353,4457529,178,3216,447.2,541.1,left,4457353,4457529,176,0.0738564834242551,1
NS01,2,19,Female,R,34,binary,1,34,4455757,4458140,trial,7490,5.52,5040,5.39,1,2383,4457601,4457819,220,3328,1453.7,593.6,right,4457601,4457819,218,0.0914813260595887,1
NS01,2,19,Female,R,34,binary,1,34,4455757,4458140,trial,7490,5.52,5040,5.39,1,2383,4457839,4458365,528,3323,1362,585,right,4457839,4458140,301,0.126311372219891,1
NS01,2,19,Female,R,34,binary,1,34,4455757,4458140,postResponse,7490,5.52,5040,5.39,1,2383,4458433,4458471,40,3258,778,498.7,,4458140,4458140,0,0,0
NS01,2,19,Female,R,35,binary,1,35,4458807,4461074,trial,8040,6.64,7165,6.09,1,2267,4458547,4458943,398,3369,777.7,502.2,,4458807,4458943,136,0.0599911777679753,1
NS01,2,19,Female,R,35,binary,1,35,4458807,4461074,trial,8040,6.64,7165,6.09,1,2267,4458985,4459125,142,3511,473.1,506.2,left,4458985,4459125,140,0.0617556241729158,1
NS01,2,19,Female,R,35,binary,1,35,4458807,4461074,trial,8040,6.64,7165,6.09,1,2267,4459141,4459375,236,3371,449.6,463.1,left,4459141,4459375,234,0.103220114689016,1
NS01,2,19,Female,R,35,binary,1,35,4458807,4461074,trial,8040,6.64,7165,6.09,1,2267,4459405,4459547,144,3303,494.4,592.3,left,4459405,4459547,142,0.062637847375386,1
NS01,2,19,Female,R,35,binary,1,35,4458807,4461074,trial,8040,6.64,7165,6.09,1,2267,4459615,4460001,388,3383,1428.5,592.8,right,4459615,4460001,386,0.170269078076753,1
NS01,2,19,Female,R,35,binary,1,35,4458807,4461074,trial,8040,6.64,7165,6.09,1,2267,4460019,4460253,236,3403,1482.1,632.8,right,4460019,4460253,234,0.103220114689016,1
NS01,2,19,Female,R,35,binary,1,35,4458807,4461074,trial,8040,6.64,7165,6.09,1,2267,4460277,4460481,206,3318,1590.2,658.6,right,4460277,4460481,204,0.089986766651963,1
NS01,2,19,Female,R,35,binary,1,35,4458807,4461074,trial,8040,6.64,7165,6.09,1,2267,4460565,4460865,302,3105,444.1,470.5,left,4460565,4460865,300,0.132333480370534,1
NS01,2,19,Female,R,35,binary,1,35,4458807,4461074,trial,8040,6.64,7165,6.09,1,2267,4460891,4461249,360,3034,507.5,590.2,left,4460891,4461074,183,0.0807234230260256,1
NS01,2,19,Female,R,36,binary,1,36,4461756,4464240,trial,2605,6.26,8118,6.14,1,2484,4461483,4461983,502,3239,565.5,524.4,left,4461756,4461983,227,0.0913848631239936,1
NS01,2,19,Female,R,36,binary,1,36,4461756,4464240,trial,2605,6.26,8118,6.14,1,2484,4461999,4462139,142,3302,549.5,568.5,left,4461999,4462139,140,0.0563607085346216,1
NS01,2,19,Female,R,36,binary,1,36,4461756,4464240,trial,2605,6.26,8118,6.14,1,2484,4462159,4462333,176,3284,492.1,503.9,left,4462159,4462333,174,0.070048309178744,1
NS01,2,19,Female,R,36,binary,1,36,4461756,4464240,trial,2605,6.26,8118,6.14,1,2484,4462399,4462567,170,3363,1342.8,511.3,right,4462399,4462567,168,0.0676328502415459,1
NS01,2,19,Female,R,36,binary,1,36,4461756,4464240,trial,2605,6.26,8118,6.14,1,2484,4462591,4462833,244,3446,1404.6,434.5,right,4462591,4462833,242,0.0974235104669887,1
NS01,2,19,Female,R,36,binary,1,36,4461756,4464240,trial,2605,6.26,8118,6.14,1,2484,4462853,4463331,480,3514,1509.8,472,right,4462853,4463331,478,0.192431561996779,1
NS01,2,19,Female,R,36,binary,1,36,4461756,4464240,trial,2605,6.26,8118,6.14,1,2484,4463353,4463445,94,3497,1396.7,463.8,right,4463353,4463445,92,0.037037037037037,1
NS01,2,19,Female,R,36,binary,1,36,4461756,4464240,trial,2605,6.26,8118,6.14,1,2484,4463523,4463783,262,3360,484.9,515.2,left,4463523,4463783,260,0.104669887278583,1
NS01,2,19,Female,R,36,binary,1,36,4461756,4464240,trial,2605,6.26,8118,6.14,1,2484,4463807,4464533,728,3195,571.3,592.5,left,4463807,4464240,433,0.174315619967794,1
NS01,2,19,Female,R,37,binary,1,37,4464939,4467090,fixationCross,7300,5.64,1675,5.24,1,2151,4464671,4464853,184,3058,747.5,471.5,,4464939,4464939,0,0,0
NS01,2,19,Female,R,37,binary,1,37,4464939,4467090,trial,7300,5.64,1675,5.24,1,2151,4464879,4465113,236,3166,629.2,458.6,left,4464939,4465113,174,0.0808926080892608,1
NS01,2,19,Female,R,37,binary,1,37,4464939,4467090,trial,7300,5.64,1675,5.24,1,2151,4465141,4465361,222,3219,509.1,545.8,left,4465141,4465361,220,0.102278010227801,1
NS01,2,19,Female,R,37,binary,1,37,4464939,4467090,trial,7300,5.64,1675,5.24,1,2151,4465429,4465787,360,3226,1410.7,533.1,right,4465429,4465787,358,0.166434216643422,1
NS01,2,19,Female,R,37,binary,1,37,4464939,4467090,trial,7300,5.64,1675,5.24,1,2151,4465807,4465865,60,3324,1456.9,587.8,right,4465807,4465865,58,0.0269642026964203,1
NS01,2,19,Female,R,37,binary,1,37,4464939,4467090,trial,7300,5.64,1675,5.24,1,2151,4465939,4467025,1088,3328,496,545.6,left,4465939,4467025,1086,0.504881450488145,1
NS01,2,19,Female,R,37,binary,1,37,4464939,4467090,trial,7300,5.64,1675,5.24,1,2151,4467093,4467293,202,3404,1403.9,572.4,right,4467090,4467090,0,0,0
NS01,2,19,Female,R,38,binary,1,38,4467790,4469590,trial,7472,6.25,7515,6.19,2,1800,4467519,4467939,422,3565,818.4,523.4,,4467790,4467939,149,0.0827777777777778,1
NS01,2,19,Female,R,38,binary,1,38,4467790,4469590,trial,7472,6.25,7515,6.19,2,1800,4467977,4468163,188,3470,567.4,554.5,left,4467977,4468163,186,0.103333333333333,1
NS01,2,19,Female,R,38,binary,1,38,4467790,4469590,trial,7472,6.25,7515,6.19,2,1800,4468185,4468325,142,3397,473.7,560.9,left,4468185,4468325,140,0.0777777777777778,1
NS01,2,19,Female,R,38,binary,1,38,4467790,4469590,trial,7472,6.25,7515,6.19,2,1800,4468397,4468643,248,3400,1445.7,565.6,right,4468397,4468643,246,0.136666666666667,1
NS01,2,19,Female,R,38,binary,1,38,4467790,4469590,trial,7472,6.25,7515,6.19,2,1800,4468663,4468817,156,3418,1375.8,515,right,4468663,4468817,154,0.0855555555555556,1
NS01,2,19,Female,R,38,binary,1,38,4467790,4469590,trial,7472,6.25,7515,6.19,2,1800,4468831,4469079,250,3460,1336.3,513.1,right,4468831,4469079,248,0.137777777777778,1
NS01,2,19,Female,R,38,binary,1,38,4467790,4469590,trial,7472,6.25,7515,6.19,2,1800,4469111,4469445,336,3459,1434.3,697.9,right,4469111,4469445,334,0.185555555555556,1
NS01,2,19,Female,R,38,binary,1,38,4467790,4469590,postResponse,7472,6.25,7515,6.19,2,1800,4469481,4469919,440,3447,1418.6,485.9,right,4469481,4469590,109,0.0605555555555556,1
NS01,2,19,Female,R,39,binary,1,39,4470257,4472790,trial,2217,6.24,7354,5.51,1,2533,4470059,4470433,376,3464,691.4,499,left,4470257,4470433,176,0.0694828266877221,1
NS01,2,19,Female,R,39,binary,1,39,4470257,4472790,trial,2217,6.24,7354,5.51,1,2533,4470461,4470593,134,3455,543.7,594,left,4470461,4470593,132,0.0521121200157916,1
NS01,2,19,Female,R,39,binary,1,39,4470257,4472790,trial,2217,6.24,7354,5.51,1,2533,4470627,4470969,344,3210,357.8,423.8,left,4470627,4470969,342,0.13501776549546,1
NS01,2,19,Female,R,39,binary,1,39,4470257,4472790,trial,2217,6.24,7354,5.51,1,2533,4470995,4471183,190,3174,462.3,548,left,4470995,4471183,188,0.0742202921437031,1
NS01,2,19,Female,R,39,binary,1,39,4470257,4472790,trial,2217,6.24,7354,5.51,1,2533,4471253,4471543,292,3266,1432.7,549.6,right,4471253,4471543,290,0.114488748519542,1
NS01,2,19,Female,R,39,binary,1,39,4470257,4472790,trial,2217,6.24,7354,5.51,1,2533,4471563,4471817,256,3236,1342.1,505.1,right,4471563,4471817,254,0.100276352151599,1
NS01,2,19,Female,R,39,binary,1,39,4470257,4472790,trial,2217,6.24,7354,5.51,1,2533,4471839,4471949,112,3223,1412.1,561.9,right,4471839,4471949,110,0.0434267666798263,1
NS01,2,19,Female,R,39,binary,1,39,4470257,4472790,trial,2217,6.24,7354,5.51,1,2533,4472021,4472321,302,3203,495.8,614.6,left,4472021,4472321,300,0.118436636399526,1
NS01,2,19,Female,R,39,binary,1,39,4470257,4472790,trial,2217,6.24,7354,5.51,1,2533,4472343,4472505,164,3320,595.9,604.9,left,4472343,4472505,162,0.0639557836557442,1
NS01,2,19,Female,R,39,binary,1,39,4470257,4472790,trial,2217,6.24,7354,5.51,1,2533,4472547,4472855,310,3372,400.7,407.1,left,4472547,4472790,243,0.0959336754836163,1
NS01,2,19,Female,R,39,binary,1,39,4470257,4472790,postResponse,2217,6.24,7354,5.51,1,2533,4473001,4473123,124,3433,573.4,500,left,4472790,4472790,0,0,0
NS01,2,19,Female,R,40,binary,1,40,4473457,4475156,trial,8280,6.38,2056,6.34,1,1699,4473197,4473869,674,3495,572.4,503.6,left,4473457,4473869,412,0.242495585638611,1
NS01,2,19,Female,R,40,binary,1,40,4473457,4475156,trial,8280,6.38,2056,6.34,1,1699,4473887,4474073,188,3254,642.6,488.2,left,4473887,4474073,186,0.109476162448499,1
NS01,2,19,Female,R,40,binary,1,40,4473457,4475156,trial,8280,6.38,2056,6.34,1,1699,4474137,4474487,352,3273,1418.6,620.3,right,4474137,4474487,350,0.206003531489111,1
NS01,2,19,Female,R,40,binary,1,40,4473457,4475156,trial,8280,6.38,2056,6.34,1,1699,4474503,4474619,118,3183,1426.5,673.3,right,4474503,4474619,116,0.0682754561506769,1
NS01,2,19,Female,R,40,binary,1,40,4473457,4475156,trial,8280,6.38,2056,6.34,1,1699,4474687,4474953,268,3092,619.9,511.5,left,4474687,4474953,266,0.156562683931725,1
NS01,2,19,Female,R,40,binary,1,40,4473457,4475156,trial,8280,6.38,2056,6.34,1,1699,4474973,4475459,488,3095,549.9,505.5,left,4474973,4475156,183,0.107710417892878,1
NS01,2,19,Female,R,41,binary,1,41,4475806,4479040,trial,7286,6.36,7340,6.68,2,3234,4475563,4475963,402,3283,772.2,525.6,,4475806,4475963,157,0.0485466914038343,1
NS01,2,19,Female,R,41,binary,1,41,4475806,4479040,trial,7286,6.36,7340,6.68,2,3234,4475991,4476189,200,3451,574,574.5,left,4475991,4476189,198,0.0612244897959184,1
NS01,2,19,Female,R,41,binary,1,41,4475806,4479040,trial,7286,6.36,7340,6.68,2,3234,4476251,4476519,270,3503,1415.2,562.7,right,4476251,4476519,268,0.08286951144094,1
NS01,2,19,Female,R,41,binary,1,41,4475806,4479040,trial,7286,6.36,7340,6.68,2,3234,4476539,4476789,252,3439,1339.4,550.2,right,4476539,4476789,250,0.0773036487322202,1
NS01,2,19,Female,R,41,binary,1,41,4475806,4479040,trial,7286,6.36,7340,6.68,2,3234,4476809,4476949,142,3423,1267.6,577.5,right,4476809,4476949,140,0.0432900432900433,1
NS01,2,19,Female,R,41,binary,1,41,4475806,4479040,trial,7286,6.36,7340,6.68,2,3234,4476973,4477089,118,3442,1404,493.2,right,4476973,4477089,116,0.0358688930117502,1
NS01,2,19,Female,R,41,binary,1,41,4475806,4479040,trial,7286,6.36,7340,6.68,2,3234,4477207,4477575,370,3427,505.4,544.4,left,4477207,4477575,368,0.113790970933828,1
NS01,2,19,Female,R,41,binary,1,41,4475806,4479040,trial,7286,6.36,7340,6.68,2,3234,4477599,4477775,178,3442,439.3,651.8,left,4477599,4477775,176,0.054421768707483,1
NS01,2,19,Female,R,41,binary,1,41,4475806,4479040,trial,7286,6.36,7340,6.68,2,3234,4477801,4478169,370,3355,605.6,660.1,left,4477801,4478169,368,0.113790970933828,1
NS01,2,19,Female,R,41,binary,1,41,4475806,4479040,trial,7286,6.36,7340,6.68,2,3234,4478191,4478403,214,3316,571.9,568.5,left,4478191,4478403,212,0.0655534941249227,1
NS01,2,19,Female,R,41,binary,1,41,4475806,4479040,trial,7286,6.36,7340,6.68,2,3234,4478429,4478781,354,3323,404.4,642.4,left,4478429,4478781,352,0.108843537414966,1
NS01,2,19,Female,R,41,binary,1,41,4475806,4479040,trial,7286,6.36,7340,6.68,2,3234,4478853,4479269,418,3411,1387.4,574.1,right,4478853,4479040,187,0.0578231292517007,1
NS01,2,19,Female,R,41,binary,1,41,4475806,4479040,postResponse,7286,6.36,7340,6.68,2,3234,4479331,4479371,42,3367,902.4,486.4,,4479040,4479040,0,0,0
NS01,2,19,Female,R,42,binary,1,42,4479706,4481757,trial,5635,6.25,1419,6.54,1,2051,4479481,4479921,442,3372,669.2,483.2,left,4479706,4479921,215,0.104826913700634,1
NS01,2,19,Female,R,42,binary,1,42,4479706,4481757,trial,5635,6.25,1419,6.54,1,2051,4479947,4480105,160,3356,576,580.7,left,4479947,4480105,158,0.0770355923939542,1
NS01,2,19,Female,R,42,binary,1,42,4479706,4481757,trial,5635,6.25,1419,6.54,1,2051,4480131,4480413,284,3193,374.1,591,left,4480131,4480413,282,0.137493905411994,1
NS01,2,19,Female,R,42,binary,1,42,4479706,4481757,trial,5635,6.25,1419,6.54,1,2051,4480485,4480783,300,3107,1423.2,567.5,right,4480485,4480783,298,0.145294978059483,1
NS01,2,19,Female,R,42,binary,1,42,4479706,4481757,trial,5635,6.25,1419,6.54,1,2051,4480803,4481151,350,3305,1424.3,635.9,right,4480803,4481151,348,0.169673330082886,1
NS01,2,19,Female,R,42,binary,1,42,4479706,4481757,trial,5635,6.25,1419,6.54,1,2051,4481223,4481443,222,3268,474.8,607.6,left,4481223,4481443,220,0.107264748902974,1
NS01,2,19,Female,R,42,binary,1,42,4479706,4481757,postResponse,5635,6.25,1419,6.54,1,2051,4481465,4482087,624,3109,528.7,547.8,left,4481465,4481757,292,0.142369575816675,1
NS01,2,19,Female,R,43,binary,1,43,4482423,4484306,trial,7489,6.54,7820,5.39,1,1883,4482163,4482659,498,3370,540.5,549.1,left,4482423,4482659,236,0.125331917153479,1
NS01,2,19,Female,R,43,binary,1,43,4482423,4484306,trial,7489,6.54,7820,5.39,1,1883,4482737,4482969,234,3471,1489.6,584.8,right,4482737,4482969,232,0.123207647371216,1
NS01,2,19,Female,R,43,binary,1,43,4482423,4484306,trial,7489,6.54,7820,5.39,1,1883,4482989,4483151,164,3389,1446.8,531.4,right,4482989,4483151,162,0.0860329261816251,1
NS01,2,19,Female,R,43,binary,1,43,4482423,4484306,trial,7489,6.54,7820,5.39,1,1883,4483175,4483467,294,3249,1217.7,518.5,right,4483175,4483467,292,0.155071694105151,1
NS01,2,19,Female,R,43,binary,1,43,4482423,4484306,trial,7489,6.54,7820,5.39,1,1883,4483495,4483615,122,3237,1440.4,552.2,right,4483495,4483615,120,0.0637280934678704,1
NS01,2,19,Female,R,43,binary,1,43,4482423,4484306,trial,7489,6.54,7820,5.39,1,1883,4483687,4483899,214,3112,552.6,605.8,left,4483687,4483899,212,0.112586298459904,1
NS01,2,19,Female,R,43,binary,1,43,4482423,4484306,trial,7489,6.54,7820,5.39,1,1883,4483921,4484125,206,3026,430,595.5,left,4483921,4484125,204,0.10833775889538,1
NS01,2,19,Female,R,43,binary,1,43,4482423,4484306,trial,7489,6.54,7820,5.39,1,1883,4484151,4484605,456,2966,368.5,448.9,left,4484151,4484306,155,0.082315454062666,1
NS01,2,19,Female,R,44,binary,1,44,4484973,4486873,trial,7900,6.5,7477,6.12,2,1900,4484711,4485167,458,3157,638.9,527.3,left,4484973,4485167,194,0.102105263157895,1
NS01,2,19,Female,R,44,binary,1,44,4484973,4486873,trial,7900,6.5,7477,6.12,2,1900,4485199,4485541,344,3261,448.4,558.1,left,4485199,4485541,342,0.18,1
NS01,2,19,Female,R,44,binary,1,44,4484973,4486873,trial,7900,6.5,7477,6.12,2,1900,4485555,4485641,88,3208,416.4,553,left,4485555,4485641,86,0.0452631578947369,1
NS01,2,19,Female,R,44,binary,1,44,4484973,4486873,trial,7900,6.5,7477,6.12,2,1900,4485709,4486039,332,3343,1390.7,524.7,right,4485709,4486039,330,0.173684210526316,1
NS01,2,19,Female,R,44,binary,1,44,4484973,4486873,trial,7900,6.5,7477,6.12,2,1900,4486059,4486201,144,3368,1463.8,516.6,right,4486059,4486201,142,0.0747368421052632,1
NS01,2,19,Female,R,44,binary,1,44,4484973,4486873,trial,7900,6.5,7477,6.12,2,1900,4486221,4486613,394,3296,1359.6,517.3,right,4486221,4486613,392,0.206315789473684,1
NS01,2,19,Female,R,44,binary,1,44,4484973,4486873,trial,7900,6.5,7477,6.12,2,1900,4486629,4487117,490,3363,1417.6,498.3,right,4486629,4486873,244,0.128421052631579,1
NS01,2,19,Female,R,45,binary,1,45,4487573,4489257,fixationCross,7242,5.28,2384,5.92,1,1684,4487305,4487389,86,3439,758.5,485.8,,4487573,4487573,0,0,0
NS01,2,19,Female,R,45,binary,1,45,4487573,4489257,trial,7242,5.28,2384,5.92,1,1684,4487527,4487777,252,3491,701.3,482.6,left,4487573,4487777,204,0.121140142517815,1
NS01,2,19,Female,R,45,binary,1,45,4487573,4489257,trial,7242,5.28,2384,5.92,1,1684,4487805,4487969,166,3530,556.3,552.7,left,4487805,4487969,164,0.0973871733966746,1
NS01,2,19,Female,R,45,binary,1,45,4487573,4489257,trial,7242,5.28,2384,5.92,1,1684,4487987,4488255,270,3373,488.3,564,left,4487987,4488255,268,0.159144893111639,1
NS01,2,19,Female,R,45,binary,1,45,4487573,4489257,trial,7242,5.28,2384,5.92,1,1684,4488319,4488513,196,3312,1356.6,599,right,4488319,4488513,194,0.11520190023753,1
NS01,2,19,Female,R,45,binary,1,45,4487573,4489257,trial,7242,5.28,2384,5.92,1,1684,4488531,4488727,198,3314,1420.5,583.2,right,4488531,4488727,196,0.116389548693587,1
NS01,2,19,Female,R,45,binary,1,45,4487573,4489257,trial,7242,5.28,2384,5.92,1,1684,4488803,4489145,344,3211,462.9,569.8,left,4488803,4489145,342,0.203087885985748,1
NS01,2,19,Female,R,45,binary,1,45,4487573,4489257,postResponse,7242,5.28,2384,5.92,1,1684,4489163,4489587,426,3149,498.5,530.5,left,4489163,4489257,94,0.0558194774346793,1
NS01,2,19,Female,R,46,binary,1,46,4489940,4492891,trial,5300,6.91,4617,6.6,2,2951,4489687,4490405,720,3305,505.6,535.9,left,4489940,4490405,465,0.15757370382921,1
NS01,2,19,Female,R,46,binary,1,46,4489940,4492891,trial,5300,6.91,4617,6.6,2,2951,4490477,4490703,228,3399,1487.2,568.7,right,4490477,4490703,226,0.0765842087427991,1
NS01,2,19,Female,R,46,binary,1,46,4489940,4492891,trial,5300,6.91,4617,6.6,2,2951,4490727,4490915,190,3394,1419.1,493.3,right,4490727,4490915,188,0.0637072178922399,1
NS01,2,19,Female,R,46,binary,1,46,4489940,4492891,trial,5300,6.91,4617,6.6,2,2951,4490941,4491105,166,3367,1269.9,402.5,right,4490941,4491105,164,0.055574381565571,1
NS01,2,19,Female,R,46,binary,1,46,4489940,4492891,trial,5300,6.91,4617,6.6,2,2951,4491137,4491431,296,3393,1511.9,430.8,right,4491137,4491431,294,0.0996272450016943,1
NS01,2,19,Female,R,46,binary,1,46,4489940,4492891,trial,5300,6.91,4617,6.6,2,2951,4491461,4491705,246,3423,1506.3,551.5,right,4491461,4491705,244,0.0826838359878007,1
NS01,2,19,Female,R,46,binary,1,46,4489940,4492891,trial,5300,6.91,4617,6.6,2,2951,4491719,4492125,408,3452,1502.2,526.9,right,4491719,4492125,406,0.137580481192816,1
NS01,2,19,Female,R,46,binary,1,46,4489940,4492891,trial,5300,6.91,4617,6.6,2,2951,4492149,4492511,364,3518,1541.2,614.7,right,4492149,4492511,362,0.12267028126059,1
NS01,2,19,Female,R,46,binary,1,46,4489940,4492891,trial,5300,6.91,4617,6.6,2,2951,4492533,4492643,112,3543,1409.7,594.1,right,4492533,4492643,110,0.0372754998305659,1
NS01,2,19,Female,R,46,binary,1,46,4489940,4492891,trial,5300,6.91,4617,6.6,2,2951,4492717,4493071,356,3396,502.9,571.9,left,4492717,4492891,174,0.0589630633683497,1
NS01,2,19,Female,R,47,binary,1,47,4493557,4496057,trial,7033,5.4,7233,5.09,2,2500,4493297,4493735,440,3425,757.9,526.7,,4493557,4493735,178,0.0712,1
NS01,2,19,Female,R,47,binary,1,47,4493557,4496057,trial,7033,5.4,7233,5.09,2,2500,4493775,4493991,218,3388,510.6,568.7,left,4493775,4493991,216,0.0864,1
NS01,2,19,Female,R,47,binary,1,47,4493557,4496057,trial,7033,5.4,7233,5.09,2,2500,4494009,4494215,208,3206,452.2,586.6,left,4494009,4494215,206,0.0824,1
NS01,2,19,Female,R,47,binary,1,47,4493557,4496057,trial,7033,5.4,7233,5.09,2,2500,4494285,4494815,532,3275,1432.6,581.2,right,4494285,4494815,530,0.212,1
NS01,2,19,Female,R,47,binary,1,47,4493557,4496057,trial,7033,5.4,7233,5.09,2,2500,4494893,4495225,334,3129,457.3,599.3,left,4494893,4495225,332,0.1328,1
NS01,2,19,Female,R,47,binary,1,47,4493557,4496057,trial,7033,5.4,7233,5.09,2,2500,4495247,4495483,238,3052,536.5,572,left,4495247,4495483,236,0.0944,1
NS01,2,19,Female,R,47,binary,1,47,4493557,4496057,trial,7033,5.4,7233,5.09,2,2500,4495547,4495881,336,3165,1400.4,586.6,right,4495547,4495881,334,0.1336,1
NS01,2,19,Female,R,47,binary,1,47,4493557,4496057,postResponse,7033,5.4,7233,5.09,2,2500,4495897,4496389,494,3247,1446.8,604.2,right,4495897,4496057,160,0.064,1
NS01,2,19,Female,R,48,binary,1,48,4496757,4499457,trial,7530,6.71,5890,6.67,2,2700,4496537,4496911,376,3321,716.4,535.2,left,4496757,4496911,154,0.057037037037037,1
NS01,2,19,Female,R,48,binary,1,48,4496757,4499457,trial,7530,6.71,5890,6.67,2,2700,4496941,4497117,178,3396,531.2,563.9,left,4496941,4497117,176,0.0651851851851852,1
NS01,2,19,Female,R,48,binary,1,48,4496757,4499457,trial,7530,6.71,5890,6.67,2,2700,4497137,4497617,482,3190,449.9,590,left,4497137,4497617,480,0.177777777777778,1
NS01,2,19,Female,R,48,binary,1,48,4496757,4499457,trial,7530,6.71,5890,6.67,2,2700,4497689,4498345,658,3261,1437.4,555.8,right,4497689,4498345,656,0.242962962962963,1
NS01,2,19,Female,R,48,binary,1,48,4496757,4499457,trial,7530,6.71,5890,6.67,2,2700,4498359,4499063,706,3397,1402.7,584.6,right,4498359,4499063,704,0.260740740740741,1
NS01,2,19,Female,R,48,binary,1,48,4496757,4499457,trial,7530,6.71,5890,6.67,2,2700,4499077,4499231,156,3456,1460,575.6,right,4499077,4499231,154,0.057037037037037,1
NS01,2,19,Female,R,48,binary,1,48,4496757,4499457,trial,7530,6.71,5890,6.67,2,2700,4499305,4499739,436,3320,476.2,608.1,left,4499305,4499457,152,0.0562962962962963,1
NS01,2,19,Female,R,49,binary,1,49,4500157,4503907,trial,7488,6.19,1900,6.65,1,3750,4499889,4500313,426,3262,729.1,492.4,left,4500157,4500313,156,0.0416,1
NS01,2,19,Female,R,49,binary,1,49,4500157,4503907,trial,7488,6.19,1900,6.65,1,3750,4500349,4500533,186,3363,512.1,553.2,left,4500349,4500533,184,0.0490666666666667,1
NS01,2,19,Female,R,49,binary,1,49,4500157,4503907,trial,7488,6.19,1900,6.65,1,3750,4500551,4500817,268,3230,454.6,524.7,left,4500551,4500817,266,0.0709333333333333,1
NS01,2,19,Female,R,49,binary,1,49,4500157,4503907,trial,7488,6.19,1900,6.65,1,3750,4500833,4501103,272,3139,454.6,475.3,left,4500833,4501103,270,0.072,1
NS01,2,19,Female,R,49,binary,1,49,4500157,4503907,trial,7488,6.19,1900,6.65,1,3750,4501123,4501263,142,3153,477,531.6,left,4501123,4501263,140,0.0373333333333333,1
NS01,2,19,Female,R,49,binary,1,49,4500157,4503907,trial,7488,6.19,1900,6.65,1,3750,4501331,4501623,294,3266,1382.6,550,right,4501331,4501623,292,0.0778666666666667,1
NS01,2,19,Female,R,49,binary,1,49,4500157,4503907,trial,7488,6.19,1900,6.65,1,3750,4501647,4501955,310,3315,1478.3,505.4,right,4501647,4501955,308,0.0821333333333333,1
NS01,2,19,Female,R,49,binary,1,49,4500157,4503907,trial,7488,6.19,1900,6.65,1,3750,4501977,4502407,432,3306,1434.2,611.1,right,4501977,4502407,430,0.114666666666667,1
NS01,2,19,Female,R,49,binary,1,49,4500157,4503907,trial,7488,6.19,1900,6.65,1,3750,4502479,4502739,262,3258,511.5,547.9,left,4502479,4502739,260,0.0693333333333333,1
NS01,2,19,Female,R,49,binary,1,49,4500157,4503907,trial,7488,6.19,1900,6.65,1,3750,4502761,4503065,306,3229,461.8,489.9,left,4502761,4503065,304,0.0810666666666667,1
NS01,2,19,Female,R,49,binary,1,49,4500157,4503907,trial,7488,6.19,1900,6.65,1,3750,4503093,4503921,830,3276,477.3,679.5,left,4503093,4503907,814,0.217066666666667,1
NS01,2,19,Female,R,49,binary,1,49,4500157,4503907,trial,7488,6.19,1900,6.65,1,3750,4503941,4504215,276,3297,566.4,641.7,left,4503907,4503907,0,0,0
NS01,2,19,Female,R,50,binary,1,50,4504590,4506924,trial,1560,5.97,7546,5.4,1,2334,4504337,4504759,424,3347,640.3,504.2,left,4504590,4504759,169,0.072407883461868,1
NS01,2,19,Female,R,50,binary,1,50,4504590,4506924,trial,1560,5.97,7546,5.4,1,2334,4504793,4504971,180,3369,517.8,565.8,left,4504793,4504971,178,0.0762639245929734,1
NS01,2,19,Female,R,50,binary,1,50,4504590,4506924,trial,1560,5.97,7546,5.4,1,2334,4504991,4505115,126,3224,503.8,495.8,left,4504991,4505115,124,0.0531276778063411,1
NS01,2,19,Female,R,50,binary,1,50,4504590,4506924,trial,1560,5.97,7546,5.4,1,2334,4505181,4505375,196,3257,1371,543.4,right,4505181,4505375,194,0.0831191088260497,1
NS01,2,19,Female,R,50,binary,1,50,4504590,4506924,trial,1560,5.97,7546,5.4,1,2334,4505391,4505665,276,3281,1421.2,570.9,right,4505391,4505665,274,0.117395029991431,1
NS01,2,19,Female,R,50,binary,1,50,4504590,4506924,trial,1560,5.97,7546,5.4,1,2334,4505859,4506085,228,3271,507.7,548,left,4505859,4506085,226,0.0968294772922022,1
NS01,2,19,Female,R,50,binary,1,50,4504590,4506924,postResponse,1560,5.97,7546,5.4,1,2334,4506101,4507255,1156,3241,491,505.5,left,4506101,4506924,823,0.35261353898886,1
NS01,2,19,Female,R,51,continuous,2,1,4566541,4573575,trial,2579,5.53,2390,5.4,19,7034,4566270,4566680,412,3986,914.4,388.6,,4566541,4566680,139,0.0197611600796133,1
NS01,2,19,Female,R,51,continuous,2,1,4566541,4573575,trial,2579,5.53,2390,5.4,19,7034,4566730,4566860,132,4025,1360,523.3,right,4566730,4566860,130,0.0184816605061132,1
NS01,2,19,Female,R,51,continuous,2,1,4566541,4573575,trial,2579,5.53,2390,5.4,19,7034,4566880,4567020,142,3994,1309,520.8,right,4566880,4567020,140,0.0199033266988911,1
NS01,2,19,Female,R,51,continuous,2,1,4566541,4573575,trial,2579,5.53,2390,5.4,19,7034,4567068,4567224,158,3977,950.7,959.7,likertHorizontal,4567068,4567224,156,0.0221779926073358,1
NS01,2,19,Female,R,51,continuous,2,1,4566541,4573575,trial,2579,5.53,2390,5.4,19,7034,4567274,4567474,202,3944,1423.9,992.3,,4567274,4567474,200,0.0284333238555587,1
NS01,2,19,Female,R,51,continuous,2,1,4566541,4573575,trial,2579,5.53,2390,5.4,19,7034,4567536,4567816,282,3894,523.7,945,,4567536,4567816,280,0.0398066533977822,1
NS01,2,19,Female,R,51,continuous,2,1,4566541,4573575,trial,2579,5.53,2390,5.4,19,7034,4567870,4568056,188,3750,523.8,503.4,left,4567870,4568056,186,0.0264429911856696,1
NS01,2,19,Female,R,51,continuous,2,1,4566541,4573575,trial,2579,5.53,2390,5.4,19,7034,4568078,4568366,290,3650,564.4,430.6,left,4568078,4568366,288,0.0409439863520046,1
NS01,2,19,Female,R,51,continuous,2,1,4566541,4573575,trial,2579,5.53,2390,5.4,19,7034,4568396,4568552,158,3610,513,600.1,left,4568396,4568552,156,0.0221779926073358,1
NS01,2,19,Female,R,51,continuous,2,1,4566541,4573575,trial,2579,5.53,2390,5.4,19,7034,4568612,4568744,134,3726,1326.7,537.5,right,4568612,4568744,132,0.0187659937446688,1
NS01,2,19,Female,R,51,continuous,2,1,4566541,4573575,trial,2579,5.53,2390,5.4,19,7034,4568764,4568892,130,3700,1289.5,526.1,right,4568764,4568892,128,0.0181973272675576,1
NS01,2,19,Female,R,51,continuous,2,1,4566541,4573575,trial,2579,5.53,2390,5.4,19,7034,4568934,4569130,198,3718,1597.5,462.8,right,4568934,4569130,196,0.0278646573784475,1
NS01,2,19,Female,R,51,continuous,2,1,4566541,4573575,trial,2579,5.53,2390,5.4,19,7034,4569146,4569246,102,3738,1566.3,500.2,right,4569146,4569246,100,0.0142166619277794,1
NS01,2,19,Female,R,51,continuous,2,1,4566541,4573575,trial,2579,5.53,2390,5.4,19,7034,4569280,4569452,174,3748,1380.5,696.2,right,4569280,4569452,172,0.0244526585157805,1
NS01,2,19,Female,R,51,continuous,2,1,4566541,4573575,trial,2579,5.53,2390,5.4,19,7034,4569476,4569766,292,3706,1293,659,right,4569476,4569766,290,0.0412283195905601,1
NS01,2,19,Female,R,51,continuous,2,1,4566541,4573575,trial,2579,5.53,2390,5.4,19,7034,4569786,4570052,268,3612,1299.9,618,right,4569786,4570052,266,0.0378163207278931,1
NS01,2,19,Female,R,51,continuous,2,1,4566541,4573575,trial,2579,5.53,2390,5.4,19,7034,4570064,4570184,122,3576,1276.2,612.5,right,4570064,4570184,120,0.0170599943133352,1
NS01,2,19,Female,R,51,continuous,2,1,4566541,4573575,trial,2579,5.53,2390,5.4,19,7034,4570224,4570594,372,3526,1582,500.2,right,4570224,4570594,370,0.0526016491327836,1
NS01,2,19,Female,R,51,continuous,2,1,4566541,4573575,trial,2579,5.53,2390,5.4,19,7034,4570624,4570896,274,3517,1391,707.1,right,4570624,4570896,272,0.0386693204435599,1
NS01,2,19,Female,R,51,continuous,2,1,4566541,4573575,trial,2579,5.53,2390,5.4,19,7034,4570952,4571104,154,3462,793.8,947.9,likertHorizontal,4570952,4571104,152,0.0216093261302246,1
NS01,2,19,Female,R,51,continuous,2,1,4566541,4573575,trial,2579,5.53,2390,5.4,19,7034,4571142,4571256,116,3412,511.6,992.2,,4571142,4571256,114,0.0162069945976685,1
NS01,2,19,Female,R,51,continuous,2,1,4566541,4573575,trial,2579,5.53,2390,5.4,19,7034,4571298,4571540,244,3359,532.2,555.5,left,4571298,4571540,242,0.034404321865226,1
NS01,2,19,Female,R,51,continuous,2,1,4566541,4573575,trial,2579,5.53,2390,5.4,19,7034,4571564,4571932,370,3374,550.2,448.6,left,4571564,4571932,368,0.052317315894228,1
NS01,2,19,Female,R,51,continuous,2,1,4566541,4573575,trial,2579,5.53,2390,5.4,19,7034,4571984,4572166,184,3478,546.2,1008.7,,4571984,4572166,182,0.0258743247085584,1
NS01,2,19,Female,R,51,continuous,2,1,4566541,4573575,trial,2579,5.53,2390,5.4,19,7034,4572188,4572562,376,3583,635.2,954.9,,4572188,4572562,374,0.0531703156098948,1
NS01,2,19,Female,R,51,continuous,2,1,4566541,4573575,trial,2579,5.53,2390,5.4,19,7034,4572622,4572752,132,3677,1382,991.1,,4572622,4572752,130,0.0184816605061132,1
NS01,2,19,Female,R,51,continuous,2,1,4566541,4573575,trial,2579,5.53,2390,5.4,19,7034,4572880,4573270,392,3660,648.6,863.5,,4572880,4573270,390,0.0554449815183395,1
NS01,2,19,Female,R,51,continuous,2,1,4566541,4573575,trial,2579,5.53,2390,5.4,19,7034,4573298,4573498,202,3664,569.8,986.1,,4573298,4573498,200,0.0284333238555587,1
NS01,2,19,Female,R,51,continuous,2,1,4566541,4573575,trial,2579,5.53,2390,5.4,19,7034,4573554,4573846,294,3641,705.8,646.4,left,4573554,4573575,21,0.00298549900483367,1
NS01,2,19,Female,R,52,continuous,2,2,4574258,4580325,fixationCross,7039,5.93,8620,6.04,11,6067,4574006,4574114,110,3734,958.5,498.6,,4574258,4574258,0,0,0
NS01,2,19,Female,R,52,continuous,2,2,4574258,4580325,trial,7039,5.93,8620,6.04,11,6067,4574176,4574470,296,3775,632.6,436.7,left,4574258,4574470,212,0.0349431349925828,1
NS01,2,19,Female,R,52,continuous,2,2,4574258,4580325,trial,7039,5.93,8620,6.04,11,6067,4574504,4574684,182,3739,498.8,611.9,left,4574504,4574684,180,0.0296686995220043,1
NS01,2,19,Female,R,52,continuous,2,2,4574258,4580325,trial,7039,5.93,8620,6.04,11,6067,4574752,4574908,158,3727,1471,558.9,right,4574752,4574908,156,0.0257128729190704,1
NS01,2,19,Female,R,52,continuous,2,2,4574258,4580325,trial,7039,5.93,8620,6.04,11,6067,4574930,4575050,122,3682,1552.2,543.7,right,4574930,4575050,120,0.0197791330146695,1
NS01,2,19,Female,R,52,continuous,2,2,4574258,4580325,trial,7039,5.93,8620,6.04,11,6067,4575074,4575208,136,3643,1446.5,453.7,right,4575074,4575208,134,0.0220866985330476,1
NS01,2,19,Female,R,52,continuous,2,2,4574258,4580325,trial,7039,5.93,8620,6.04,11,6067,4575280,4575492,214,3462,475.5,572,left,4575280,4575492,212,0.0349431349925828,1
NS01,2,19,Female,R,52,continuous,2,2,4574258,4580325,trial,7039,5.93,8620,6.04,11,6067,4575506,4575684,180,3456,466.6,603.8,left,4575506,4575684,178,0.0293390473050931,1
NS01,2,19,Female,R,52,continuous,2,2,4574258,4580325,trial,7039,5.93,8620,6.04,11,6067,4575730,4575916,188,3509,492,1011.8,,4575730,4575916,186,0.0306576561727378,1
NS01,2,19,Female,R,52,continuous,2,2,4574258,4580325,trial,7039,5.93,8620,6.04,11,6067,4575988,4576138,152,3592,1417.6,536.5,right,4575988,4576138,150,0.0247239162683369,1
NS01,2,19,Female,R,52,continuous,2,2,4574258,4580325,trial,7039,5.93,8620,6.04,11,6067,4576170,4576394,226,3596,1440.8,439,right,4576170,4576394,224,0.0369210482940498,1
NS01,2,19,Female,R,52,continuous,2,2,4574258,4580325,trial,7039,5.93,8620,6.04,11,6067,4576420,4576624,206,3622,1454.8,531.1,right,4576420,4576624,204,0.0336245261249382,1
NS01,2,19,Female,R,52,continuous,2,2,4574258,4580325,trial,7039,5.93,8620,6.04,11,6067,4576702,4577004,304,3441,514.2,608.8,left,4576702,4577004,302,0.049777484753585,1
NS01,2,19,Female,R,52,continuous,2,2,4574258,4580325,trial,7039,5.93,8620,6.04,11,6067,4577030,4577286,258,3414,404.5,529.1,left,4577030,4577286,256,0.0421954837646283,1
NS01,2,19,Female,R,52,continuous,2,2,4574258,4580325,trial,7039,5.93,8620,6.04,11,6067,4577298,4577466,170,3431,376.7,518.4,left,4577298,4577466,168,0.0276907862205373,1
NS01,2,19,Female,R,52,continuous,2,2,4574258,4580325,trial,7039,5.93,8620,6.04,11,6067,4577512,4577880,370,3511,500.4,973.2,,4577512,4577880,368,0.0606560079116532,1
NS01,2,19,Female,R,52,continuous,2,2,4574258,4580325,trial,7039,5.93,8620,6.04,11,6067,4577916,4578124,210,3567,708.2,957.2,,4577916,4578124,208,0.0342838305587605,1
NS01,2,19,Female,R,52,continuous,2,2,4574258,4580325,trial,7039,5.93,8620,6.04,11,6067,4578142,4578348,208,3591,599.1,955.2,,4578142,4578348,206,0.0339541783418494,1
NS01,2,19,Female,R,52,continuous,2,2,4574258,4580325,trial,7039,5.93,8620,6.04,11,6067,4578392,4578558,168,3621,614.4,609,left,4578392,4578558,166,0.0273611340036262,1
NS01,2,19,Female,R,52,continuous,2,2,4574258,4580325,trial,7039,5.93,8620,6.04,11,6067,4578578,4578802,226,3653,588.1,659.1,left,4578578,4578802,224,0.0369210482940498,1
NS01,2,19,Female,R,52,continuous,2,2,4574258,4580325,trial,7039,5.93,8620,6.04,11,6067,4578844,4579014,172,3600,420,442.5,left,4578844,4579014,170,0.0280204384374485,1
NS01,2,19,Female,R,52,continuous,2,2,4574258,4580325,trial,7039,5.93,8620,6.04,11,6067,4579064,4579472,410,3663,506.9,979.8,,4579064,4579472,408,0.0672490522498764,1
NS01,2,19,Female,R,52,continuous,2,2,4574258,4580325,trial,7039,5.93,8620,6.04,11,6067,4579512,4579718,208,3655,494.9,562.8,left,4579512,4579718,206,0.0339541783418494,1
NS01,2,19,Female,R,52,continuous,2,2,4574258,4580325,trial,7039,5.93,8620,6.04,11,6067,4579788,4579934,148,3757,1468.2,542.5,right,4579788,4579934,146,0.0240646118345146,1
NS01,2,19,Female,R,52,continuous,2,2,4574258,4580325,trial,7039,5.93,8620,6.04,11,6067,4580002,4580520,520,3700,599.6,948.8,,4580002,4580325,323,0.0532388330311521,1
NS01,2,19,Female,R,52,continuous,2,2,4574258,4580325,postResponse,7039,5.93,8620,6.04,11,6067,4580582,4580658,78,3586,714.9,558.4,left,4580325,4580325,0,0,0
NS01,2,19,Female,R,53,continuous,2,3,4581008,4585241,trial,2036,5.8,5726,6.23,73,4233,4580758,4581200,444,3662,620.2,488.3,left,4581008,4581200,192,0.0453579021970234,1
NS01,2,19,Female,R,53,continuous,2,3,4581008,4585241,trial,2036,5.8,5726,6.23,73,4233,4581224,4581414,192,3647,518.3,546.1,left,4581224,4581414,190,0.0448854240491377,1
NS01,2,19,Female,R,53,continuous,2,3,4581008,4585241,trial,2036,5.8,5726,6.23,73,4233,4581482,4581862,382,3451,1423.8,573.3,right,4581482,4581862,380,0.0897708480982755,1
NS01,2,19,Female,R,53,continuous,2,3,4581008,4585241,trial,2036,5.8,5726,6.23,73,4233,4581914,4582122,210,3406,914.4,973.2,likertHorizontal,4581914,4582122,208,0.0491377273801087,1
NS01,2,19,Female,R,53,continuous,2,3,4581008,4585241,trial,2036,5.8,5726,6.23,73,4233,4582184,4582340,158,3410,447.3,621.9,left,4582184,4582340,156,0.0368532955350815,1
NS01,2,19,Female,R,53,continuous,2,3,4581008,4585241,trial,2036,5.8,5726,6.23,73,4233,4582364,4582462,100,3475,510.2,551.9,left,4582364,4582462,98,0.0231514292463974,1
NS01,2,19,Female,R,53,continuous,2,3,4581008,4585241,trial,2036,5.8,5726,6.23,73,4233,4582588,4582746,160,3465,533.3,550.7,left,4582588,4582746,158,0.0373257736829672,1
NS01,2,19,Female,R,53,continuous,2,3,4581008,4585241,trial,2036,5.8,5726,6.23,73,4233,4582810,4583154,346,3570,1410.3,590.7,right,4582810,4583154,344,0.0812662414363336,1
NS01,2,19,Female,R,53,continuous,2,3,4581008,4585241,trial,2036,5.8,5726,6.23,73,4233,4583222,4583416,196,3432,563.9,578.4,left,4583222,4583416,194,0.0458303803449091,1
NS01,2,19,Female,R,53,continuous,2,3,4581008,4585241,trial,2036,5.8,5726,6.23,73,4233,4583434,4583596,164,3389,535.4,553.9,left,4583434,4583596,162,0.0382707299787385,1
NS01,2,19,Female,R,53,continuous,2,3,4581008,4585241,trial,2036,5.8,5726,6.23,73,4233,4583648,4584004,358,3455,1061.5,983.9,likertHorizontal,4583648,4584004,356,0.0841011103236475,1
NS01,2,19,Female,R,53,continuous,2,3,4581008,4585241,trial,2036,5.8,5726,6.23,73,4233,4584028,4584256,230,3562,1079.6,956.7,likertHorizontal,4584028,4584256,228,0.0538625088589653,1
NS01,2,19,Female,R,53,continuous,2,3,4581008,4585241,trial,2036,5.8,5726,6.23,73,4233,4584282,4584626,346,3638,1225.5,942.9,,4584282,4584626,344,0.0812662414363336,1
NS01,2,19,Female,R,53,continuous,2,3,4581008,4585241,trial,2036,5.8,5726,6.23,73,4233,4584696,4584852,158,3623,541.3,554,left,4584696,4584852,156,0.0368532955350815,1
NS01,2,19,Female,R,53,continuous,2,3,4581008,4585241,trial,2036,5.8,5726,6.23,73,4233,4584912,4585186,276,3601,1196,879.6,,4584912,4585186,274,0.0647295062603355,1
NS01,2,19,Female,R,53,continuous,2,3,4581008,4585241,trial,2036,5.8,5726,6.23,73,4233,4585210,4585444,236,3618,1171.6,951.4,likertHorizontal,4585210,4585241,31,0.00732341129222774,1
NS01,2,19,Female,R,53,continuous,2,3,4581008,4585241,postResponse,2036,5.8,5726,6.23,73,4233,4585524,4585572,50,3613,662.6,493,left,4585241,4585241,0,0,0
NS01,2,19,Female,R,54,continuous,2,4,4585908,4589058,fixationCross,7061,5.4,7279,6.22,100,3150,4585646,4585734,90,3639,656.5,493.1,left,4585908,4585908,0,0,0
NS01,2,19,Female,R,54,continuous,2,4,4585908,4589058,trial,7061,5.4,7279,6.22,100,3150,4585766,4586072,308,3708,814.5,426.9,,4585908,4586072,164,0.0520634920634921,1
NS01,2,19,Female,R,54,continuous,2,4,4585908,4589058,trial,7061,5.4,7279,6.22,100,3150,4586114,4586310,198,3755,511.5,536.9,left,4586114,4586310,196,0.0622222222222222,1
NS01,2,19,Female,R,54,continuous,2,4,4585908,4589058,trial,7061,5.4,7279,6.22,100,3150,4586336,4586478,144,3616,356.3,435.3,left,4586336,4586478,142,0.0450793650793651,1
NS01,2,19,Female,R,54,continuous,2,4,4585908,4589058,trial,7061,5.4,7279,6.22,100,3150,4586548,4586804,258,3552,1351.4,526.9,right,4586548,4586804,256,0.0812698412698413,1
NS01,2,19,Female,R,54,continuous,2,4,4585908,4589058,trial,7061,5.4,7279,6.22,100,3150,4586826,4587112,288,3675,1469.2,582.1,right,4586826,4587112,286,0.0907936507936508,1
NS01,2,19,Female,R,54,continuous,2,4,4585908,4589058,trial,7061,5.4,7279,6.22,100,3150,4587156,4587340,186,3717,1442.5,1003,,4587156,4587340,184,0.0584126984126984,1
NS01,2,19,Female,R,54,continuous,2,4,4585908,4589058,trial,7061,5.4,7279,6.22,100,3150,4587382,4587560,180,3754,1483.1,597,right,4587382,4587560,178,0.0565079365079365,1
NS01,2,19,Female,R,54,continuous,2,4,4585908,4589058,trial,7061,5.4,7279,6.22,100,3150,4587584,4587920,338,3818,1330.2,592.6,right,4587584,4587920,336,0.106666666666667,1
NS01,2,19,Female,R,54,continuous,2,4,4585908,4589058,trial,7061,5.4,7279,6.22,100,3150,4587940,4588318,380,3747,1287.7,522.1,right,4587940,4588318,378,0.12,1
NS01,2,19,Female,R,54,continuous,2,4,4585908,4589058,trial,7061,5.4,7279,6.22,100,3150,4588346,4588654,310,3765,1290.3,624.9,right,4588346,4588654,308,0.0977777777777778,1
NS01,2,19,Female,R,54,continuous,2,4,4585908,4589058,trial,7061,5.4,7279,6.22,100,3150,4588714,4588910,198,3648,594.7,605.9,left,4588714,4588910,196,0.0622222222222222,1
NS01,2,19,Female,R,54,continuous,2,4,4585908,4589058,trial,7061,5.4,7279,6.22,100,3150,4588942,4589330,390,3383,372.3,449.1,left,4588942,4589058,116,0.0368253968253968,1
NS01,2,19,Female,R,55,continuous,2,5,4589758,4592658,trial,5215,6.83,2032,5.58,1,2900,4589488,4589934,448,3556,717.2,533,left,4589758,4589934,176,0.0606896551724138,1
NS01,2,19,Female,R,55,continuous,2,5,4589758,4592658,trial,5215,6.83,2032,5.58,1,2900,4589976,4590194,220,3612,458.2,669.9,left,4589976,4590194,218,0.0751724137931035,1
NS01,2,19,Female,R,55,continuous,2,5,4589758,4592658,trial,5215,6.83,2032,5.58,1,2900,4590216,4590350,136,3403,464.8,592.7,left,4590216,4590350,134,0.0462068965517241,1
NS01,2,19,Female,R,55,continuous,2,5,4589758,4592658,trial,5215,6.83,2032,5.58,1,2900,4590422,4590658,238,3422,1524.3,533.5,right,4590422,4590658,236,0.0813793103448276,1
NS01,2,19,Female,R,55,continuous,2,5,4589758,4592658,trial,5215,6.83,2032,5.58,1,2900,4590678,4590914,238,3502,1599.9,556.3,right,4590678,4590914,236,0.0813793103448276,1
NS01,2,19,Female,R,55,continuous,2,5,4589758,4592658,trial,5215,6.83,2032,5.58,1,2900,4590936,4591060,126,3562,1573.2,466.8,right,4590936,4591060,124,0.0427586206896552,1
NS01,2,19,Female,R,55,continuous,2,5,4589758,4592658,trial,5215,6.83,2032,5.58,1,2900,4591136,4591454,320,3493,542.2,668.3,left,4591136,4591454,318,0.109655172413793,1
NS01,2,19,Female,R,55,continuous,2,5,4589758,4592658,trial,5215,6.83,2032,5.58,1,2900,4591470,4591728,260,3458,475.9,660.9,left,4591470,4591728,258,0.0889655172413793,1
NS01,2,19,Female,R,55,continuous,2,5,4589758,4592658,trial,5215,6.83,2032,5.58,1,2900,4591778,4591864,88,3437,543,1019.8,,4591778,4591864,86,0.0296551724137931,1
NS01,2,19,Female,R,55,continuous,2,5,4589758,4592658,trial,5215,6.83,2032,5.58,1,2900,4591884,4592076,194,3448,542.6,969,,4591884,4592076,192,0.0662068965517241,1
NS01,2,19,Female,R,55,continuous,2,5,4589758,4592658,trial,5215,6.83,2032,5.58,1,2900,4592120,4592396,278,3505,492.7,614.5,left,4592120,4592396,276,0.0951724137931034,1
NS01,2,19,Female,R,55,continuous,2,5,4589758,4592658,trial,5215,6.83,2032,5.58,1,2900,4592420,4592862,444,3508,517.8,559.7,left,4592420,4592658,238,0.0820689655172414,1
NS01,2,19,Female,R,56,continuous,2,6,4593308,4597292,fixationCross,7190,5.55,8130,6.58,58,3984,4593064,4593264,202,3520,644.4,480.1,left,4593308,4593308,0,0,0
NS01,2,19,Female,R,56,continuous,2,6,4593308,4597292,trial,7190,5.55,8130,6.58,58,3984,4593286,4593478,194,3720,555.6,487.5,left,4593308,4593478,170,0.0426706827309237,1
NS01,2,19,Female,R,56,continuous,2,6,4593308,4597292,trial,7190,5.55,8130,6.58,58,3984,4593502,4593712,212,3649,543.6,580.5,left,4593502,4593712,210,0.052710843373494,1
NS01,2,19,Female,R,56,continuous,2,6,4593308,4597292,trial,7190,5.55,8130,6.58,58,3984,4593780,4594002,224,3499,1442.2,528.3,right,4593780,4594002,222,0.0557228915662651,1
NS01,2,19,Female,R,56,continuous,2,6,4593308,4597292,trial,7190,5.55,8130,6.58,58,3984,4594014,4594260,248,3401,1477,523.6,right,4594014,4594260,246,0.0617469879518072,1
NS01,2,19,Female,R,56,continuous,2,6,4593308,4597292,trial,7190,5.55,8130,6.58,58,3984,4594284,4594420,138,3340,1392,612.8,right,4594284,4594420,136,0.034136546184739,1
NS01,2,19,Female,R,56,continuous,2,6,4593308,4597292,trial,7190,5.55,8130,6.58,58,3984,4594490,4594716,228,3247,547.7,576.1,left,4594490,4594716,226,0.0567269076305221,1
NS01,2,19,Female,R,56,continuous,2,6,4593308,4597292,trial,7190,5.55,8130,6.58,58,3984,4594732,4594944,214,3248,509.6,574.4,left,4594732,4594944,212,0.0532128514056225,1
NS01,2,19,Female,R,56,continuous,2,6,4593308,4597292,trial,7190,5.55,8130,6.58,58,3984,4594962,4595348,388,3289,542.9,538.3,left,4594962,4595348,386,0.0968875502008032,1
NS01,2,19,Female,R,56,continuous,2,6,4593308,4597292,trial,7190,5.55,8130,6.58,58,3984,4595416,4595582,168,3425,1467.1,571.9,right,4595416,4595582,166,0.0416666666666667,1
NS01,2,19,Female,R,56,continuous,2,6,4593308,4597292,trial,7190,5.55,8130,6.58,58,3984,4595600,4595934,336,3422,1479.6,522.8,right,4595600,4595934,334,0.0838353413654619,1
NS01,2,19,Female,R,56,continuous,2,6,4593308,4597292,trial,7190,5.55,8130,6.58,58,3984,4595984,4596096,114,3357,1137.1,984.4,likertHorizontal,4595984,4596096,112,0.0281124497991968,1
NS01,2,19,Female,R,56,continuous,2,6,4593308,4597292,trial,7190,5.55,8130,6.58,58,3984,4596124,4596262,140,3384,1418,1008.7,,4596124,4596262,138,0.0346385542168675,1
NS01,2,19,Female,R,56,continuous,2,6,4593308,4597292,trial,7190,5.55,8130,6.58,58,3984,4596436,4596548,114,3490,974.8,927.4,likertHorizontal,4596436,4596548,112,0.0281124497991968,1
NS01,2,19,Female,R,56,continuous,2,6,4593308,4597292,trial,7190,5.55,8130,6.58,58,3984,4596596,4596838,244,3653,1394.1,577.8,right,4596596,4596838,242,0.0607429718875502,1
NS01,2,19,Female,R,56,continuous,2,6,4593308,4597292,trial,7190,5.55,8130,6.58,58,3984,4596884,4597082,200,3588,1041.9,966.8,likertHorizontal,4596884,4597082,198,0.0496987951807229,1
NS01,2,19,Female,R,56,continuous,2,6,4593308,4597292,trial,7190,5.55,8130,6.58,58,3984,4597092,4597536,446,3613,1021,968.3,likertHorizontal,4597092,4597292,200,0.0502008032128514,1
NS01,2,19,Female,R,57,continuous,2,7,4597941,4602975,trial,4536,6.01,7248,5.22,29,5034,4597698,4598092,396,3697,698.9,486.5,left,4597941,4598092,151,0.0299960270162892,1
NS01,2,19,Female,R,57,continuous,2,7,4597941,4602975,trial,4536,6.01,7248,5.22,29,5034,4598126,4598302,178,3654,503,533.3,left,4598126,4598302,176,0.0349622566547477,1
NS01,2,19,Female,R,57,continuous,2,7,4597941,4602975,trial,4536,6.01,7248,5.22,29,5034,4598330,4598598,270,3593,499.1,681.4,left,4598330,4598598,268,0.0532379817242749,1
NS01,2,19,Female,R,57,continuous,2,7,4597941,4602975,trial,4536,6.01,7248,5.22,29,5034,4598666,4598950,286,3650,1402.2,575.6,right,4598666,4598950,284,0.0564163686928884,1
NS01,2,19,Female,R,57,continuous,2,7,4597941,4602975,trial,4536,6.01,7248,5.22,29,5034,4598968,4599388,422,3575,1454.5,592.8,right,4598968,4599388,420,0.0834326579261025,1
NS01,2,19,Female,R,57,continuous,2,7,4597941,4602975,trial,4536,6.01,7248,5.22,29,5034,4599408,4599726,320,3296,1446,519.6,right,4599408,4599726,318,0.0631704410011919,1
NS01,2,19,Female,R,57,continuous,2,7,4597941,4602975,trial,4536,6.01,7248,5.22,29,5034,4599776,4599922,148,3131,1447.1,1010.1,,4599776,4599922,146,0.0290027810885975,1
NS01,2,19,Female,R,57,continuous,2,7,4597941,4602975,trial,4536,6.01,7248,5.22,29,5034,4599998,4600230,234,3189,518.3,535.3,left,4599998,4600230,232,0.0460866110448947,1
NS01,2,19,Female,R,57,continuous,2,7,4597941,4602975,trial,4536,6.01,7248,5.22,29,5034,4600260,4600618,360,3328,487.6,675.2,left,4600260,4600618,358,0.0711164084227255,1
NS01,2,19,Female,R,57,continuous,2,7,4597941,4602975,trial,4536,6.01,7248,5.22,29,5034,4600638,4600764,128,3335,527.1,605.9,left,4600638,4600764,126,0.0250297973778308,1
NS01,2,19,Female,R,57,continuous,2,7,4597941,4602975,trial,4536,6.01,7248,5.22,29,5034,4600900,4601016,118,3419,978,977.5,likertHorizontal,4600900,4601016,116,0.0230433055224474,1
NS01,2,19,Female,R,57,continuous,2,7,4597941,4602975,trial,4536,6.01,7248,5.22,29,5034,4601062,4601244,184,3614,1418.1,1010.6,,4601062,4601244,182,0.0361541517679778,1
NS01,2,19,Female,R,57,continuous,2,7,4597941,4602975,trial,4536,6.01,7248,5.22,29,5034,4601298,4601400,104,3741,1470.8,593.4,right,4601298,4601400,102,0.0202622169249106,1
NS01,2,19,Female,R,57,continuous,2,7,4597941,4602975,trial,4536,6.01,7248,5.22,29,5034,4601468,4601720,254,3623,554.2,580.4,left,4601468,4601720,252,0.0500595947556615,1
NS01,2,19,Female,R,57,continuous,2,7,4597941,4602975,trial,4536,6.01,7248,5.22,29,5034,4601764,4601988,226,3601,865.4,995.4,likertHorizontal,4601764,4601988,224,0.044497417560588,1
NS01,2,19,Female,R,57,continuous,2,7,4597941,4602975,trial,4536,6.01,7248,5.22,29,5034,4602020,4602182,164,3662,654,952.2,,4602020,4602182,162,0.032181168057211,1
NS01,2,19,Female,R,57,continuous,2,7,4597941,4602975,trial,4536,6.01,7248,5.22,29,5034,4602236,4602476,242,3704,547.6,563.5,left,4602236,4602476,240,0.0476758045292014,1
NS01,2,19,Female,R,57,continuous,2,7,4597941,4602975,trial,4536,6.01,7248,5.22,29,5034,4602520,4602844,326,3832,726.5,941.7,,4602520,4602844,324,0.0643623361144219,1
NS01,2,19,Female,R,57,continuous,2,7,4597941,4602975,trial,4536,6.01,7248,5.22,29,5034,4602884,4603204,322,3795,491.1,993,,4602884,4602975,91,0.0180770758839889,1
NS01,2,19,Female,R,57,continuous,2,7,4597941,4602975,postResponse,4536,6.01,7248,5.22,29,5034,4603280,4603308,30,3703,680.6,573.7,left,4602975,4602975,0,0,0
NS01,2,19,Female,R,58,continuous,2,8,4603625,4606408,trial,7195,6.02,5500,5.42,100,2783,4603382,4603710,330,3689,676.5,566.7,left,4603625,4603710,85,0.0305425799496946,1
NS01,2,19,Female,R,58,continuous,2,8,4603625,4606408,trial,7195,6.02,5500,5.42,100,2783,4603756,4603860,106,3700,990.3,533.2,,4603756,4603860,104,0.0373697448796263,1
NS01,2,19,Female,R,58,continuous,2,8,4603625,4606408,trial,7195,6.02,5500,5.42,100,2783,4603908,4604166,260,3567,518,524.4,left,4603908,4604166,258,0.0927057132590729,1
NS01,2,19,Female,R,58,continuous,2,8,4603625,4606408,trial,7195,6.02,5500,5.42,100,2783,4604184,4604380,198,3443,498.5,485.7,left,4604184,4604380,196,0.0704275961192957,1
NS01,2,19,Female,R,58,continuous,2,8,4603625,4606408,trial,7195,6.02,5500,5.42,100,2783,4604396,4604752,358,3255,474.7,538.6,left,4604396,4604752,356,0.127919511318721,1
NS01,2,19,Female,R,58,continuous,2,8,4603625,4606408,trial,7195,6.02,5500,5.42,100,2783,4604818,4605074,258,3318,1386.7,604.1,right,4604818,4605074,256,0.0919870643190801,1
NS01,2,19,Female,R,58,continuous,2,8,4603625,4606408,trial,7195,6.02,5500,5.42,100,2783,4605118,4605338,222,3471,1446.7,988.4,,4605118,4605338,220,0.0790513833992095,1
NS01,2,19,Female,R,58,continuous,2,8,4603625,4606408,trial,7195,6.02,5500,5.42,100,2783,4605412,4605620,210,3501,553.6,527.3,left,4605412,4605620,208,0.0747394897592526,1
NS01,2,19,Female,R,58,continuous,2,8,4603625,4606408,trial,7195,6.02,5500,5.42,100,2783,4605640,4605842,204,3495,466.1,512.6,left,4605640,4605842,202,0.0725835429392742,1
NS01,2,19,Female,R,58,continuous,2,8,4603625,4606408,trial,7195,6.02,5500,5.42,100,2783,4605860,4606112,254,3447,406.7,492.5,left,4605860,4606112,252,0.0905497664390945,1
NS01,2,19,Female,R,58,continuous,2,8,4603625,4606408,trial,7195,6.02,5500,5.42,100,2783,4606130,4606236,108,3414,389,549.6,left,4606130,4606236,106,0.0380883938196191,1
NS01,2,19,Female,R,58,continuous,2,8,4603625,4606408,trial,7195,6.02,5500,5.42,100,2783,4606270,4606664,396,3468,577.9,650.9,left,4606270,4606408,138,0.0495867768595041,1
NS01,2,19,Female,R,58,continuous,2,8,4603625,4606408,postResponse,7195,6.02,5500,5.42,100,2783,4606690,4606744,56,3529,705.1,509.7,left,4606408,4606408,0,0,0
NS01,2,19,Female,R,59,continuous,2,9,4607075,4611958,trial,2389,6.61,2870,5.31,16,4883,4606820,4607230,412,3649,724.1,498.8,left,4607075,4607230,155,0.0317427810772066,1
NS01,2,19,Female,R,59,continuous,2,9,4607075,4611958,trial,2389,6.61,2870,5.31,16,4883,4607264,4607436,174,3705,516.8,574.4,left,4607264,4607436,172,0.0352242473889003,1
NS01,2,19,Female,R,59,continuous,2,9,4607075,4611958,trial,2389,6.61,2870,5.31,16,4883,4607450,4607738,290,3588,497.7,613.9,left,4607450,4607738,288,0.0589801351628098,1
NS01,2,19,Female,R,59,continuous,2,9,4607075,4611958,trial,2389,6.61,2870,5.31,16,4883,4607808,4607982,176,3532,1486.2,587.1,right,4607808,4607982,174,0.0356338316608642,1
NS01,2,19,Female,R,59,continuous,2,9,4607075,4611958,trial,2389,6.61,2870,5.31,16,4883,4608008,4608350,344,3512,1456.3,515.2,right,4608008,4608350,342,0.0700389105058366,1
NS01,2,19,Female,R,59,continuous,2,9,4607075,4611958,trial,2389,6.61,2870,5.31,16,4883,4608426,4608674,250,3437,456.8,621.5,left,4608426,4608674,248,0.0507884497235306,1
NS01,2,19,Female,R,59,continuous,2,9,4607075,4611958,trial,2389,6.61,2870,5.31,16,4883,4608688,4608830,144,3365,489,623.3,left,4608688,4608830,142,0.0290804833094409,1
NS01,2,19,Female,R,59,continuous,2,9,4607075,4611958,trial,2389,6.61,2870,5.31,16,4883,4608862,4609138,278,3351,267.8,521.8,left,4608862,4609138,276,0.056522629531026,1
NS01,2,19,Female,R,59,continuous,2,9,4607075,4611958,trial,2389,6.61,2870,5.31,16,4883,4609176,4609420,246,3340,541,487.1,left,4609176,4609420,244,0.0499692811796027,1
NS01,2,19,Female,R,59,continuous,2,9,4607075,4611958,trial,2389,6.61,2870,5.31,16,4883,4609430,4609818,390,3414,564.5,506.7,left,4609430,4609818,388,0.0794593487610076,1
NS01,2,19,Female,R,59,continuous,2,9,4607075,4611958,trial,2389,6.61,2870,5.31,16,4883,4609840,4610128,290,3423,499.8,447.2,left,4609840,4610128,288,0.0589801351628098,1
NS01,2,19,Female,R,59,continuous,2,9,4607075,4611958,trial,2389,6.61,2870,5.31,16,4883,4610202,4610374,174,3482,1553.6,627.4,right,4610202,4610374,172,0.0352242473889003,1
NS01,2,19,Female,R,59,continuous,2,9,4607075,4611958,trial,2389,6.61,2870,5.31,16,4883,4610400,4610952,554,3556,1462.5,523.3,right,4610400,4610952,552,0.113045259062052,1
NS01,2,19,Female,R,59,continuous,2,9,4607075,4611958,trial,2389,6.61,2870,5.31,16,4883,4610976,4611098,124,3570,1332.4,607.8,right,4610976,4611098,122,0.0249846405898014,1
NS01,2,19,Female,R,59,continuous,2,9,4607075,4611958,trial,2389,6.61,2870,5.31,16,4883,4611162,4611906,746,3516,603.2,926,,4611162,4611906,744,0.152365349170592,1
NS01,2,19,Female,R,59,continuous,2,9,4607075,4611958,trial,2389,6.61,2870,5.31,16,4883,4611916,4612196,282,3587,625.4,943.5,,4611916,4611958,42,0.00860126971124309,1
NS01,2,19,Female,R,59,continuous,2,9,4607075,4611958,postResponse,2389,6.61,2870,5.31,16,4883,4612256,4612288,34,3599,705.2,530.8,left,4611958,4611958,0,0,0
NS01,2,19,Female,R,60,continuous,2,10,4612608,4616491,fixationCross,1660,6.49,2102,5.16,85,3883,4612362,4612456,96,3587,698.4,525.3,left,4612608,4612608,0,0,0
NS01,2,19,Female,R,60,continuous,2,10,4612608,4616491,trial,1660,6.49,2102,5.16,85,3883,4612482,4612766,286,3597,583.3,453.2,left,4612608,4612766,158,0.0406901879989699,1
NS01,2,19,Female,R,60,continuous,2,10,4612608,4616491,trial,1660,6.49,2102,5.16,85,3883,4612794,4613108,316,3551,425.6,584.2,left,4612794,4613108,314,0.0808653103270667,1
NS01,2,19,Female,R,60,continuous,2,10,4612608,4616491,trial,1660,6.49,2102,5.16,85,3883,4613176,4613410,236,3459,1393.6,471.1,right,4613176,4613410,234,0.0602626834921453,1
NS01,2,19,Female,R,60,continuous,2,10,4612608,4616491,trial,1660,6.49,2102,5.16,85,3883,4613424,4613784,362,3412,1405.6,447.2,right,4613424,4613784,360,0.0927118207571465,1
NS01,2,19,Female,R,60,continuous,2,10,4612608,4616491,trial,1660,6.49,2102,5.16,85,3883,4613834,4614032,200,3341,1436.8,985.1,,4613834,4614032,198,0.0509915014164306,1
NS01,2,19,Female,R,60,continuous,2,10,4612608,4616491,trial,1660,6.49,2102,5.16,85,3883,4614082,4614220,140,3413,1392.6,426.6,right,4614082,4614220,138,0.0355395312902395,1
NS01,2,19,Female,R,60,continuous,2,10,4612608,4616491,trial,1660,6.49,2102,5.16,85,3883,4614286,4614514,230,3403,468.4,555.5,left,4614286,4614514,228,0.0587174864795261,1
NS01,2,19,Female,R,60,continuous,2,10,4612608,4616491,trial,1660,6.49,2102,5.16,85,3883,4614594,4614844,252,3520,1360,931.4,,4614594,4614844,250,0.0643832088591296,1
NS01,2,19,Female,R,60,continuous,2,10,4612608,4616491,trial,1660,6.49,2102,5.16,85,3883,4614888,4615092,206,3663,1425.3,450.7,right,4614888,4615092,204,0.0525366984290497,1
NS01,2,19,Female,R,60,continuous,2,10,4612608,4616491,trial,1660,6.49,2102,5.16,85,3883,4615102,4615388,288,3633,1407.4,444.9,right,4615102,4615388,286,0.0736543909348442,1
NS01,2,19,Female,R,60,continuous,2,10,4612608,4616491,trial,1660,6.49,2102,5.16,85,3883,4615426,4615834,410,3619,1493.6,692.1,right,4615426,4615834,408,0.105073396858099,1
NS01,2,19,Female,R,60,continuous,2,10,4612608,4616491,trial,1660,6.49,2102,5.16,85,3883,4615878,4616042,166,3654,1412.4,473.9,right,4615878,4616042,164,0.042235385011589,1
NS01,2,19,Female,R,60,continuous,2,10,4612608,4616491,trial,1660,6.49,2102,5.16,85,3883,4616054,4616222,170,3617,1408.3,453.1,right,4616054,4616222,168,0.0432655163533351,1
