DAU,participantNo,age,gender,eye,trial,task,block,blockTrial,trialStartTime,trialFinishTime,trialStage,lImage,lValueIAPS,lValue,rImage,rValueIAPS,rValue,response,rt,fixStart,fixEnd,fixLength,dilation,fixPosX,fixPosY,aoi,fixStartTr,fixEndTr,fixDurationTr,fixDurationProp,intra_choice
NS01,2,19,Female,R,68,continuous,2,18,4650642,4653642,fixationCross,7096,5.54,4,1333,6.11,6,62,3000,4650398,4650414,18,3314,601.4,529,left,4650642,4650642,0,0,0
NS01,2,19,Female,R,68,continuous,2,18,4650642,4653642,trial,7096,5.54,4,1333,6.11,6,62,3000,4650436,4650824,390,3369,708.3,470.6,left,4650642,4650824,182,0.0606666666666667,1
NS01,2,19,Female,R,68,continuous,2,18,4650642,4653642,trial,7096,5.54,4,1333,6.11,6,62,3000,4650860,4651086,228,3438,536.3,563.1,left,4650860,4651086,226,0.0753333333333333,1
NS01,2,19,Female,R,68,continuous,2,18,4650642,4653642,trial,7096,5.54,4,1333,6.11,6,62,3000,4651152,4651374,224,3414,1368.4,512.7,right,4651152,4651374,222,0.074,1
NS01,2,19,Female,R,68,continuous,2,18,4650642,4653642,trial,7096,5.54,4,1333,6.11,6,62,3000,4651400,4651598,200,3447,1570.7,607.1,right,4651400,4651598,198,0.066,1
NS01,2,19,Female,R,68,continuous,2,18,4650642,4653642,trial,7096,5.54,4,1333,6.11,6,62,3000,4651782,4651872,92,3516,1555.2,609.4,right,4651782,4651872,90,0.03,1
NS01,2,19,Female,R,68,continuous,2,18,4650642,4653642,trial,7096,5.54,4,1333,6.11,6,62,3000,4651940,4652148,210,3540,626,577.4,left,4651940,4652148,208,0.0693333333333333,1
NS01,2,19,Female,R,68,continuous,2,18,4650642,4653642,trial,7096,5.54,4,1333,6.11,6,62,3000,4652176,4652424,250,3426,485.2,576.5,left,4652176,4652424,248,0.0826666666666667,1
NS01,2,19,Female,R,68,continuous,2,18,4650642,4653642,trial,7096,5.54,4,1333,6.11,6,62,3000,4652452,4652614,164,3343,705.8,603.1,left,4652452,4652614,162,0.054,1
NS01,2,19,Female,R,68,continuous,2,18,4650642,4653642,trial,7096,5.54,4,1333,6.11,6,62,3000,4652662,4653376,716,3529,1036.6,938.4,likertHorizontal,4652662,4653376,714,0.238,1
NS01,2,19,Female,R,68,continuous,2,18,4650642,4653642,trial,7096,5.54,4,1333,6.11,6,62,3000,4653418,4653860,444,3714,1296.2,577.3,right,4653418,4653642,224,0.0746666666666667,1
NS01,2,19,Female,R,64,continuous,2,14,4633526,4637042,fixationCross,8192,5.52,7,1616,5.21,1,1,3516,4633254,4633360,108,3572,759.7,504,,4633526,4633526,0,0,0
NS01,2,19,Female,R,64,continuous,2,14,4633526,4637042,trial,8192,5.52,7,1616,5.21,1,1,3516,4633384,4633692,310,3616,630.8,460.1,left,4633526,4633692,166,0.0472127417519909,1
NS01,2,19,Female,R,64,continuous,2,14,4633526,4637042,trial,8192,5.52,7,1616,5.21,1,1,3516,4633726,4634050,326,3466,432.1,437.2,left,4633726,4634050,324,0.0921501706484642,1
NS01,2,19,Female,R,64,continuous,2,14,4633526,4637042,trial,8192,5.52,7,1616,5.21,1,1,3516,4634122,4634406,286,3386,1452.4,547.5,right,4634122,4634406,284,0.080773606370876,1
NS01,2,19,Female,R,64,continuous,2,14,4633526,4637042,trial,8192,5.52,7,1616,5.21,1,1,3516,4634430,4634760,332,3350,1565.4,586.1,right,4634430,4634760,330,0.0938566552901024,1
NS01,2,19,Female,R,64,continuous,2,14,4633526,4637042,trial,8192,5.52,7,1616,5.21,1,1,3516,4634788,4635016,230,3250,1484.3,472.9,right,4634788,4635016,228,0.0648464163822526,1
NS01,2,19,Female,R,64,continuous,2,14,4633526,4637042,trial,8192,5.52,7,1616,5.21,1,1,3516,4635046,4635324,280,3235,1319.5,702.8,right,4635046,4635324,278,0.0790671217292378,1
NS01,2,19,Female,R,64,continuous,2,14,4633526,4637042,trial,8192,5.52,7,1616,5.21,1,1,3516,4635370,4635658,290,3302,1591.5,602.3,right,4635370,4635658,288,0.0819112627986348,1
NS01,2,19,Female,R,64,continuous,2,14,4633526,4637042,trial,8192,5.52,7,1616,5.21,1,1,3516,4635680,4635924,246,3329,1576.9,523.9,right,4635680,4635924,244,0.0693970420932878,1
NS01,2,19,Female,R,64,continuous,2,14,4633526,4637042,trial,8192,5.52,7,1616,5.21,1,1,3516,4636006,4636180,176,3239,473.4,451.6,left,4636006,4636180,174,0.0494880546075085,1
NS01,2,19,Female,R,64,continuous,2,14,4633526,4637042,trial,8192,5.52,7,1616,5.21,1,1,3516,4636200,4636332,134,3197,422.3,386.9,left,4636200,4636332,132,0.037542662116041,1
NS01,2,19,Female,R,64,continuous,2,14,4633526,4637042,trial,8192,5.52,7,1616,5.21,1,1,3516,4636410,4636694,286,3396,1543,530.4,right,4636410,4636694,284,0.080773606370876,1
NS01,2,19,Female,R,64,continuous,2,14,4633526,4637042,trial,8192,5.52,7,1616,5.21,1,1,3516,4636714,4636816,104,3454,1585.6,520.7,right,4636714,4636816,102,0.0290102389078498,1
NS01,2,19,Female,R,64,continuous,2,14,4633526,4637042,trial,8192,5.52,7,1616,5.21,1,1,3516,4636896,4637036,142,3351,470.5,430.6,left,4636896,4637036,140,0.0398179749715586,1
NS01,2,19,Female,R,64,continuous,2,14,4633526,4637042,postResponse,8192,5.52,7,1616,5.21,1,1,3516,4637058,4637372,316,3274,435.5,381.3,left,4637042,4637042,0,0,0
NS01,2,19,Female,R,55,continuous,2,5,4589758,4592658,trial,5215,6.83,7,2032,5.58,7,1,2900,4589488,4589934,448,3556,717.2,533,left,4589758,4589934,176,0.0606896551724138,1
NS01,2,19,Female,R,55,continuous,2,5,4589758,4592658,trial,5215,6.83,7,2032,5.58,7,1,2900,4589976,4590194,220,3612,458.2,669.9,left,4589976,4590194,218,0.0751724137931035,1
NS01,2,19,Female,R,55,continuous,2,5,4589758,4592658,trial,5215,6.83,7,2032,5.58,7,1,2900,4590216,4590350,136,3403,464.8,592.7,left,4590216,4590350,134,0.0462068965517241,1
NS01,2,19,Female,R,55,continuous,2,5,4589758,4592658,trial,5215,6.83,7,2032,5.58,7,1,2900,4590422,4590658,238,3422,1524.3,533.5,right,4590422,4590658,236,0.0813793103448276,1
NS01,2,19,Female,R,55,continuous,2,5,4589758,4592658,trial,5215,6.83,7,2032,5.58,7,1,2900,4590678,4590914,238,3502,1599.9,556.3,right,4590678,4590914,236,0.0813793103448276,1
NS01,2,19,Female,R,55,continuous,2,5,4589758,4592658,trial,5215,6.83,7,2032,5.58,7,1,2900,4590936,4591060,126,3562,1573.2,466.8,right,4590936,4591060,124,0.0427586206896552,1
NS01,2,19,Female,R,55,continuous,2,5,4589758,4592658,trial,5215,6.83,7,2032,5.58,7,1,2900,4591136,4591454,320,3493,542.2,668.3,left,4591136,4591454,318,0.109655172413793,1
NS01,2,19,Female,R,55,continuous,2,5,4589758,4592658,trial,5215,6.83,7,2032,5.58,7,1,2900,4591470,4591728,260,3458,475.9,660.9,left,4591470,4591728,258,0.0889655172413793,1
NS01,2,19,Female,R,55,continuous,2,5,4589758,4592658,trial,5215,6.83,7,2032,5.58,7,1,2900,4591778,4591864,88,3437,543,1019.8,,4591778,4591864,86,0.0296551724137931,1
NS01,2,19,Female,R,55,continuous,2,5,4589758,4592658,trial,5215,6.83,7,2032,5.58,7,1,2900,4591884,4592076,194,3448,542.6,969,,4591884,4592076,192,0.0662068965517241,1
NS01,2,19,Female,R,55,continuous,2,5,4589758,4592658,trial,5215,6.83,7,2032,5.58,7,1,2900,4592120,4592396,278,3505,492.7,614.5,left,4592120,4592396,276,0.0951724137931034,1
NS01,2,19,Female,R,55,continuous,2,5,4589758,4592658,trial,5215,6.83,7,2032,5.58,7,1,2900,4592420,4592862,444,3508,517.8,559.7,left,4592420,4592658,238,0.0820689655172414,1
NS01,2,19,Female,R,70,continuous,2,20,4657509,4659725,trial,7140,5.5,3,2152,6.93,7,100,2216,4657264,4657654,392,3847,964.7,515,,4657509,4657654,145,0.0654332129963899,1
NS01,2,19,Female,R,70,continuous,2,20,4657509,4659725,trial,7140,5.5,3,2152,6.93,7,100,2216,4657702,4657832,132,3901,574.7,555.6,left,4657702,4657832,130,0.0586642599277978,1
NS01,2,19,Female,R,70,continuous,2,20,4657509,4659725,trial,7140,5.5,3,2152,6.93,7,100,2216,4657894,4658170,278,3712,1447.8,596.5,right,4657894,4658170,276,0.124548736462094,1
NS01,2,19,Female,R,70,continuous,2,20,4657509,4659725,trial,7140,5.5,3,2152,6.93,7,100,2216,4658192,4658324,134,3696,1444.1,521.9,right,4658192,4658324,132,0.0595667870036101,1
NS01,2,19,Female,R,70,continuous,2,20,4657509,4659725,trial,7140,5.5,3,2152,6.93,7,100,2216,4658390,4658738,350,3622,592.5,563.2,left,4658390,4658738,348,0.157039711191336,1
NS01,2,19,Female,R,70,continuous,2,20,4657509,4659725,trial,7140,5.5,3,2152,6.93,7,100,2216,4658800,4658958,160,3766,1393.2,634.9,right,4658800,4658958,158,0.0712996389891697,1
NS01,2,19,Female,R,70,continuous,2,20,4657509,4659725,trial,7140,5.5,3,2152,6.93,7,100,2216,4658980,4659188,210,3765,1496.3,635.3,right,4658980,4659188,208,0.0938628158844765,1
NS01,2,19,Female,R,70,continuous,2,20,4657509,4659725,trial,7140,5.5,3,2152,6.93,7,100,2216,4659204,4659456,254,3782,1483.8,598.9,right,4659204,4659456,252,0.113718411552347,1
NS01,2,19,Female,R,70,continuous,2,20,4657509,4659725,trial,7140,5.5,3,2152,6.93,7,100,2216,4659478,4659706,230,3797,1448.8,686.5,right,4659478,4659706,228,0.102888086642599,1
NS01,2,19,Female,R,70,continuous,2,20,4657509,4659725,trial,7140,5.5,3,2152,6.93,7,100,2216,4659734,4659926,194,3778,1419.8,517.4,right,4659725,4659725,0,0,0
NS01,2,19,Female,R,70,continuous,2,20,4657509,4659725,postResponse,7140,5.5,3,2152,6.93,7,100,2216,4659988,4660058,72,3676,790.8,475.1,,4659725,4659725,0,0,0
NS01,2,19,Female,R,10,binary,1,10,4361422,4363355,trial,7100,5.24,3,2362,6.74,5,2,1933,4361154,4361618,466,3341,517.2,449.3,left,4361422,4361618,196,0.10139679255044,1
NS01,2,19,Female,R,10,binary,1,10,4361422,4363355,trial,7100,5.24,3,2362,6.74,5,2,1933,4361660,4361902,244,3312,472.4,589.4,left,4361660,4361902,242,0.125193998965339,1
NS01,2,19,Female,R,10,binary,1,10,4361422,4363355,trial,7100,5.24,3,2362,6.74,5,2,1933,4361976,4362124,150,3252,1445.1,466.5,right,4361976,4362124,148,0.0765649249870667,1
NS01,2,19,Female,R,10,binary,1,10,4361422,4363355,trial,7100,5.24,3,2362,6.74,5,2,1933,4362146,4362508,364,3215,1357.8,490.8,right,4362146,4362508,362,0.187273667873771,1
NS01,2,19,Female,R,10,binary,1,10,4361422,4363355,trial,7100,5.24,3,2362,6.74,5,2,1933,4362524,4362888,366,3250,1392.3,459.2,right,4362524,4362888,364,0.188308329022245,1
NS01,2,19,Female,R,10,binary,1,10,4361422,4363355,trial,7100,5.24,3,2362,6.74,5,2,1933,4362900,4363150,252,3333,1357.9,481.2,right,4362900,4363150,250,0.129332643559234,1
NS01,2,19,Female,R,10,binary,1,10,4361422,4363355,trial,7100,5.24,3,2362,6.74,5,2,1933,4363220,4363586,368,3345,490.9,511.9,left,4363220,4363355,135,0.0698396275219866,1
NS01,2,19,Female,R,23,binary,1,23,4401073,4402773,trial,2122,5.15,2,2374,6.29,7,2,1700,4400796,4401212,418,3322,752.7,515.2,,4401073,4401212,139,0.081764705882353,1
NS01,2,19,Female,R,23,binary,1,23,4401073,4402773,trial,2122,5.15,2,2374,6.29,7,2,1700,4401254,4401568,316,3328,440.1,583.4,left,4401254,4401568,314,0.184705882352941,1
NS01,2,19,Female,R,23,binary,1,23,4401073,4402773,trial,2122,5.15,2,2374,6.29,7,2,1700,4401634,4401908,276,3313,1329,602.1,right,4401634,4401908,274,0.161176470588235,1
NS01,2,19,Female,R,23,binary,1,23,4401073,4402773,postResponse,2122,5.15,2,2374,6.29,7,2,1700,4401920,4403104,1186,3399,1377,604.7,right,4401920,4402773,853,0.501764705882353,1
NS01,2,19,Female,R,27,binary,1,27,4436356,4437756,trial,2720,5.43,2,2488,5.73,4,2,1400,4436079,4436583,506,3425,569.3,533.7,left,4436356,4436583,227,0.162142857142857,1
NS01,2,19,Female,R,27,binary,1,27,4436356,4437756,trial,2720,5.43,2,2488,5.73,4,2,1400,4436677,4436845,170,3393,490.5,514.1,left,4436677,4436845,168,0.12,1
NS01,2,19,Female,R,27,binary,1,27,4436356,4437756,trial,2720,5.43,2,2488,5.73,4,2,1400,4436869,4437035,168,3320,505.3,453.3,left,4436869,4437035,166,0.118571428571429,1
NS01,2,19,Female,R,27,binary,1,27,4436356,4437756,trial,2720,5.43,2,2488,5.73,4,2,1400,4437067,4437189,124,3327,550.5,619.2,left,4437067,4437189,122,0.0871428571428572,1
NS01,2,19,Female,R,27,binary,1,27,4436356,4437756,trial,2720,5.43,2,2488,5.73,4,2,1400,4437257,4437395,140,3412,1465.5,541,right,4437257,4437395,138,0.0985714285714286,1
NS01,2,19,Female,R,27,binary,1,27,4436356,4437756,trial,2720,5.43,2,2488,5.73,4,2,1400,4437417,4437589,174,3377,1425.3,465.2,right,4437417,4437589,172,0.122857142857143,1
NS01,2,19,Female,R,27,binary,1,27,4436356,4437756,trial,2720,5.43,2,2488,5.73,4,2,1400,4437599,4438021,424,3465,1410.3,485.7,right,4437599,4437756,157,0.112142857142857,1
NS01,2,19,Female,R,25,binary,1,25,4406872,4408756,trial,5900,5.93,7,2593,5.8,7,2,1884,4406610,4407110,502,3250,504.5,534.3,left,4406872,4407110,238,0.126326963906582,1
NS01,2,19,Female,R,25,binary,1,25,4406872,4408756,trial,5900,5.93,7,2593,5.8,7,2,1884,4407124,4407386,264,3326,493,571.6,left,4407124,4407386,262,0.139065817409766,1
NS01,2,19,Female,R,25,binary,1,25,4406872,4408756,trial,5900,5.93,7,2593,5.8,7,2,1884,4407452,4407644,194,3344,1382.1,546.2,right,4407452,4407644,192,0.101910828025478,1
NS01,2,19,Female,R,25,binary,1,25,4406872,4408756,trial,5900,5.93,7,2593,5.8,7,2,1884,4407660,4407786,128,3382,1320.1,563,right,4407660,4407786,126,0.0668789808917197,1
NS01,2,19,Female,R,25,binary,1,25,4406872,4408756,trial,5900,5.93,7,2593,5.8,7,2,1884,4408006,4408592,588,3559,1403.3,564.1,right,4408006,4408592,586,0.31104033970276,1
NS01,2,19,Female,R,25,binary,1,25,4406872,4408756,postResponse,5900,5.93,7,2593,5.8,7,2,1884,4408610,4409086,478,3423,1493,543.9,right,4408610,4408756,146,0.0774946921443737,1
NS01,2,19,Female,R,92,continuous,2,42,4763510,4766811,trial,2489,5.66,4,2900,6.62,1,14,3301,4763251,4763669,420,3633,687.3,522.6,left,4763510,4763669,159,0.0481672220539231,1
NS01,2,19,Female,R,92,continuous,2,42,4763510,4766811,trial,2489,5.66,4,2900,6.62,1,14,3301,4763693,4763939,248,3602,587.1,490.1,left,4763693,4763939,246,0.074522871857013,1
NS01,2,19,Female,R,92,continuous,2,42,4763510,4766811,trial,2489,5.66,4,2900,6.62,1,14,3301,4764005,4764231,228,3573,1499.3,532.5,right,4764005,4764231,226,0.0684641017873372,1
NS01,2,19,Female,R,92,continuous,2,42,4763510,4766811,trial,2489,5.66,4,2900,6.62,1,14,3301,4764245,4764535,292,3637,1532.7,551.4,right,4764245,4764535,290,0.0878521660102999,1
NS01,2,19,Female,R,92,continuous,2,42,4763510,4766811,trial,2489,5.66,4,2900,6.62,1,14,3301,4764571,4764701,132,3688,1292.4,670.7,right,4764571,4764701,130,0.0393820054528931,1
NS01,2,19,Female,R,92,continuous,2,42,4763510,4766811,trial,2489,5.66,4,2900,6.62,1,14,3301,4764765,4764955,192,3604,559.5,489.4,left,4764765,4764955,190,0.0575583156619206,1
NS01,2,19,Female,R,92,continuous,2,42,4763510,4766811,trial,2489,5.66,4,2900,6.62,1,14,3301,4764967,4765395,430,3602,584.6,487.5,left,4764967,4765395,428,0.129657679491063,1
NS01,2,19,Female,R,92,continuous,2,42,4763510,4766811,trial,2489,5.66,4,2900,6.62,1,14,3301,4765441,4765589,150,3603,604.6,944.3,,4765441,4765589,148,0.0448348985156013,1
NS01,2,19,Female,R,92,continuous,2,42,4763510,4766811,trial,2489,5.66,4,2900,6.62,1,14,3301,4765657,4765867,212,3688,1533.7,563,right,4765657,4765867,210,0.0636170857315965,1
NS01,2,19,Female,R,92,continuous,2,42,4763510,4766811,trial,2489,5.66,4,2900,6.62,1,14,3301,4765889,4766317,430,3772,1537.9,532,right,4765889,4766317,428,0.129657679491063,1
NS01,2,19,Female,R,92,continuous,2,42,4763510,4766811,trial,2489,5.66,4,2900,6.62,1,14,3301,4766355,4766501,148,3759,1374,689.3,right,4766355,4766501,146,0.0442290215086338,1
NS01,2,19,Female,R,92,continuous,2,42,4763510,4766811,trial,2489,5.66,4,2900,6.62,1,14,3301,4766565,4767015,452,3578,581,500.4,left,4766565,4766811,246,0.074522871857013,1
NS01,2,19,Female,R,29,binary,1,29,4440823,4442989,trial,2037,6.42,7,4598,6.33,7,2,2166,4440561,4441037,478,3302,497.3,466.9,left,4440823,4441037,214,0.0987996306555863,1
NS01,2,19,Female,R,29,binary,1,29,4440823,4442989,trial,2037,6.42,7,4598,6.33,7,2,2166,4441059,4441209,152,3414,542,549.1,left,4441059,4441209,150,0.0692520775623269,1
NS01,2,19,Female,R,29,binary,1,29,4440823,4442989,trial,2037,6.42,7,4598,6.33,7,2,2166,4441229,4441363,136,3348,610.7,493.4,left,4441229,4441363,134,0.061865189289012,1
NS01,2,19,Female,R,29,binary,1,29,4440823,4442989,trial,2037,6.42,7,4598,6.33,7,2,2166,4441431,4441915,486,3400,1538.8,525.8,right,4441431,4441915,484,0.223453370267775,1
NS01,2,19,Female,R,29,binary,1,29,4440823,4442989,trial,2037,6.42,7,4598,6.33,7,2,2166,4441945,4442363,420,3353,1313.7,511.4,right,4441945,4442363,418,0.192982456140351,1
NS01,2,19,Female,R,29,binary,1,29,4440823,4442989,trial,2037,6.42,7,4598,6.33,7,2,2166,4442541,4442641,102,3356,1440.8,508,right,4442541,4442641,100,0.0461680517082179,1
NS01,2,19,Female,R,29,binary,1,29,4440823,4442989,trial,2037,6.42,7,4598,6.33,7,2,2166,4442663,4443253,592,3413,1548.4,515.1,right,4442663,4442989,326,0.15050784856879,1
NS01,2,19,Female,R,73,continuous,2,23,4670626,4673409,trial,2435,5.84,7,5395,5.34,1,1,2783,4670382,4670796,416,3638,805.8,550.6,,4670626,4670796,170,0.0610851598993892,1
NS01,2,19,Female,R,73,continuous,2,23,4670626,4673409,trial,2435,5.84,7,5395,5.34,1,1,2783,4670836,4671066,232,3582,552.7,558.5,left,4670836,4671066,230,0.0826446280991736,1
NS01,2,19,Female,R,73,continuous,2,23,4670626,4673409,trial,2435,5.84,7,5395,5.34,1,1,2783,4671090,4671474,386,3390,443.7,507.5,left,4671090,4671474,384,0.13798059647862,1
NS01,2,19,Female,R,73,continuous,2,23,4670626,4673409,trial,2435,5.84,7,5395,5.34,1,1,2783,4671544,4671752,210,3436,1425.2,540.5,right,4671544,4671752,208,0.0747394897592526,1
NS01,2,19,Female,R,73,continuous,2,23,4670626,4673409,trial,2435,5.84,7,5395,5.34,1,1,2783,4671990,4672092,104,3399,1482.6,494.5,right,4671990,4672092,102,0.0366510959396335,1
NS01,2,19,Female,R,73,continuous,2,23,4670626,4673409,trial,2435,5.84,7,5395,5.34,1,1,2783,4672166,4672328,164,3370,504.4,526,left,4672166,4672328,162,0.0582105641394179,1
NS01,2,19,Female,R,73,continuous,2,23,4670626,4673409,trial,2435,5.84,7,5395,5.34,1,1,2783,4672344,4672478,136,3295,448.5,519.8,left,4672344,4672478,134,0.0481494789795185,1
NS01,2,19,Female,R,73,continuous,2,23,4670626,4673409,trial,2435,5.84,7,5395,5.34,1,1,2783,4672504,4673004,502,3374,577.8,548.1,left,4672504,4673004,500,0.179662234998203,1
NS01,2,19,Female,R,73,continuous,2,23,4670626,4673409,trial,2435,5.84,7,5395,5.34,1,1,2783,4673068,4673250,184,3533,1424.9,544.8,right,4673068,4673250,182,0.065397053539346,1
NS01,2,19,Female,R,73,continuous,2,23,4670626,4673409,trial,2435,5.84,7,5395,5.34,1,1,2783,4673264,4673610,348,3519,1460.5,528.2,right,4673264,4673409,145,0.052102048149479,1
NS01,2,19,Female,R,58,continuous,2,8,4603625,4606408,trial,7195,6.02,1,5500,5.42,2,100,2783,4603382,4603710,330,3689,676.5,566.7,left,4603625,4603710,85,0.0305425799496946,1
NS01,2,19,Female,R,58,continuous,2,8,4603625,4606408,trial,7195,6.02,1,5500,5.42,2,100,2783,4603756,4603860,106,3700,990.3,533.2,,4603756,4603860,104,0.0373697448796263,1
NS01,2,19,Female,R,58,continuous,2,8,4603625,4606408,trial,7195,6.02,1,5500,5.42,2,100,2783,4603908,4604166,260,3567,518,524.4,left,4603908,4604166,258,0.0927057132590729,1
NS01,2,19,Female,R,58,continuous,2,8,4603625,4606408,trial,7195,6.02,1,5500,5.42,2,100,2783,4604184,4604380,198,3443,498.5,485.7,left,4604184,4604380,196,0.0704275961192957,1
NS01,2,19,Female,R,58,continuous,2,8,4603625,4606408,trial,7195,6.02,1,5500,5.42,2,100,2783,4604396,4604752,358,3255,474.7,538.6,left,4604396,4604752,356,0.127919511318721,1
NS01,2,19,Female,R,58,continuous,2,8,4603625,4606408,trial,7195,6.02,1,5500,5.42,2,100,2783,4604818,4605074,258,3318,1386.7,604.1,right,4604818,4605074,256,0.0919870643190801,1
NS01,2,19,Female,R,58,continuous,2,8,4603625,4606408,trial,7195,6.02,1,5500,5.42,2,100,2783,4605118,4605338,222,3471,1446.7,988.4,,4605118,4605338,220,0.0790513833992095,1
NS01,2,19,Female,R,58,continuous,2,8,4603625,4606408,trial,7195,6.02,1,5500,5.42,2,100,2783,4605412,4605620,210,3501,553.6,527.3,left,4605412,4605620,208,0.0747394897592526,1
NS01,2,19,Female,R,58,continuous,2,8,4603625,4606408,trial,7195,6.02,1,5500,5.42,2,100,2783,4605640,4605842,204,3495,466.1,512.6,left,4605640,4605842,202,0.0725835429392742,1
NS01,2,19,Female,R,58,continuous,2,8,4603625,4606408,trial,7195,6.02,1,5500,5.42,2,100,2783,4605860,4606112,254,3447,406.7,492.5,left,4605860,4606112,252,0.0905497664390945,1
NS01,2,19,Female,R,58,continuous,2,8,4603625,4606408,trial,7195,6.02,1,5500,5.42,2,100,2783,4606130,4606236,108,3414,389,549.6,left,4606130,4606236,106,0.0380883938196191,1
NS01,2,19,Female,R,58,continuous,2,8,4603625,4606408,trial,7195,6.02,1,5500,5.42,2,100,2783,4606270,4606664,396,3468,577.9,650.9,left,4606270,4606408,138,0.0495867768595041,1
NS01,2,19,Female,R,58,continuous,2,8,4603625,4606408,postResponse,7195,6.02,1,5500,5.42,2,100,2783,4606690,4606744,56,3529,705.1,509.7,left,4606408,4606408,0,0,0
NS01,2,19,Female,R,2,binary,1,2,4338171,4340638,trial,7019,5.2,2,5520,5.33,3,2,2467,4337898,4338328,432,3672,934.6,539.9,,4338171,4338328,157,0.0636400486420754,1
NS01,2,19,Female,R,2,binary,1,2,4338171,4340638,trial,7019,5.2,2,5520,5.33,3,2,2467,4338380,4338682,304,3689,1383.8,604.4,right,4338380,4338682,302,0.122415889744629,1
NS01,2,19,Female,R,2,binary,1,2,4338171,4340638,trial,7019,5.2,2,5520,5.33,3,2,2467,4338750,4339030,282,3345,477.2,562.2,left,4338750,4339030,280,0.113498175922173,1
NS01,2,19,Female,R,2,binary,1,2,4338171,4340638,trial,7019,5.2,2,5520,5.33,3,2,2467,4339048,4339216,170,3218,535.8,593.8,left,4339048,4339216,168,0.0680989055533036,1
NS01,2,19,Female,R,2,binary,1,2,4338171,4340638,trial,7019,5.2,2,5520,5.33,3,2,2467,4339280,4339770,492,3343,1424.5,593.4,right,4339280,4339770,490,0.198621807863802,1
NS01,2,19,Female,R,2,binary,1,2,4338171,4340638,trial,7019,5.2,2,5520,5.33,3,2,2467,4339796,4340200,406,3378,1598.4,530.7,right,4339796,4340200,404,0.163761653830563,1
NS01,2,19,Female,R,2,binary,1,2,4338171,4340638,trial,7019,5.2,2,5520,5.33,3,2,2467,4340250,4340522,274,3436,1435.5,1021.3,,4340250,4340522,272,0.110255370895825,1
NS01,2,19,Female,R,2,binary,1,2,4338171,4340638,trial,7019,5.2,2,5520,5.33,3,2,2467,4340566,4340926,362,3575,1392.4,588.6,right,4340566,4340638,72,0.0291852452371301,1
NS01,2,19,Female,R,87,continuous,2,37,4745794,4748960,trial,8158,6.53,7,5622,6.33,7,10,3166,4745527,4745821,296,3526,777.9,459.4,,4745794,4745821,27,0.00852811118130133,1
NS01,2,19,Female,R,87,continuous,2,37,4745794,4748960,trial,8158,6.53,7,5622,6.33,7,10,3166,4745839,4745989,152,3662,706.3,467.3,left,4745839,4745989,150,0.047378395451674,1
NS01,2,19,Female,R,87,continuous,2,37,4745794,4748960,trial,8158,6.53,7,5622,6.33,7,10,3166,4746027,4746173,148,3682,440.2,550.7,left,4746027,4746173,146,0.0461149715729627,1
NS01,2,19,Female,R,87,continuous,2,37,4745794,4748960,trial,8158,6.53,7,5622,6.33,7,10,3166,4746193,4746395,204,3608,416.8,488.4,left,4746193,4746395,202,0.063802905874921,1
NS01,2,19,Female,R,87,continuous,2,37,4745794,4748960,trial,8158,6.53,7,5622,6.33,7,10,3166,4746467,4746823,358,3685,1452.1,557.7,right,4746467,4746823,356,0.112444725205306,1
NS01,2,19,Female,R,87,continuous,2,37,4745794,4748960,trial,8158,6.53,7,5622,6.33,7,10,3166,4746847,4747153,308,3654,1549.4,498.4,right,4746847,4747153,306,0.096651926721415,1
NS01,2,19,Female,R,87,continuous,2,37,4745794,4748960,trial,8158,6.53,7,5622,6.33,7,10,3166,4747189,4747325,138,3597,1374.2,639.9,right,4747189,4747325,136,0.0429564118761845,1
NS01,2,19,Female,R,87,continuous,2,37,4745794,4748960,trial,8158,6.53,7,5622,6.33,7,10,3166,4747371,4747579,210,3537,951.3,947.9,likertHorizontal,4747371,4747579,208,0.065698041692988,1
NS01,2,19,Female,R,87,continuous,2,37,4745794,4748960,trial,8158,6.53,7,5622,6.33,7,10,3166,4747639,4747877,240,3500,433.3,536.7,left,4747639,4747877,238,0.0751737207833228,1
NS01,2,19,Female,R,87,continuous,2,37,4745794,4748960,trial,8158,6.53,7,5622,6.33,7,10,3166,4747897,4748251,356,3442,418.3,478.8,left,4747897,4748251,354,0.111813013265951,1
NS01,2,19,Female,R,87,continuous,2,37,4745794,4748960,trial,8158,6.53,7,5622,6.33,7,10,3166,4748299,4748721,424,3455,587.5,943.6,,4748299,4748721,422,0.133291219204043,1
NS01,2,19,Female,R,87,continuous,2,37,4745794,4748960,trial,8158,6.53,7,5622,6.33,7,10,3166,4748793,4749131,340,3509,1470.6,547.8,right,4748793,4748960,167,0.0527479469361971,1
NS01,2,19,Female,R,53,continuous,2,3,4581008,4585241,trial,2036,5.8,6,5726,6.23,7,73,4233,4580758,4581200,444,3662,620.2,488.3,left,4581008,4581200,192,0.0453579021970234,1
NS01,2,19,Female,R,53,continuous,2,3,4581008,4585241,trial,2036,5.8,6,5726,6.23,7,73,4233,4581224,4581414,192,3647,518.3,546.1,left,4581224,4581414,190,0.0448854240491377,1
NS01,2,19,Female,R,53,continuous,2,3,4581008,4585241,trial,2036,5.8,6,5726,6.23,7,73,4233,4581482,4581862,382,3451,1423.8,573.3,right,4581482,4581862,380,0.0897708480982755,1
NS01,2,19,Female,R,53,continuous,2,3,4581008,4585241,trial,2036,5.8,6,5726,6.23,7,73,4233,4581914,4582122,210,3406,914.4,973.2,likertHorizontal,4581914,4582122,208,0.0491377273801087,1
NS01,2,19,Female,R,53,continuous,2,3,4581008,4585241,trial,2036,5.8,6,5726,6.23,7,73,4233,4582184,4582340,158,3410,447.3,621.9,left,4582184,4582340,156,0.0368532955350815,1
NS01,2,19,Female,R,53,continuous,2,3,4581008,4585241,trial,2036,5.8,6,5726,6.23,7,73,4233,4582364,4582462,100,3475,510.2,551.9,left,4582364,4582462,98,0.0231514292463974,1
NS01,2,19,Female,R,53,continuous,2,3,4581008,4585241,trial,2036,5.8,6,5726,6.23,7,73,4233,4582588,4582746,160,3465,533.3,550.7,left,4582588,4582746,158,0.0373257736829672,1
NS01,2,19,Female,R,53,continuous,2,3,4581008,4585241,trial,2036,5.8,6,5726,6.23,7,73,4233,4582810,4583154,346,3570,1410.3,590.7,right,4582810,4583154,344,0.0812662414363336,1
NS01,2,19,Female,R,53,continuous,2,3,4581008,4585241,trial,2036,5.8,6,5726,6.23,7,73,4233,4583222,4583416,196,3432,563.9,578.4,left,4583222,4583416,194,0.0458303803449091,1
NS01,2,19,Female,R,53,continuous,2,3,4581008,4585241,trial,2036,5.8,6,5726,6.23,7,73,4233,4583434,4583596,164,3389,535.4,553.9,left,4583434,4583596,162,0.0382707299787385,1
NS01,2,19,Female,R,53,continuous,2,3,4581008,4585241,trial,2036,5.8,6,5726,6.23,7,73,4233,4583648,4584004,358,3455,1061.5,983.9,likertHorizontal,4583648,4584004,356,0.0841011103236475,1
NS01,2,19,Female,R,53,continuous,2,3,4581008,4585241,trial,2036,5.8,6,5726,6.23,7,73,4233,4584028,4584256,230,3562,1079.6,956.7,likertHorizontal,4584028,4584256,228,0.0538625088589653,1
NS01,2,19,Female,R,53,continuous,2,3,4581008,4585241,trial,2036,5.8,6,5726,6.23,7,73,4233,4584282,4584626,346,3638,1225.5,942.9,,4584282,4584626,344,0.0812662414363336,1
NS01,2,19,Female,R,53,continuous,2,3,4581008,4585241,trial,2036,5.8,6,5726,6.23,7,73,4233,4584696,4584852,158,3623,541.3,554,left,4584696,4584852,156,0.0368532955350815,1
NS01,2,19,Female,R,53,continuous,2,3,4581008,4585241,trial,2036,5.8,6,5726,6.23,7,73,4233,4584912,4585186,276,3601,1196,879.6,,4584912,4585186,274,0.0647295062603355,1
NS01,2,19,Female,R,53,continuous,2,3,4581008,4585241,trial,2036,5.8,6,5726,6.23,7,73,4233,4585210,4585444,236,3618,1171.6,951.4,likertHorizontal,4585210,4585241,31,0.00732341129222774,1
NS01,2,19,Female,R,53,continuous,2,3,4581008,4585241,postResponse,2036,5.8,6,5726,6.23,7,73,4233,4585524,4585572,50,3613,662.6,493,left,4585241,4585241,0,0,0
NS01,2,19,Female,R,74,continuous,2,24,4674076,4675960,fixationCross,2635,5.22,3,5731,5.39,7,100,1884,4673814,4673938,126,3428,826.2,539.5,,4674076,4674076,0,0,0
NS01,2,19,Female,R,74,continuous,2,24,4674076,4675960,trial,2635,5.22,3,5731,5.39,7,100,1884,4673964,4674232,270,3572,698.6,509.7,left,4674076,4674232,156,0.0828025477707006,1
NS01,2,19,Female,R,74,continuous,2,24,4674076,4675960,trial,2635,5.22,3,5731,5.39,7,100,1884,4674272,4674470,200,3574,438.4,579.3,left,4674272,4674470,198,0.105095541401274,1
NS01,2,19,Female,R,74,continuous,2,24,4674076,4675960,trial,2635,5.22,3,5731,5.39,7,100,1884,4674482,4674604,124,3392,410.2,589.9,left,4674482,4674604,122,0.064755838641189,1
NS01,2,19,Female,R,74,continuous,2,24,4674076,4675960,trial,2635,5.22,3,5731,5.39,7,100,1884,4674670,4674972,304,3349,1365.3,586.8,right,4674670,4674972,302,0.160297239915074,1
NS01,2,19,Female,R,74,continuous,2,24,4674076,4675960,trial,2635,5.22,3,5731,5.39,7,100,1884,4674994,4675302,310,3367,1460.4,661.1,right,4674994,4675302,308,0.16348195329087,1
NS01,2,19,Female,R,74,continuous,2,24,4674076,4675960,trial,2635,5.22,3,5731,5.39,7,100,1884,4675348,4675594,248,3309,1307.3,961.6,,4675348,4675594,246,0.130573248407643,1
NS01,2,19,Female,R,74,continuous,2,24,4674076,4675960,trial,2635,5.22,3,5731,5.39,7,100,1884,4675614,4675712,100,3375,1422.1,975.7,,4675614,4675712,98,0.0520169851380043,1
NS01,2,19,Female,R,74,continuous,2,24,4674076,4675960,trial,2635,5.22,3,5731,5.39,7,100,1884,4675788,4675930,144,3507,447.3,560.1,left,4675788,4675930,142,0.0753715498938429,1
NS01,2,19,Female,R,74,continuous,2,24,4674076,4675960,trial,2635,5.22,3,5731,5.39,7,100,1884,4675946,4676190,246,3484,418.6,586.2,left,4675946,4675960,14,0.00743099787685775,1
NS01,2,19,Female,R,24,binary,1,24,4403456,4406206,trial,5849,6.65,7,5875,6.03,5,1,2750,4403204,4403516,314,3596,1429.3,531.4,right,4403456,4403516,60,0.0218181818181818,1
NS01,2,19,Female,R,24,binary,1,24,4403456,4406206,trial,5849,6.65,7,5875,6.03,5,1,2750,4403562,4403688,128,3671,971,527.1,,4403562,4403688,126,0.0458181818181818,1
NS01,2,19,Female,R,24,binary,1,24,4403456,4406206,trial,5849,6.65,7,5875,6.03,5,1,2750,4403734,4404304,572,3400,543.3,529.9,left,4403734,4404304,570,0.207272727272727,1
NS01,2,19,Female,R,24,binary,1,24,4403456,4406206,trial,5849,6.65,7,5875,6.03,5,1,2750,4404316,4404628,314,3232,504.8,549.6,left,4404316,4404628,312,0.113454545454545,1
NS01,2,19,Female,R,24,binary,1,24,4403456,4406206,trial,5849,6.65,7,5875,6.03,5,1,2750,4404646,4404818,174,3189,550.6,501.8,left,4404646,4404818,172,0.0625454545454545,1
NS01,2,19,Female,R,24,binary,1,24,4403456,4406206,trial,5849,6.65,7,5875,6.03,5,1,2750,4404844,4405142,300,3163,468.2,590.9,left,4404844,4405142,298,0.108363636363636,1
NS01,2,19,Female,R,24,binary,1,24,4403456,4406206,trial,5849,6.65,7,5875,6.03,5,1,2750,4405216,4405486,272,3169,1481.7,491.8,right,4405216,4405486,270,0.0981818181818182,1
NS01,2,19,Female,R,24,binary,1,24,4403456,4406206,trial,5849,6.65,7,5875,6.03,5,1,2750,4405510,4405772,264,3164,1437.7,387.8,right,4405510,4405772,262,0.0952727272727273,1
NS01,2,19,Female,R,24,binary,1,24,4403456,4406206,postResponse,5849,6.65,7,5875,6.03,5,1,2750,4405852,4406536,686,3075,471.8,551.2,left,4405852,4406206,354,0.128727272727273,1
NS01,2,19,Female,R,90,continuous,2,40,4756827,4759378,fixationCross,7460,6.81,4,5950,5.99,7,100,2551,4756575,4756797,224,3622,592.1,433.4,left,4756827,4756827,0,0,0
NS01,2,19,Female,R,90,continuous,2,40,4756827,4759378,trial,7460,6.81,4,5950,5.99,7,100,2551,4756821,4757173,354,3708,492.1,490,left,4756827,4757173,346,0.135633085064681,1
NS01,2,19,Female,R,90,continuous,2,40,4756827,4759378,trial,7460,6.81,4,5950,5.99,7,100,2551,4757197,4757319,124,3603,486.3,628.7,left,4757197,4757319,122,0.0478243825950608,1
NS01,2,19,Female,R,90,continuous,2,40,4756827,4759378,trial,7460,6.81,4,5950,5.99,7,100,2551,4757385,4757601,218,3597,1361.2,584.9,right,4757385,4757601,216,0.0846726773814191,1
NS01,2,19,Female,R,90,continuous,2,40,4756827,4759378,trial,7460,6.81,4,5950,5.99,7,100,2551,4757625,4757941,318,3628,1537.7,662,right,4757625,4757941,316,0.123872990983928,1
NS01,2,19,Female,R,90,continuous,2,40,4756827,4759378,trial,7460,6.81,4,5950,5.99,7,100,2551,4757959,4758241,284,3610,1592.5,634.1,right,4757959,4758241,282,0.110544884359075,1
NS01,2,19,Female,R,90,continuous,2,40,4756827,4759378,trial,7460,6.81,4,5950,5.99,7,100,2551,4758297,4758439,144,3532,1040.3,941.5,likertHorizontal,4758297,4758439,142,0.0556644453155625,1
NS01,2,19,Female,R,90,continuous,2,40,4756827,4759378,trial,7460,6.81,4,5950,5.99,7,100,2551,4758503,4758693,192,3545,485.8,566.8,left,4758503,4758693,190,0.0744805958447668,1
NS01,2,19,Female,R,90,continuous,2,40,4756827,4759378,trial,7460,6.81,4,5950,5.99,7,100,2551,4758765,4759255,492,3783,1468.8,581.2,right,4758765,4759255,490,0.192081536652293,1
NS01,2,19,Female,R,90,continuous,2,40,4756827,4759378,trial,7460,6.81,4,5950,5.99,7,100,2551,4759279,4759581,304,3826,1611.9,627.3,right,4759279,4759378,99,0.0388083104664837,1
NS01,2,19,Female,R,32,binary,1,32,4449506,4451656,trial,1910,6.71,5,7188,5.5,4,2,2150,4449261,4449819,560,3431,522.8,492.9,left,4449506,4449819,313,0.145581395348837,1
NS01,2,19,Female,R,32,binary,1,32,4449506,4451656,trial,1910,6.71,5,7188,5.5,4,2,2150,4449835,4449935,102,3476,582.4,496.1,left,4449835,4449935,100,0.0465116279069768,1
NS01,2,19,Female,R,32,binary,1,32,4449506,4451656,trial,1910,6.71,5,7188,5.5,4,2,2150,4450001,4450303,304,3521,1447.4,557.7,right,4450001,4450303,302,0.14046511627907,1
NS01,2,19,Female,R,32,binary,1,32,4449506,4451656,trial,1910,6.71,5,7188,5.5,4,2,2150,4450317,4450735,420,3409,1415.3,553.1,right,4450317,4450735,418,0.194418604651163,1
NS01,2,19,Female,R,32,binary,1,32,4449506,4451656,trial,1910,6.71,5,7188,5.5,4,2,2150,4450747,4451105,360,3229,1449.8,577.2,right,4450747,4451105,358,0.166511627906977,1
NS01,2,19,Female,R,32,binary,1,32,4449506,4451656,trial,1910,6.71,5,7188,5.5,4,2,2150,4451181,4451371,192,3075,539.4,559.9,left,4451181,4451371,190,0.0883720930232558,1
NS01,2,19,Female,R,32,binary,1,32,4449506,4451656,trial,1910,6.71,5,7188,5.5,4,2,2150,4451391,4451521,132,3042,595.5,492.5,left,4451391,4451521,130,0.0604651162790698,1
NS01,2,19,Female,R,32,binary,1,32,4449506,4451656,trial,1910,6.71,5,7188,5.5,4,2,2150,4451583,4451925,344,3169,1417.2,531.9,right,4451583,4451656,73,0.033953488372093,1
NS01,2,19,Female,R,96,continuous,2,46,4777111,4779844,trial,7496,5.92,7,7192,5.77,5,13,2733,4776847,4777265,420,3665,776.1,511.2,,4777111,4777265,154,0.0563483351628247,1
NS01,2,19,Female,R,96,continuous,2,46,4777111,4779844,trial,7496,5.92,7,7192,5.77,5,13,2733,4777303,4777541,240,3692,574.4,586.1,left,4777303,4777541,238,0.0870837907061837,1
NS01,2,19,Female,R,96,continuous,2,46,4777111,4779844,trial,7496,5.92,7,7192,5.77,5,13,2733,4777563,4777815,254,3545,450.8,551,left,4777563,4777815,252,0.0922063666300768,1
NS01,2,19,Female,R,96,continuous,2,46,4777111,4779844,trial,7496,5.92,7,7192,5.77,5,13,2733,4777885,4778105,222,3564,1439.4,588.6,right,4777885,4778105,220,0.0804976216611782,1
NS01,2,19,Female,R,96,continuous,2,46,4777111,4779844,trial,7496,5.92,7,7192,5.77,5,13,2733,4778131,4778307,178,3572,1514.7,457.2,right,4778131,4778307,176,0.0643980973289426,1
NS01,2,19,Female,R,96,continuous,2,46,4777111,4779844,trial,7496,5.92,7,7192,5.77,5,13,2733,4778329,4778537,210,3663,1418.4,495.7,right,4778329,4778537,208,0.0761068422978412,1
NS01,2,19,Female,R,96,continuous,2,46,4777111,4779844,trial,7496,5.92,7,7192,5.77,5,13,2733,4778569,4778735,168,3728,1405.4,671.8,right,4778569,4778735,166,0.0607391145261617,1
NS01,2,19,Female,R,96,continuous,2,46,4777111,4779844,trial,7496,5.92,7,7192,5.77,5,13,2733,4778801,4779011,212,3689,664.9,934.2,,4778801,4779011,210,0.0768386388583974,1
NS01,2,19,Female,R,96,continuous,2,46,4777111,4779844,trial,7496,5.92,7,7192,5.77,5,13,2733,4779055,4779353,300,3550,518.4,558.9,left,4779055,4779353,298,0.109037687522869,1
NS01,2,19,Female,R,96,continuous,2,46,4777111,4779844,trial,7496,5.92,7,7192,5.77,5,13,2733,4779371,4779681,312,3534,572.6,543.1,left,4779371,4779681,310,0.113428466886206,1
NS01,2,19,Female,R,96,continuous,2,46,4777111,4779844,trial,7496,5.92,7,7192,5.77,5,13,2733,4779709,4780027,320,3497,440.3,614.2,left,4779709,4779844,135,0.0493962678375412,1
NS01,2,19,Female,R,57,continuous,2,7,4597941,4602975,trial,4536,6.01,7,7248,5.22,5,29,5034,4597698,4598092,396,3697,698.9,486.5,left,4597941,4598092,151,0.0299960270162892,1
NS01,2,19,Female,R,57,continuous,2,7,4597941,4602975,trial,4536,6.01,7,7248,5.22,5,29,5034,4598126,4598302,178,3654,503,533.3,left,4598126,4598302,176,0.0349622566547477,1
NS01,2,19,Female,R,57,continuous,2,7,4597941,4602975,trial,4536,6.01,7,7248,5.22,5,29,5034,4598330,4598598,270,3593,499.1,681.4,left,4598330,4598598,268,0.0532379817242749,1
NS01,2,19,Female,R,57,continuous,2,7,4597941,4602975,trial,4536,6.01,7,7248,5.22,5,29,5034,4598666,4598950,286,3650,1402.2,575.6,right,4598666,4598950,284,0.0564163686928884,1
NS01,2,19,Female,R,57,continuous,2,7,4597941,4602975,trial,4536,6.01,7,7248,5.22,5,29,5034,4598968,4599388,422,3575,1454.5,592.8,right,4598968,4599388,420,0.0834326579261025,1
NS01,2,19,Female,R,57,continuous,2,7,4597941,4602975,trial,4536,6.01,7,7248,5.22,5,29,5034,4599408,4599726,320,3296,1446,519.6,right,4599408,4599726,318,0.0631704410011919,1
NS01,2,19,Female,R,57,continuous,2,7,4597941,4602975,trial,4536,6.01,7,7248,5.22,5,29,5034,4599776,4599922,148,3131,1447.1,1010.1,,4599776,4599922,146,0.0290027810885975,1
NS01,2,19,Female,R,57,continuous,2,7,4597941,4602975,trial,4536,6.01,7,7248,5.22,5,29,5034,4599998,4600230,234,3189,518.3,535.3,left,4599998,4600230,232,0.0460866110448947,1
NS01,2,19,Female,R,57,continuous,2,7,4597941,4602975,trial,4536,6.01,7,7248,5.22,5,29,5034,4600260,4600618,360,3328,487.6,675.2,left,4600260,4600618,358,0.0711164084227255,1
NS01,2,19,Female,R,57,continuous,2,7,4597941,4602975,trial,4536,6.01,7,7248,5.22,5,29,5034,4600638,4600764,128,3335,527.1,605.9,left,4600638,4600764,126,0.0250297973778308,1
NS01,2,19,Female,R,57,continuous,2,7,4597941,4602975,trial,4536,6.01,7,7248,5.22,5,29,5034,4600900,4601016,118,3419,978,977.5,likertHorizontal,4600900,4601016,116,0.0230433055224474,1
NS01,2,19,Female,R,57,continuous,2,7,4597941,4602975,trial,4536,6.01,7,7248,5.22,5,29,5034,4601062,4601244,184,3614,1418.1,1010.6,,4601062,4601244,182,0.0361541517679778,1
NS01,2,19,Female,R,57,continuous,2,7,4597941,4602975,trial,4536,6.01,7,7248,5.22,5,29,5034,4601298,4601400,104,3741,1470.8,593.4,right,4601298,4601400,102,0.0202622169249106,1
NS01,2,19,Female,R,57,continuous,2,7,4597941,4602975,trial,4536,6.01,7,7248,5.22,5,29,5034,4601468,4601720,254,3623,554.2,580.4,left,4601468,4601720,252,0.0500595947556615,1
NS01,2,19,Female,R,57,continuous,2,7,4597941,4602975,trial,4536,6.01,7,7248,5.22,5,29,5034,4601764,4601988,226,3601,865.4,995.4,likertHorizontal,4601764,4601988,224,0.044497417560588,1
NS01,2,19,Female,R,57,continuous,2,7,4597941,4602975,trial,4536,6.01,7,7248,5.22,5,29,5034,4602020,4602182,164,3662,654,952.2,,4602020,4602182,162,0.032181168057211,1
NS01,2,19,Female,R,57,continuous,2,7,4597941,4602975,trial,4536,6.01,7,7248,5.22,5,29,5034,4602236,4602476,242,3704,547.6,563.5,left,4602236,4602476,240,0.0476758045292014,1
NS01,2,19,Female,R,57,continuous,2,7,4597941,4602975,trial,4536,6.01,7,7248,5.22,5,29,5034,4602520,4602844,326,3832,726.5,941.7,,4602520,4602844,324,0.0643623361144219,1
NS01,2,19,Female,R,57,continuous,2,7,4597941,4602975,trial,4536,6.01,7,7248,5.22,5,29,5034,4602884,4603204,322,3795,491.1,993,,4602884,4602975,91,0.0180770758839889,1
NS01,2,19,Female,R,57,continuous,2,7,4597941,4602975,postResponse,4536,6.01,7,7248,5.22,5,29,5034,4603280,4603308,30,3703,680.6,573.7,left,4602975,4602975,0,0,0
NS01,2,19,Female,R,7,binary,1,7,4353705,4355555,trial,8117,6.02,4,7291,6.35,7,2,1850,4353462,4353872,412,3509,774.5,545.5,,4353705,4353872,167,0.0902702702702703,1
NS01,2,19,Female,R,7,binary,1,7,4353705,4355555,trial,8117,6.02,4,7291,6.35,7,2,1850,4353908,4354130,224,3653,534,503.7,left,4353908,4354130,222,0.12,1
NS01,2,19,Female,R,7,binary,1,7,4353705,4355555,trial,8117,6.02,4,7291,6.35,7,2,1850,4354194,4354424,232,3638,1430,523.3,right,4354194,4354424,230,0.124324324324324,1
NS01,2,19,Female,R,7,binary,1,7,4353705,4355555,trial,8117,6.02,4,7291,6.35,7,2,1850,4354626,4354918,294,3643,1441.1,517.8,right,4354626,4354918,292,0.157837837837838,1
NS01,2,19,Female,R,7,binary,1,7,4353705,4355555,trial,8117,6.02,4,7291,6.35,7,2,1850,4354988,4355468,482,3474,529.8,505.5,left,4354988,4355468,480,0.259459459459459,1
NS01,2,19,Female,R,7,binary,1,7,4353705,4355555,postResponse,8117,6.02,4,7291,6.35,7,2,1850,4355480,4355888,410,3398,539,476.7,left,4355480,4355555,75,0.0405405405405405,1
NS01,2,19,Female,R,39,binary,1,39,4470257,4472790,trial,2217,6.24,6,7354,5.51,3,1,2533,4470059,4470433,376,3464,691.4,499,left,4470257,4470433,176,0.0694828266877221,1
NS01,2,19,Female,R,39,binary,1,39,4470257,4472790,trial,2217,6.24,6,7354,5.51,3,1,2533,4470461,4470593,134,3455,543.7,594,left,4470461,4470593,132,0.0521121200157916,1
NS01,2,19,Female,R,39,binary,1,39,4470257,4472790,trial,2217,6.24,6,7354,5.51,3,1,2533,4470627,4470969,344,3210,357.8,423.8,left,4470627,4470969,342,0.13501776549546,1
NS01,2,19,Female,R,39,binary,1,39,4470257,4472790,trial,2217,6.24,6,7354,5.51,3,1,2533,4470995,4471183,190,3174,462.3,548,left,4470995,4471183,188,0.0742202921437031,1
NS01,2,19,Female,R,39,binary,1,39,4470257,4472790,trial,2217,6.24,6,7354,5.51,3,1,2533,4471253,4471543,292,3266,1432.7,549.6,right,4471253,4471543,290,0.114488748519542,1
NS01,2,19,Female,R,39,binary,1,39,4470257,4472790,trial,2217,6.24,6,7354,5.51,3,1,2533,4471563,4471817,256,3236,1342.1,505.1,right,4471563,4471817,254,0.100276352151599,1
NS01,2,19,Female,R,39,binary,1,39,4470257,4472790,trial,2217,6.24,6,7354,5.51,3,1,2533,4471839,4471949,112,3223,1412.1,561.9,right,4471839,4471949,110,0.0434267666798263,1
NS01,2,19,Female,R,39,binary,1,39,4470257,4472790,trial,2217,6.24,6,7354,5.51,3,1,2533,4472021,4472321,302,3203,495.8,614.6,left,4472021,4472321,300,0.118436636399526,1
NS01,2,19,Female,R,39,binary,1,39,4470257,4472790,trial,2217,6.24,6,7354,5.51,3,1,2533,4472343,4472505,164,3320,595.9,604.9,left,4472343,4472505,162,0.0639557836557442,1
NS01,2,19,Female,R,39,binary,1,39,4470257,4472790,trial,2217,6.24,6,7354,5.51,3,1,2533,4472547,4472855,310,3372,400.7,407.1,left,4472547,4472790,243,0.0959336754836163,1
NS01,2,19,Female,R,39,binary,1,39,4470257,4472790,postResponse,2217,6.24,6,7354,5.51,3,1,2533,4473001,4473123,124,3433,573.4,500,left,4472790,4472790,0,0,0
NS01,2,19,Female,R,44,binary,1,44,4484973,4486873,trial,7900,6.5,7,7477,6.12,7,2,1900,4484711,4485167,458,3157,638.9,527.3,left,4484973,4485167,194,0.102105263157895,1
NS01,2,19,Female,R,44,binary,1,44,4484973,4486873,trial,7900,6.5,7,7477,6.12,7,2,1900,4485199,4485541,344,3261,448.4,558.1,left,4485199,4485541,342,0.18,1
NS01,2,19,Female,R,44,binary,1,44,4484973,4486873,trial,7900,6.5,7,7477,6.12,7,2,1900,4485555,4485641,88,3208,416.4,553,left,4485555,4485641,86,0.0452631578947369,1
NS01,2,19,Female,R,44,binary,1,44,4484973,4486873,trial,7900,6.5,7,7477,6.12,7,2,1900,4485709,4486039,332,3343,1390.7,524.7,right,4485709,4486039,330,0.173684210526316,1
NS01,2,19,Female,R,44,binary,1,44,4484973,4486873,trial,7900,6.5,7,7477,6.12,7,2,1900,4486059,4486201,144,3368,1463.8,516.6,right,4486059,4486201,142,0.0747368421052632,1
NS01,2,19,Female,R,44,binary,1,44,4484973,4486873,trial,7900,6.5,7,7477,6.12,7,2,1900,4486221,4486613,394,3296,1359.6,517.3,right,4486221,4486613,392,0.206315789473684,1
NS01,2,19,Female,R,44,binary,1,44,4484973,4486873,trial,7900,6.5,7,7477,6.12,7,2,1900,4486629,4487117,490,3363,1417.6,498.3,right,4486629,4486873,244,0.128421052631579,1
NS01,2,19,Female,R,13,binary,1,13,4370355,4372322,trial,6250,6.32,1,7500,5.33,4,2,1967,4370110,4370550,442,3416,478.4,572.1,left,4370355,4370550,195,0.0991357397051347,1
NS01,2,19,Female,R,13,binary,1,13,4370355,4372322,trial,6250,6.32,1,7500,5.33,4,2,1967,4370574,4370900,328,3335,509.3,498.2,left,4370574,4370900,326,0.165734621250635,1
NS01,2,19,Female,R,13,binary,1,13,4370355,4372322,trial,6250,6.32,1,7500,5.33,4,2,1967,4370968,4371328,362,3268,1416.2,588.6,right,4370968,4371328,360,0.183019827147941,1
NS01,2,19,Female,R,13,binary,1,13,4370355,4372322,trial,6250,6.32,1,7500,5.33,4,2,1967,4371358,4371646,290,3418,1531.3,677.1,right,4371358,4371646,288,0.146415861718353,1
NS01,2,19,Female,R,13,binary,1,13,4370355,4372322,trial,6250,6.32,1,7500,5.33,4,2,1967,4371686,4371922,238,3417,1497.5,484.8,right,4371686,4371922,236,0.11997966446365,1
NS01,2,19,Female,R,13,binary,1,13,4370355,4372322,trial,6250,6.32,1,7500,5.33,4,2,1967,4371994,4372264,272,3330,520.3,514.6,left,4371994,4372264,270,0.137264870360956,1
NS01,2,19,Female,R,13,binary,1,13,4370355,4372322,postResponse,6250,6.32,1,7500,5.33,4,2,1967,4372326,4372674,350,3465,1383.2,613.6,right,4372322,4372322,0,0,0
NS01,2,19,Female,R,56,continuous,2,6,4593308,4597292,fixationCross,7190,5.55,2,8130,6.58,5,58,3984,4593064,4593264,202,3520,644.4,480.1,left,4593308,4593308,0,0,0
NS01,2,19,Female,R,56,continuous,2,6,4593308,4597292,trial,7190,5.55,2,8130,6.58,5,58,3984,4593286,4593478,194,3720,555.6,487.5,left,4593308,4593478,170,0.0426706827309237,1
NS01,2,19,Female,R,56,continuous,2,6,4593308,4597292,trial,7190,5.55,2,8130,6.58,5,58,3984,4593502,4593712,212,3649,543.6,580.5,left,4593502,4593712,210,0.052710843373494,1
NS01,2,19,Female,R,56,continuous,2,6,4593308,4597292,trial,7190,5.55,2,8130,6.58,5,58,3984,4593780,4594002,224,3499,1442.2,528.3,right,4593780,4594002,222,0.0557228915662651,1
NS01,2,19,Female,R,56,continuous,2,6,4593308,4597292,trial,7190,5.55,2,8130,6.58,5,58,3984,4594014,4594260,248,3401,1477,523.6,right,4594014,4594260,246,0.0617469879518072,1
NS01,2,19,Female,R,56,continuous,2,6,4593308,4597292,trial,7190,5.55,2,8130,6.58,5,58,3984,4594284,4594420,138,3340,1392,612.8,right,4594284,4594420,136,0.034136546184739,1
NS01,2,19,Female,R,56,continuous,2,6,4593308,4597292,trial,7190,5.55,2,8130,6.58,5,58,3984,4594490,4594716,228,3247,547.7,576.1,left,4594490,4594716,226,0.0567269076305221,1
NS01,2,19,Female,R,56,continuous,2,6,4593308,4597292,trial,7190,5.55,2,8130,6.58,5,58,3984,4594732,4594944,214,3248,509.6,574.4,left,4594732,4594944,212,0.0532128514056225,1
NS01,2,19,Female,R,56,continuous,2,6,4593308,4597292,trial,7190,5.55,2,8130,6.58,5,58,3984,4594962,4595348,388,3289,542.9,538.3,left,4594962,4595348,386,0.0968875502008032,1
NS01,2,19,Female,R,56,continuous,2,6,4593308,4597292,trial,7190,5.55,2,8130,6.58,5,58,3984,4595416,4595582,168,3425,1467.1,571.9,right,4595416,4595582,166,0.0416666666666667,1
NS01,2,19,Female,R,56,continuous,2,6,4593308,4597292,trial,7190,5.55,2,8130,6.58,5,58,3984,4595600,4595934,336,3422,1479.6,522.8,right,4595600,4595934,334,0.0838353413654619,1
NS01,2,19,Female,R,56,continuous,2,6,4593308,4597292,trial,7190,5.55,2,8130,6.58,5,58,3984,4595984,4596096,114,3357,1137.1,984.4,likertHorizontal,4595984,4596096,112,0.0281124497991968,1
NS01,2,19,Female,R,56,continuous,2,6,4593308,4597292,trial,7190,5.55,2,8130,6.58,5,58,3984,4596124,4596262,140,3384,1418,1008.7,,4596124,4596262,138,0.0346385542168675,1
NS01,2,19,Female,R,56,continuous,2,6,4593308,4597292,trial,7190,5.55,2,8130,6.58,5,58,3984,4596436,4596548,114,3490,974.8,927.4,likertHorizontal,4596436,4596548,112,0.0281124497991968,1
NS01,2,19,Female,R,56,continuous,2,6,4593308,4597292,trial,7190,5.55,2,8130,6.58,5,58,3984,4596596,4596838,244,3653,1394.1,577.8,right,4596596,4596838,242,0.0607429718875502,1
NS01,2,19,Female,R,56,continuous,2,6,4593308,4597292,trial,7190,5.55,2,8130,6.58,5,58,3984,4596884,4597082,200,3588,1041.9,966.8,likertHorizontal,4596884,4597082,198,0.0496987951807229,1
NS01,2,19,Female,R,56,continuous,2,6,4593308,4597292,trial,7190,5.55,2,8130,6.58,5,58,3984,4597092,4597536,446,3613,1021,968.3,likertHorizontal,4597092,4597292,200,0.0502008032128514,1
NS01,2,19,Female,R,95,continuous,2,45,4773393,4776444,trial,1640,6.16,6,8179,6.48,7,100,3051,4773141,4773681,542,3670,570.2,476.5,left,4773393,4773681,288,0.0943952802359882,1
NS01,2,19,Female,R,95,continuous,2,45,4773393,4776444,trial,1640,6.16,6,8179,6.48,7,100,3051,4773699,4773801,104,3632,616.5,491.1,left,4773699,4773801,102,0.0334316617502458,1
NS01,2,19,Female,R,95,continuous,2,45,4773393,4776444,trial,1640,6.16,6,8179,6.48,7,100,3051,4773865,4774017,154,3611,1478.2,443.8,right,4773865,4774017,152,0.0498197312356604,1
NS01,2,19,Female,R,95,continuous,2,45,4773393,4776444,trial,1640,6.16,6,8179,6.48,7,100,3051,4774037,4774243,208,3603,1427,410.9,right,4774037,4774243,206,0.0675188462799082,1
NS01,2,19,Female,R,95,continuous,2,45,4773393,4776444,trial,1640,6.16,6,8179,6.48,7,100,3051,4774277,4774509,234,3704,1490.9,590.5,right,4774277,4774509,232,0.0760406424123238,1
NS01,2,19,Female,R,95,continuous,2,45,4773393,4776444,trial,1640,6.16,6,8179,6.48,7,100,3051,4774531,4774847,318,3729,1400.3,572.5,right,4774531,4774847,316,0.10357259914782,1
NS01,2,19,Female,R,95,continuous,2,45,4773393,4776444,trial,1640,6.16,6,8179,6.48,7,100,3051,4774859,4775025,168,3692,1432.9,561.6,right,4774859,4775025,166,0.0544083906915765,1
NS01,2,19,Female,R,95,continuous,2,45,4773393,4776444,trial,1640,6.16,6,8179,6.48,7,100,3051,4775091,4775259,170,3600,603.3,513.5,left,4775091,4775259,168,0.0550639134709931,1
NS01,2,19,Female,R,95,continuous,2,45,4773393,4776444,trial,1640,6.16,6,8179,6.48,7,100,3051,4775275,4775495,222,3564,627.7,490.1,left,4775275,4775495,220,0.0721075057358243,1
NS01,2,19,Female,R,95,continuous,2,45,4773393,4776444,trial,1640,6.16,6,8179,6.48,7,100,3051,4775553,4775781,230,3575,1314.3,932.1,,4775553,4775781,228,0.0747295968534907,1
NS01,2,19,Female,R,95,continuous,2,45,4773393,4776444,trial,1640,6.16,6,8179,6.48,7,100,3051,4775805,4775955,152,3633,1422.9,975.9,,4775805,4775955,150,0.0491642084562439,1
NS01,2,19,Female,R,95,continuous,2,45,4773393,4776444,trial,1640,6.16,6,8179,6.48,7,100,3051,4775999,4776313,316,3804,1410.8,527.4,right,4775999,4776313,314,0.102917076368404,1
NS01,2,19,Female,R,95,continuous,2,45,4773393,4776444,trial,1640,6.16,6,8179,6.48,7,100,3051,4776337,4776645,310,3762,1469.4,600.3,right,4776337,4776444,107,0.0350704686987873,1
NS01,2,19,Female,R,67,continuous,2,17,4647925,4649992,trial,2880,5.18,5,8205,6.62,7,100,2067,4647658,4648092,436,3648,626.8,436.5,left,4647925,4648092,167,0.0807934204160619,1
NS01,2,19,Female,R,67,continuous,2,17,4647925,4649992,trial,2880,5.18,5,8205,6.62,7,100,2067,4648122,4648444,324,3579,545.4,544.9,left,4648122,4648444,322,0.155781325592646,1
NS01,2,19,Female,R,67,continuous,2,17,4647925,4649992,trial,2880,5.18,5,8205,6.62,7,100,2067,4648506,4648750,246,3425,1355.1,547.6,right,4648506,4648750,244,0.118045476536043,1
NS01,2,19,Female,R,67,continuous,2,17,4647925,4649992,trial,2880,5.18,5,8205,6.62,7,100,2067,4648768,4649448,682,3472,1436.2,559.1,right,4648768,4649448,680,0.328979196903725,1
NS01,2,19,Female,R,67,continuous,2,17,4647925,4649992,trial,2880,5.18,5,8205,6.62,7,100,2067,4649474,4649706,234,3517,1531.7,667.7,right,4649474,4649706,232,0.112239961296565,1
NS01,2,19,Female,R,67,continuous,2,17,4647925,4649992,trial,2880,5.18,5,8205,6.62,7,100,2067,4649720,4649876,158,3532,1560.7,648.6,right,4649720,4649876,156,0.0754716981132076,1
NS01,2,19,Female,R,67,continuous,2,17,4647925,4649992,postResponse,2880,5.18,5,8205,6.62,7,100,2067,4649946,4650324,380,3370,602.5,531.8,left,4649946,4649992,46,0.0222544750846638,1
NS01,2,19,Female,R,30,binary,1,30,4443706,4445773,trial,7513,5.45,5,8325,5.63,5,2,2067,4443419,4443743,326,3562,1088.7,426,,4443706,4443743,37,0.0179003386550556,1
NS01,2,19,Female,R,30,binary,1,30,4443706,4445773,trial,7513,5.45,5,8325,5.63,5,2,2067,4443773,4443891,120,3705,929.3,522.5,,4443773,4443891,118,0.0570875665215288,1
NS01,2,19,Female,R,30,binary,1,30,4443706,4445773,trial,7513,5.45,5,8325,5.63,5,2,2067,4443933,4444097,166,3646,590.7,543.2,left,4443933,4444097,164,0.0793420416061926,1
NS01,2,19,Female,R,30,binary,1,30,4443706,4445773,trial,7513,5.45,5,8325,5.63,5,2,2067,4444115,4444381,268,3469,513.4,537.6,left,4444115,4444381,266,0.128688921141751,1
NS01,2,19,Female,R,30,binary,1,30,4443706,4445773,trial,7513,5.45,5,8325,5.63,5,2,2067,4444393,4444531,140,3300,507.8,519.7,left,4444393,4444531,138,0.0667634252539913,1
NS01,2,19,Female,R,30,binary,1,30,4443706,4445773,trial,7513,5.45,5,8325,5.63,5,2,2067,4444597,4444823,228,3298,1408.4,580,right,4444597,4444823,226,0.109337203676826,1
NS01,2,19,Female,R,30,binary,1,30,4443706,4445773,trial,7513,5.45,5,8325,5.63,5,2,2067,4444841,4445495,656,3387,1499.4,582.8,right,4444841,4445495,654,0.316400580551524,1
NS01,2,19,Female,R,30,binary,1,30,4443706,4445773,trial,7513,5.45,5,8325,5.63,5,2,2067,4445519,4445635,118,3395,1363.3,606.4,right,4445519,4445635,116,0.0561199806482825,1
NS01,2,19,Female,R,30,binary,1,30,4443706,4445773,postResponse,7513,5.45,5,8325,5.63,5,2,2067,4445703,4446103,402,3293,519.5,555.9,left,4445703,4445773,70,0.0338655055636188,1
NS01,2,19,Female,R,52,continuous,2,2,4574258,4580325,fixationCross,7039,5.93,7,8620,6.04,6,11,6067,4574006,4574114,110,3734,958.5,498.6,,4574258,4574258,0,0,0
NS01,2,19,Female,R,52,continuous,2,2,4574258,4580325,trial,7039,5.93,7,8620,6.04,6,11,6067,4574176,4574470,296,3775,632.6,436.7,left,4574258,4574470,212,0.0349431349925828,1
NS01,2,19,Female,R,52,continuous,2,2,4574258,4580325,trial,7039,5.93,7,8620,6.04,6,11,6067,4574504,4574684,182,3739,498.8,611.9,left,4574504,4574684,180,0.0296686995220043,1
NS01,2,19,Female,R,52,continuous,2,2,4574258,4580325,trial,7039,5.93,7,8620,6.04,6,11,6067,4574752,4574908,158,3727,1471,558.9,right,4574752,4574908,156,0.0257128729190704,1
NS01,2,19,Female,R,52,continuous,2,2,4574258,4580325,trial,7039,5.93,7,8620,6.04,6,11,6067,4574930,4575050,122,3682,1552.2,543.7,right,4574930,4575050,120,0.0197791330146695,1
NS01,2,19,Female,R,52,continuous,2,2,4574258,4580325,trial,7039,5.93,7,8620,6.04,6,11,6067,4575074,4575208,136,3643,1446.5,453.7,right,4575074,4575208,134,0.0220866985330476,1
NS01,2,19,Female,R,52,continuous,2,2,4574258,4580325,trial,7039,5.93,7,8620,6.04,6,11,6067,4575280,4575492,214,3462,475.5,572,left,4575280,4575492,212,0.0349431349925828,1
NS01,2,19,Female,R,52,continuous,2,2,4574258,4580325,trial,7039,5.93,7,8620,6.04,6,11,6067,4575506,4575684,180,3456,466.6,603.8,left,4575506,4575684,178,0.0293390473050931,1
NS01,2,19,Female,R,52,continuous,2,2,4574258,4580325,trial,7039,5.93,7,8620,6.04,6,11,6067,4575730,4575916,188,3509,492,1011.8,,4575730,4575916,186,0.0306576561727378,1
NS01,2,19,Female,R,52,continuous,2,2,4574258,4580325,trial,7039,5.93,7,8620,6.04,6,11,6067,4575988,4576138,152,3592,1417.6,536.5,right,4575988,4576138,150,0.0247239162683369,1
NS01,2,19,Female,R,52,continuous,2,2,4574258,4580325,trial,7039,5.93,7,8620,6.04,6,11,6067,4576170,4576394,226,3596,1440.8,439,right,4576170,4576394,224,0.0369210482940498,1
NS01,2,19,Female,R,52,continuous,2,2,4574258,4580325,trial,7039,5.93,7,8620,6.04,6,11,6067,4576420,4576624,206,3622,1454.8,531.1,right,4576420,4576624,204,0.0336245261249382,1
NS01,2,19,Female,R,52,continuous,2,2,4574258,4580325,trial,7039,5.93,7,8620,6.04,6,11,6067,4576702,4577004,304,3441,514.2,608.8,left,4576702,4577004,302,0.049777484753585,1
NS01,2,19,Female,R,52,continuous,2,2,4574258,4580325,trial,7039,5.93,7,8620,6.04,6,11,6067,4577030,4577286,258,3414,404.5,529.1,left,4577030,4577286,256,0.0421954837646283,1
NS01,2,19,Female,R,52,continuous,2,2,4574258,4580325,trial,7039,5.93,7,8620,6.04,6,11,6067,4577298,4577466,170,3431,376.7,518.4,left,4577298,4577466,168,0.0276907862205373,1
NS01,2,19,Female,R,52,continuous,2,2,4574258,4580325,trial,7039,5.93,7,8620,6.04,6,11,6067,4577512,4577880,370,3511,500.4,973.2,,4577512,4577880,368,0.0606560079116532,1
NS01,2,19,Female,R,52,continuous,2,2,4574258,4580325,trial,7039,5.93,7,8620,6.04,6,11,6067,4577916,4578124,210,3567,708.2,957.2,,4577916,4578124,208,0.0342838305587605,1
NS01,2,19,Female,R,52,continuous,2,2,4574258,4580325,trial,7039,5.93,7,8620,6.04,6,11,6067,4578142,4578348,208,3591,599.1,955.2,,4578142,4578348,206,0.0339541783418494,1
NS01,2,19,Female,R,52,continuous,2,2,4574258,4580325,trial,7039,5.93,7,8620,6.04,6,11,6067,4578392,4578558,168,3621,614.4,609,left,4578392,4578558,166,0.0273611340036262,1
NS01,2,19,Female,R,52,continuous,2,2,4574258,4580325,trial,7039,5.93,7,8620,6.04,6,11,6067,4578578,4578802,226,3653,588.1,659.1,left,4578578,4578802,224,0.0369210482940498,1
NS01,2,19,Female,R,52,continuous,2,2,4574258,4580325,trial,7039,5.93,7,8620,6.04,6,11,6067,4578844,4579014,172,3600,420,442.5,left,4578844,4579014,170,0.0280204384374485,1
NS01,2,19,Female,R,52,continuous,2,2,4574258,4580325,trial,7039,5.93,7,8620,6.04,6,11,6067,4579064,4579472,410,3663,506.9,979.8,,4579064,4579472,408,0.0672490522498764,1
NS01,2,19,Female,R,52,continuous,2,2,4574258,4580325,trial,7039,5.93,7,8620,6.04,6,11,6067,4579512,4579718,208,3655,494.9,562.8,left,4579512,4579718,206,0.0339541783418494,1
NS01,2,19,Female,R,52,continuous,2,2,4574258,4580325,trial,7039,5.93,7,8620,6.04,6,11,6067,4579788,4579934,148,3757,1468.2,542.5,right,4579788,4579934,146,0.0240646118345146,1
NS01,2,19,Female,R,52,continuous,2,2,4574258,4580325,trial,7039,5.93,7,8620,6.04,6,11,6067,4580002,4580520,520,3700,599.6,948.8,,4580002,4580325,323,0.0532388330311521,1
NS01,2,19,Female,R,52,continuous,2,2,4574258,4580325,postResponse,7039,5.93,7,8620,6.04,6,11,6067,4580582,4580658,78,3586,714.9,558.4,left,4580325,4580325,0,0,0
NS01,3,19,female,R,28,continuous,1,28,10370188,10371971,fixationCross,2594,6.05,5,1419,6.54,5,2,1783,10369277,10369691,416,3594,956.9,318.1,,10370188,10370188,0,0,0
NS01,3,19,female,R,28,continuous,1,28,10370188,10371971,fixationCross,2594,6.05,5,1419,6.54,5,2,1783,10369721,10369907,188,3771,984.7,430.5,,10370188,10370188,0,0,0
NS01,3,19,female,R,28,continuous,1,28,10370188,10371971,trial,2594,6.05,5,1419,6.54,5,2,1783,10369925,10370329,406,3622,934.3,483.2,,10370188,10370329,141,0.0790802019068985,1
NS01,3,19,female,R,28,continuous,1,28,10370188,10371971,trial,2594,6.05,5,1419,6.54,5,2,1783,10370387,10370555,170,3514,485.2,519.4,left,10370387,10370555,168,0.0942232192933259,1
NS01,3,19,female,R,28,continuous,1,28,10370188,10371971,trial,2594,6.05,5,1419,6.54,5,2,1783,10370581,10370745,166,3359,417.5,589,left,10370581,10370745,164,0.0919798093101514,1
NS01,3,19,female,R,28,continuous,1,28,10370188,10371971,trial,2594,6.05,5,1419,6.54,5,2,1783,10370811,10371089,280,3074,1449.6,580.2,right,10370811,10371089,278,0.155916993830623,1
NS01,3,19,female,R,28,continuous,1,28,10370188,10371971,trial,2594,6.05,5,1419,6.54,5,2,1783,10371107,10371315,210,2975,1482.1,636.9,right,10371107,10371315,208,0.11665731912507,1
NS01,3,19,female,R,28,continuous,1,28,10370188,10371971,trial,2594,6.05,5,1419,6.54,5,2,1783,10371391,10371639,250,3134,420.7,525.5,left,10371391,10371639,248,0.139091418956814,1
NS01,3,19,female,R,28,continuous,1,28,10370188,10371971,trial,2594,6.05,5,1419,6.54,5,2,1783,10371651,10371929,280,3195,423.8,556.3,left,10371651,10371929,278,0.155916993830623,1
NS01,3,19,female,R,28,continuous,1,28,10370188,10371971,trial,2594,6.05,5,1419,6.54,5,2,1783,10371953,10372217,266,3205,348.5,557.5,left,10371953,10371971,18,0.0100953449242849,1
NS01,3,19,female,R,28,continuous,1,28,10370188,10371971,postResponse,2594,6.05,5,1419,6.54,5,2,1783,10372241,10372305,66,3157,497,550,left,10371971,10371971,0,0,0
NS01,3,19,female,R,44,continuous,1,44,10421688,10423589,fixationCross,4645,6.73,4,1595,6.22,4,100,1901,10420939,10421089,152,3453,1321.2,546.9,right,10421688,10421688,0,0,0
NS01,3,19,female,R,44,continuous,1,44,10421688,10423589,fixationCross,4645,6.73,4,1595,6.22,4,100,1901,10421131,10421367,238,3574,1118.5,460.2,,10421688,10421688,0,0,0
NS01,3,19,female,R,44,continuous,1,44,10421688,10423589,fixationCross,4645,6.73,4,1595,6.22,4,100,1901,10421387,10421641,256,3643,999.3,471,,10421688,10421688,0,0,0
NS01,3,19,female,R,44,continuous,1,44,10421688,10423589,trial,4645,6.73,4,1595,6.22,4,100,1901,10421661,10421843,184,3686,925.2,484.9,,10421688,10421843,155,0.0815360336664913,1
NS01,3,19,female,R,44,continuous,1,44,10421688,10423589,trial,4645,6.73,4,1595,6.22,4,100,1901,10421899,10422051,154,3639,514.2,567.5,left,10421899,10422051,152,0.0799579168858496,1
NS01,3,19,female,R,44,continuous,1,44,10421688,10423589,trial,4645,6.73,4,1595,6.22,4,100,1901,10422077,10422295,220,3412,453.2,631,left,10422077,10422295,218,0.114676486059968,1
NS01,3,19,female,R,44,continuous,1,44,10421688,10423589,trial,4645,6.73,4,1595,6.22,4,100,1901,10422359,10422589,232,3141,1442.3,563.2,right,10422359,10422589,230,0.120988953182536,1
NS01,3,19,female,R,44,continuous,1,44,10421688,10423589,postResponse,4645,6.73,4,1595,6.22,4,100,1901,10422609,10423923,1316,3144,1417.9,515.1,right,10422609,10423589,980,0.515518148342977,1
NS01,3,19,female,R,40,continuous,1,40,10409522,10412105,fixationCross,7100,5.24,4,1605,6.59,6,100,2583,10408809,10408871,64,3538,640.6,508.9,left,10409522,10409522,0,0,0
NS01,3,19,female,R,40,continuous,1,40,10409522,10412105,fixationCross,7100,5.24,4,1605,6.59,6,100,2583,10408931,10409209,280,3630,1229.8,479.7,right,10409522,10409522,0,0,0
NS01,3,19,female,R,40,continuous,1,40,10409522,10412105,fixationCross,7100,5.24,4,1605,6.59,6,100,2583,10409247,10409415,170,3852,1001,485,,10409522,10409522,0,0,0
NS01,3,19,female,R,40,continuous,1,40,10409522,10412105,trial,7100,5.24,4,1605,6.59,6,100,2583,10409441,10409681,242,3925,855.2,503.6,,10409522,10409681,159,0.0615563298490128,1
NS01,3,19,female,R,40,continuous,1,40,10409522,10412105,trial,7100,5.24,4,1605,6.59,6,100,2583,10409737,10410181,446,3626,483,547.3,left,10409737,10410181,444,0.171893147502904,1
NS01,3,19,female,R,40,continuous,1,40,10409522,10412105,trial,7100,5.24,4,1605,6.59,6,100,2583,10410201,10410501,302,3227,409.2,612.6,left,10410201,10410501,300,0.116144018583043,1
NS01,3,19,female,R,40,continuous,1,40,10409522,10412105,trial,7100,5.24,4,1605,6.59,6,100,2583,10410521,10410805,286,3141,457.9,603.5,left,10410521,10410805,284,0.109949670925281,1
NS01,3,19,female,R,40,continuous,1,40,10409522,10412105,trial,7100,5.24,4,1605,6.59,6,100,2583,10410871,10411237,368,3023,1408,558.8,right,10410871,10411237,366,0.141695702671312,1
NS01,3,19,female,R,40,continuous,1,40,10409522,10412105,trial,7100,5.24,4,1605,6.59,6,100,2583,10411253,10411505,254,3023,1441,595.9,right,10411253,10411505,252,0.0975609756097561,1
NS01,3,19,female,R,40,continuous,1,40,10409522,10412105,postResponse,7100,5.24,4,1605,6.59,6,100,2583,10411519,10412439,922,3012,1388.5,616.1,right,10411519,10412105,586,0.226867982965544,1
NS01,3,19,female,R,80,binary,2,30,10607658,10608659,fixationCross,7248,5.22,3,2092,6.28,4,2,1001,10606964,10607348,386,3601,686.6,537.9,left,10607658,10607658,0,0,0
NS01,3,19,female,R,80,binary,2,30,10607658,10608659,trial,7248,5.22,3,2092,6.28,4,2,1001,10607374,10607808,436,3764,910.3,531.7,,10607658,10607808,150,0.14985014985015,1
NS01,3,19,female,R,80,binary,2,30,10607658,10608659,trial,7248,5.22,3,2092,6.28,4,2,1001,10607854,10608038,186,3732,511.8,588.4,left,10607854,10608038,184,0.183816183816184,1
NS01,3,19,female,R,80,binary,2,30,10607658,10608659,trial,7248,5.22,3,2092,6.28,4,2,1001,10608112,10608354,244,3411,1444.4,561.7,right,10608112,10608354,242,0.241758241758242,1
NS01,3,19,female,R,80,binary,2,30,10607658,10608659,trial,7248,5.22,3,2092,6.28,4,2,1001,10608376,10608870,496,3243,1554.9,639,right,10608376,10608659,283,0.282717282717283,1
NS01,3,19,female,R,100,binary,2,50,10655842,10657158,fixationCross,7014,5.15,4,2235,5.64,4,1,1316,10654544,10655010,468,2798,839.8,492.2,,10655842,10655842,0,0,0
NS01,3,19,female,R,100,binary,2,50,10655842,10657158,fixationCross,7014,5.15,4,2235,5.64,4,1,1316,10655026,10655388,364,2943,781.3,509.1,,10655842,10655842,0,0,0
NS01,3,19,female,R,100,binary,2,50,10655842,10657158,fixationCross,7014,5.15,4,2235,5.64,4,1,1316,10655402,10655578,178,2877,840.3,514.5,,10655842,10655842,0,0,0
NS01,3,19,female,R,100,binary,2,50,10655842,10657158,trial,7014,5.15,4,2235,5.64,4,1,1316,10655598,10655996,400,2895,955.7,526.4,,10655842,10655996,154,0.117021276595745,1
NS01,3,19,female,R,100,binary,2,50,10655842,10657158,trial,7014,5.15,4,2235,5.64,4,1,1316,10656054,10656290,238,3012,419.9,563.2,left,10656054,10656290,236,0.179331306990881,1
NS01,3,19,female,R,100,binary,2,50,10655842,10657158,trial,7014,5.15,4,2235,5.64,4,1,1316,10656356,10656632,278,2797,1438.9,532,right,10656356,10656632,276,0.209726443768997,1
NS01,3,19,female,R,100,binary,2,50,10655842,10657158,trial,7014,5.15,4,2235,5.64,4,1,1316,10656658,10656834,178,2763,1328,421.5,right,10656658,10656834,176,0.133738601823708,1
NS01,3,19,female,R,100,binary,2,50,10655842,10657158,trial,7014,5.15,4,2235,5.64,4,1,1316,10656900,10657396,498,2910,471.3,514.9,left,10656900,10657158,258,0.196048632218845,1
NS01,3,19,female,R,83,binary,2,33,10614408,10615725,fixationCross,8192,5.52,4,2273,5.41,5,2,1317,10613480,10613542,64,3158,1350.5,452.9,right,10614408,10614408,0,0,0
NS01,3,19,female,R,83,binary,2,33,10614408,10615725,fixationCross,8192,5.52,4,2273,5.41,5,2,1317,10613558,10613868,312,3235,1261.2,448.1,right,10614408,10614408,0,0,0
NS01,3,19,female,R,83,binary,2,33,10614408,10615725,fixationCross,8192,5.52,4,2273,5.41,5,2,1317,10614104,10614390,288,3402,957.9,441.5,,10614408,10614408,0,0,0
NS01,3,19,female,R,83,binary,2,33,10614408,10615725,trial,8192,5.52,4,2273,5.41,5,2,1317,10614406,10614558,154,3572,912.7,474.8,,10614408,10614558,150,0.113895216400911,1
NS01,3,19,female,R,83,binary,2,33,10614408,10615725,trial,8192,5.52,4,2273,5.41,5,2,1317,10614618,10614820,204,3628,426.3,535.5,left,10614618,10614820,202,0.153378891419894,1
NS01,3,19,female,R,83,binary,2,33,10614408,10615725,trial,8192,5.52,4,2273,5.41,5,2,1317,10614884,10615192,310,3239,1383.4,601.7,right,10614884,10615192,308,0.233864844343204,1
NS01,3,19,female,R,83,binary,2,33,10614408,10615725,trial,8192,5.52,4,2273,5.41,5,2,1317,10615204,10615352,150,3075,1415.1,586,right,10615204,10615352,148,0.112376613515566,1
NS01,3,19,female,R,83,binary,2,33,10614408,10615725,trial,8192,5.52,4,2273,5.41,5,2,1317,10615366,10616014,650,2807,1387.1,563.2,right,10615366,10615725,359,0.272589217919514,1
NS01,3,19,female,R,39,continuous,1,39,10406422,10408372,fixationCross,1659,6.57,4,2305,5.41,4,100,1950,10405653,10406101,450,3482,1071.5,392.4,,10406422,10406422,0,0,0
NS01,3,19,female,R,39,continuous,1,39,10406422,10408372,fixationCross,1659,6.57,4,2305,5.41,4,100,1950,10406125,10406405,282,3794,982.9,482.5,,10406422,10406422,0,0,0
NS01,3,19,female,R,39,continuous,1,39,10406422,10408372,trial,1659,6.57,4,2305,5.41,4,100,1950,10406421,10406571,152,3761,922.6,488.4,,10406422,10406571,149,0.0764102564102564,1
NS01,3,19,female,R,39,continuous,1,39,10406422,10408372,trial,1659,6.57,4,2305,5.41,4,100,1950,10406631,10406799,170,3702,521.2,511.4,left,10406631,10406799,168,0.0861538461538462,1
NS01,3,19,female,R,39,continuous,1,39,10406422,10408372,trial,1659,6.57,4,2305,5.41,4,100,1950,10406831,10406989,160,3514,385.8,503,left,10406831,10406989,158,0.081025641025641,1
NS01,3,19,female,R,39,continuous,1,39,10406422,10408372,trial,1659,6.57,4,2305,5.41,4,100,1950,10407017,10407219,204,3315,544.1,572.8,left,10407017,10407219,202,0.103589743589744,1
NS01,3,19,female,R,39,continuous,1,39,10406422,10408372,trial,1659,6.57,4,2305,5.41,4,100,1950,10407279,10407501,224,3135,1455,573.2,right,10407279,10407501,222,0.113846153846154,1
NS01,3,19,female,R,39,continuous,1,39,10406422,10408372,trial,1659,6.57,4,2305,5.41,4,100,1950,10407515,10407803,290,3056,1463.3,549.7,right,10407515,10407803,288,0.147692307692308,1
NS01,3,19,female,R,39,continuous,1,39,10406422,10408372,trial,1659,6.57,4,2305,5.41,4,100,1950,10407865,10408035,172,3211,582.3,559.1,left,10407865,10408035,170,0.0871794871794872,1
NS01,3,19,female,R,39,continuous,1,39,10406422,10408372,trial,1659,6.57,4,2305,5.41,4,100,1950,10408051,10408397,348,3436,539.3,572.9,left,10408051,10408372,321,0.164615384615385,1
NS01,3,19,female,R,39,continuous,1,39,10406422,10408372,trial,1659,6.57,4,2305,5.41,4,100,1950,10408427,10408677,252,3642,407.3,505.3,left,10408372,10408372,0,0,0
NS01,3,19,female,R,54,binary,2,4,10512989,10515140,fixationCross,5593,6.47,4,2339,6.72,5,2,2151,10512240,10512384,146,3700,598.5,532,left,10512989,10512989,0,0,0
NS01,3,19,female,R,54,binary,2,4,10512989,10515140,fixationCross,5593,6.47,4,2339,6.72,5,2,2151,10512406,10512680,276,3693,715.4,491.9,left,10512989,10512989,0,0,0
NS01,3,19,female,R,54,binary,2,4,10512989,10515140,trial,5593,6.47,4,2339,6.72,5,2,2151,10512706,10513134,430,3866,888.5,487.7,,10512989,10513134,145,0.0674105067410507,1
NS01,3,19,female,R,54,binary,2,4,10512989,10515140,trial,5593,6.47,4,2339,6.72,5,2,2151,10513186,10513424,240,3852,520.8,562.8,left,10513186,10513424,238,0.110646211064621,1
NS01,3,19,female,R,54,binary,2,4,10512989,10515140,trial,5593,6.47,4,2339,6.72,5,2,2151,10513486,10513704,220,3339,1427.8,499.3,right,10513486,10513704,218,0.101348210134821,1
NS01,3,19,female,R,54,binary,2,4,10512989,10515140,trial,5593,6.47,4,2339,6.72,5,2,2151,10513732,10513942,212,3082,1458,400.3,right,10513732,10513942,210,0.097629009762901,1
NS01,3,19,female,R,54,binary,2,4,10512989,10515140,trial,5593,6.47,4,2339,6.72,5,2,2151,10514008,10514350,344,3127,506.4,542.3,left,10514008,10514350,342,0.158995815899582,1
NS01,3,19,female,R,54,binary,2,4,10512989,10515140,trial,5593,6.47,4,2339,6.72,5,2,2151,10514412,10514648,238,3078,1445.2,508.5,right,10514412,10514648,236,0.109716410971641,1
NS01,3,19,female,R,54,binary,2,4,10512989,10515140,trial,5593,6.47,4,2339,6.72,5,2,2151,10514674,10515056,384,3000,1546.6,572.2,right,10514674,10515056,382,0.177591817759182,1
NS01,3,19,female,R,54,binary,2,4,10512989,10515140,trial,5593,6.47,4,2339,6.72,5,2,2151,10515084,10515410,328,3015,1450.9,402.9,right,10515084,10515140,56,0.0260344026034403,1
NS01,3,19,female,R,88,binary,2,38,10627875,10628775,fixationCross,5300,6.91,7,2377,5.19,4,1,900,10627328,10627624,298,3211,980.5,413.1,,10627875,10627875,0,0,0
NS01,3,19,female,R,88,binary,2,38,10627875,10628775,trial,5300,6.91,7,2377,5.19,4,1,900,10627648,10627926,280,3392,916.9,469.4,,10627875,10627926,51,0.0566666666666667,1
NS01,3,19,female,R,88,binary,2,38,10627875,10628775,trial,5300,6.91,7,2377,5.19,4,1,900,10627948,10628066,120,3261,853.1,520.1,,10627948,10628066,118,0.131111111111111,1
NS01,3,19,female,R,88,binary,2,38,10627875,10628775,trial,5300,6.91,7,2377,5.19,4,1,900,10628110,10628416,308,3122,460.9,568.4,left,10628110,10628416,306,0.34,1
NS01,3,19,female,R,88,binary,2,38,10627875,10628775,trial,5300,6.91,7,2377,5.19,4,1,900,10628478,10628720,244,2898,1355.1,511.1,right,10628478,10628720,242,0.268888888888889,1
NS01,3,19,female,R,88,binary,2,38,10627875,10628775,trial,5300,6.91,7,2377,5.19,4,1,900,10628738,10629084,348,2908,1367.9,462,right,10628738,10628775,37,0.0411111111111111,1
NS01,3,19,female,R,98,binary,2,48,10650775,10651659,fixationCross,5750,6.6,6,2445,5.39,4,1,884,10650318,10650450,134,3145,1302,457.6,right,10650775,10650775,0,0,0
NS01,3,19,female,R,98,binary,2,48,10650775,10651659,fixationCross,5750,6.6,6,2445,5.39,4,1,884,10650494,10650650,158,3436,1044.3,490.7,,10650775,10650775,0,0,0
NS01,3,19,female,R,98,binary,2,48,10650775,10651659,trial,5750,6.6,6,2445,5.39,4,1,884,10650674,10650938,266,3475,926,512.8,,10650775,10650938,163,0.184389140271493,1
NS01,3,19,female,R,98,binary,2,48,10650775,10651659,trial,5750,6.6,6,2445,5.39,4,1,884,10650984,10651184,202,3307,511,584.1,left,10650984,10651184,200,0.226244343891403,1
NS01,3,19,female,R,98,binary,2,48,10650775,10651659,postResponse,5750,6.6,6,2445,5.39,4,1,884,10651244,10652006,764,2840,1432.8,560.3,right,10651244,10651659,415,0.469457013574661,1
NS01,3,19,female,R,76,binary,2,26,10598907,10600524,fixationCross,8179,6.48,5,2521,5.78,4,1,1617,10598196,10598416,222,4264,957.4,222.8,,10598907,10598907,0,0,0
NS01,3,19,female,R,76,binary,2,26,10598907,10600524,fixationCross,8179,6.48,5,2521,5.78,4,1,1617,10598456,10598594,140,4277,1061.8,440.4,,10598907,10598907,0,0,0
NS01,3,19,female,R,76,binary,2,26,10598907,10600524,trial,8179,6.48,5,2521,5.78,4,1,1617,10598624,10598928,306,4182,935.2,540.5,,10598907,10598928,21,0.012987012987013,1
NS01,3,19,female,R,76,binary,2,26,10598907,10600524,trial,8179,6.48,5,2521,5.78,4,1,1617,10598942,10599068,128,4164,976.7,539.2,,10598942,10599068,126,0.0779220779220779,1
NS01,3,19,female,R,76,binary,2,26,10598907,10600524,trial,8179,6.48,5,2521,5.78,4,1,1617,10599098,10599230,134,4091,1166.2,534.5,,10599098,10599230,132,0.0816326530612245,1
NS01,3,19,female,R,76,binary,2,26,10598907,10600524,trial,8179,6.48,5,2521,5.78,4,1,1617,10599290,10599392,104,3934,527.5,597.6,left,10599290,10599392,102,0.0630797773654917,1
NS01,3,19,female,R,76,binary,2,26,10598907,10600524,trial,8179,6.48,5,2521,5.78,4,1,1617,10599444,10599592,150,3961,456.8,950.4,,10599444,10599592,148,0.0915275200989487,1
NS01,3,19,female,R,76,binary,2,26,10598907,10600524,trial,8179,6.48,5,2521,5.78,4,1,1617,10599614,10599698,86,3978,451,1025.5,,10599614,10599698,84,0.051948051948052,1
NS01,3,19,female,R,76,binary,2,26,10598907,10600524,trial,8179,6.48,5,2521,5.78,4,1,1617,10599742,10600028,288,3900,445.5,448.1,left,10599742,10600028,286,0.17687074829932,1
NS01,3,19,female,R,76,binary,2,26,10598907,10600524,trial,8179,6.48,5,2521,5.78,4,1,1617,10600092,10600468,378,3836,1451,553.7,right,10600092,10600468,376,0.232529375386518,1
NS01,3,19,female,R,76,binary,2,26,10598907,10600524,trial,8179,6.48,5,2521,5.78,4,1,1617,10600512,10600738,228,3909,1468.2,763.1,,10600512,10600524,12,0.00742115027829314,1
NS01,3,19,female,R,76,binary,2,26,10598907,10600524,postResponse,8179,6.48,5,2521,5.78,4,1,1617,10600776,10600858,84,4110,1232.2,584.9,right,10600524,10600524,0,0,0
NS01,3,19,female,R,92,binary,2,42,10637208,10638408,fixationCross,7550,5.27,4,2575,5.46,4,2,1200,10636712,10636908,198,3218,1085.8,418.4,,10637208,10637208,0,0,0
NS01,3,19,female,R,92,binary,2,42,10637208,10638408,trial,7550,5.27,4,2575,5.46,4,2,1200,10636930,10637354,426,3573,968.8,469,,10637208,10637354,146,0.121666666666667,1
NS01,3,19,female,R,92,binary,2,42,10637208,10638408,trial,7550,5.27,4,2575,5.46,4,2,1200,10637412,10637708,298,3583,498,541.4,left,10637412,10637708,296,0.246666666666667,1
NS01,3,19,female,R,92,binary,2,42,10637208,10638408,trial,7550,5.27,4,2575,5.46,4,2,1200,10637772,10638022,252,3144,1478.8,532.1,right,10637772,10638022,250,0.208333333333333,1
NS01,3,19,female,R,92,binary,2,42,10637208,10638408,postResponse,7550,5.27,4,2575,5.46,4,2,1200,10638038,10638742,706,2956,1526,493.7,right,10638038,10638408,370,0.308333333333333,1
NS01,3,19,female,R,65,binary,2,15,10541957,10543023,trial,1903,5.5,4,2593,5.8,5,2,1066,10541474,10542100,628,3448,964.1,533.9,,10541957,10542100,143,0.134146341463415,1
NS01,3,19,female,R,65,binary,2,15,10541957,10543023,trial,1903,5.5,4,2593,5.8,5,2,1066,10542148,10542350,204,3423,567.4,566.9,left,10542148,10542350,202,0.189493433395872,1
NS01,3,19,female,R,65,binary,2,15,10541957,10543023,trial,1903,5.5,4,2593,5.8,5,2,1066,10542410,10543310,902,3030,1375.3,568.7,right,10542410,10543023,613,0.575046904315197,1
NS01,3,19,female,R,24,continuous,1,24,10318021,10319421,fixationCross,7475,6.33,5,5635,6.25,5,100,1400,10317243,10317511,270,3714,994.7,466.8,,10318021,10318021,0,0,0
NS01,3,19,female,R,24,continuous,1,24,10318021,10319421,fixationCross,7475,6.33,5,5635,6.25,5,100,1400,10317535,10317833,300,3823,863.3,458.3,,10318021,10318021,0,0,0
NS01,3,19,female,R,24,continuous,1,24,10318021,10319421,trial,7475,6.33,5,5635,6.25,5,100,1400,10317851,10318163,314,3789,916.3,498.5,,10318021,10318163,142,0.101428571428571,1
NS01,3,19,female,R,24,continuous,1,24,10318021,10319421,trial,7475,6.33,5,5635,6.25,5,100,1400,10318219,10318473,256,3687,475.8,521.1,left,10318219,10318473,254,0.181428571428571,1
NS01,3,19,female,R,24,continuous,1,24,10318021,10319421,trial,7475,6.33,5,5635,6.25,5,100,1400,10318537,10318817,282,3226,1423.5,559.5,right,10318537,10318817,280,0.2,1
NS01,3,19,female,R,24,continuous,1,24,10318021,10319421,trial,7475,6.33,5,5635,6.25,5,100,1400,10318835,10319603,770,3079,1491.2,577.5,right,10318835,10319421,586,0.418571428571429,1
NS01,3,19,female,R,68,binary,2,18,10548890,10549857,fixationCross,2191,5.3,4,5875,6.03,4,1,967,10548444,10548582,140,3074,1157,424,,10548890,10548890,0,0,0
NS01,3,19,female,R,68,binary,2,18,10548890,10549857,fixationCross,2191,5.3,4,5875,6.03,4,1,967,10548616,10548852,238,3302,969.6,462,,10548890,10548890,0,0,0
NS01,3,19,female,R,68,binary,2,18,10548890,10549857,trial,2191,5.3,4,5875,6.03,4,1,967,10548872,10549048,178,3375,873.1,495.8,,10548890,10549048,158,0.163391933815926,1
NS01,3,19,female,R,68,binary,2,18,10548890,10549857,trial,2191,5.3,4,5875,6.03,4,1,967,10549104,10549248,146,3367,395.9,564.9,left,10549104,10549248,144,0.148914167528438,1
NS01,3,19,female,R,68,binary,2,18,10548890,10549857,postResponse,2191,5.3,4,5875,6.03,4,1,967,10549314,10550204,892,3124,1439.6,504.7,right,10549314,10549857,543,0.56153050672182,1
NS01,3,19,female,R,48,continuous,1,48,10433055,10434039,fixationCross,5040,5.39,4,5990,6.54,4,1,984,10432473,10432745,274,3142,1195.9,438.8,right,10433055,10433055,0,0,0
NS01,3,19,female,R,48,continuous,1,48,10433055,10434039,fixationCross,5040,5.39,4,5990,6.54,4,1,984,10432773,10432965,194,3473,992.9,470.3,,10433055,10433055,0,0,0
NS01,3,19,female,R,48,continuous,1,48,10433055,10434039,trial,5040,5.39,4,5990,6.54,4,1,984,10432983,10433203,222,3463,894.7,495.2,,10433055,10433203,148,0.150406504065041,1
NS01,3,19,female,R,48,continuous,1,48,10433055,10434039,trial,5040,5.39,4,5990,6.54,4,1,984,10433261,10433551,292,3286,440.3,554.4,left,10433261,10433551,290,0.294715447154472,1
NS01,3,19,female,R,48,continuous,1,48,10433055,10434039,trial,5040,5.39,4,5990,6.54,4,1,984,10433619,10433943,326,2973,1443.9,578.4,right,10433619,10433943,324,0.329268292682927,1
NS01,3,19,female,R,48,continuous,1,48,10433055,10434039,trial,5040,5.39,4,5990,6.54,4,1,984,10433965,10434337,374,2906,1475.1,535.6,right,10433965,10434039,74,0.0752032520325203,1
NS01,3,19,female,R,20,continuous,1,20,10305203,10307170,fixationCross,7279,6.22,6,7019,5.2,4,1,1967,10304709,10304869,162,3183,1060.1,488.9,,10305203,10305203,0,0,0
NS01,3,19,female,R,20,continuous,1,20,10305203,10307170,trial,7279,6.22,6,7019,5.2,4,1,1967,10304891,10305243,354,3498,902.3,489.1,,10305203,10305243,40,0.0203355363497712,1
NS01,3,19,female,R,20,continuous,1,20,10305203,10307170,trial,7279,6.22,6,7019,5.2,4,1,1967,10305257,10305367,112,3629,935.4,511.9,,10305257,10305367,110,0.0559227249618709,1
NS01,3,19,female,R,20,continuous,1,20,10305203,10307170,trial,7279,6.22,6,7019,5.2,4,1,1967,10305429,10305769,342,3428,452,535.5,left,10305429,10305769,340,0.172852058973055,1
NS01,3,19,female,R,20,continuous,1,20,10305203,10307170,trial,7279,6.22,6,7019,5.2,4,1,1967,10305791,10306073,284,3165,560.5,528.3,left,10305791,10306073,282,0.143365531265887,1
NS01,3,19,female,R,20,continuous,1,20,10305203,10307170,trial,7279,6.22,6,7019,5.2,4,1,1967,10306091,10306167,78,3080,642.9,544.5,left,10306091,10306167,76,0.0386375190645653,1
NS01,3,19,female,R,20,continuous,1,20,10305203,10307170,trial,7279,6.22,6,7019,5.2,4,1,1967,10306223,10306463,242,3043,1389.6,579.8,right,10306223,10306463,240,0.122013218098627,1
NS01,3,19,female,R,20,continuous,1,20,10305203,10307170,trial,7279,6.22,6,7019,5.2,4,1,1967,10306483,10306609,128,3040,1475,616.1,right,10306483,10306609,126,0.0640569395017794,1
NS01,3,19,female,R,20,continuous,1,20,10305203,10307170,trial,7279,6.22,6,7019,5.2,4,1,1967,10306679,10306833,156,3190,534.2,894.4,,10306679,10306833,154,0.0782918149466192,1
NS01,3,19,female,R,20,continuous,1,20,10305203,10307170,trial,7279,6.22,6,7019,5.2,4,1,1967,10307087,10307477,392,3406,361.7,601.2,left,10307087,10307170,83,0.0421962379257753,1
NS01,3,19,female,R,36,continuous,1,36,10397955,10399755,fixationCross,7506,5.34,3,7039,5.93,5,100,1800,10397371,10397669,300,3514,1072,405.1,,10397955,10397955,0,0,0
NS01,3,19,female,R,36,continuous,1,36,10397955,10399755,trial,7506,5.34,3,7039,5.93,5,100,1800,10397691,10397957,268,3806,968.3,471.8,,10397955,10397957,2,0.00111111111111111,1
NS01,3,19,female,R,36,continuous,1,36,10397955,10399755,trial,7506,5.34,3,7039,5.93,5,100,1800,10397977,10398115,140,3754,891.4,498.2,,10397977,10398115,138,0.0766666666666667,1
NS01,3,19,female,R,36,continuous,1,36,10397955,10399755,trial,7506,5.34,3,7039,5.93,5,100,1800,10398165,10398381,218,3567,550.6,509.6,left,10398165,10398381,216,0.12,1
NS01,3,19,female,R,36,continuous,1,36,10397955,10399755,trial,7506,5.34,3,7039,5.93,5,100,1800,10398441,10398689,250,3284,1412.9,527.1,right,10398441,10398689,248,0.137777777777778,1
NS01,3,19,female,R,36,continuous,1,36,10397955,10399755,trial,7506,5.34,3,7039,5.93,5,100,1800,10398713,10399005,294,3227,1426.5,595.9,right,10398713,10399005,292,0.162222222222222,1
NS01,3,19,female,R,36,continuous,1,36,10397955,10399755,trial,7506,5.34,3,7039,5.93,5,100,1800,10399071,10399389,320,3161,541.9,503.3,left,10399071,10399389,318,0.176666666666667,1
NS01,3,19,female,R,36,continuous,1,36,10397955,10399755,trial,7506,5.34,3,7039,5.93,5,100,1800,10399407,10399579,174,3111,607.8,494.3,left,10399407,10399579,172,0.0955555555555556,1
NS01,3,19,female,R,36,continuous,1,36,10397955,10399755,trial,7506,5.34,3,7039,5.93,5,100,1800,10399605,10400027,424,3201,503.9,507.9,left,10399605,10399755,150,0.0833333333333333,1
NS01,3,19,female,R,36,continuous,1,36,10397955,10399755,postResponse,7506,5.34,3,7039,5.93,5,100,1800,10400047,10400105,60,3275,591.5,519.7,left,10399755,10399755,0,0,0
NS01,3,19,female,R,19,continuous,1,19,10302387,10304254,fixationCross,7205,5.56,4,7095,5.99,4,45,1867,10301769,10302083,316,3563,1015.2,384.9,,10302387,10302387,0,0,0
NS01,3,19,female,R,19,continuous,1,19,10302387,10304254,trial,7205,5.56,4,7095,5.99,4,45,1867,10302111,10302401,292,3651,941.3,487.7,,10302387,10302401,14,0.00749866095340118,1
NS01,3,19,female,R,19,continuous,1,19,10302387,10304254,trial,7205,5.56,4,7095,5.99,4,45,1867,10302423,10302561,140,3498,821.6,495.1,,10302423,10302561,138,0.0739153722549545,1
NS01,3,19,female,R,19,continuous,1,19,10302387,10304254,trial,7205,5.56,4,7095,5.99,4,45,1867,10302599,10302887,290,3368,535.4,518.1,left,10302599,10302887,288,0.154258168184253,1
NS01,3,19,female,R,19,continuous,1,19,10302387,10304254,trial,7205,5.56,4,7095,5.99,4,45,1867,10302951,10303299,350,3023,1469.5,582,right,10302951,10303299,348,0.186395286555972,1
NS01,3,19,female,R,19,continuous,1,19,10302387,10304254,trial,7205,5.56,4,7095,5.99,4,45,1867,10303311,10303695,386,2818,1479.4,559.4,right,10303311,10303695,384,0.205677557579004,1
NS01,3,19,female,R,19,continuous,1,19,10302387,10304254,trial,7205,5.56,4,7095,5.99,4,45,1867,10303765,10304477,714,2763,476.1,493.9,left,10303765,10304254,489,0.261917514729513,1
NS01,3,19,female,R,15,continuous,1,15,10288420,10291387,fixationCross,1640,6.27,4,7179,5.06,4,53,2967,10287781,10288105,326,3323,939.6,370,,10288420,10288420,0,0,0
NS01,3,19,female,R,15,continuous,1,15,10288420,10291387,trial,1640,6.27,4,7179,5.06,4,53,2967,10288135,10288505,372,3609,940.4,492.8,,10288420,10288505,85,0.0286484664644422,1
NS01,3,19,female,R,15,continuous,1,15,10288420,10291387,trial,1640,6.27,4,7179,5.06,4,53,2967,10288553,10288663,112,3587,665.1,499.9,left,10288553,10288663,110,0.0370744860128076,1
NS01,3,19,female,R,15,continuous,1,15,10288420,10291387,trial,1640,6.27,4,7179,5.06,4,53,2967,10288707,10288893,188,3438,487.3,525.5,left,10288707,10288893,186,0.0626895854398382,1
NS01,3,19,female,R,15,continuous,1,15,10288420,10291387,trial,1640,6.27,4,7179,5.06,4,53,2967,10288959,10289345,388,3141,1468.3,605.1,right,10288959,10289345,386,0.130097741826761,1
NS01,3,19,female,R,15,continuous,1,15,10288420,10291387,trial,1640,6.27,4,7179,5.06,4,53,2967,10289361,10289467,108,3087,1496,567.8,right,10289361,10289467,106,0.0357263228850691,1
NS01,3,19,female,R,15,continuous,1,15,10288420,10291387,trial,1640,6.27,4,7179,5.06,4,53,2967,10289533,10289727,196,3162,544.4,491.3,left,10289533,10289727,194,0.0653859116953151,1
NS01,3,19,female,R,15,continuous,1,15,10288420,10291387,trial,1640,6.27,4,7179,5.06,4,53,2967,10289747,10290269,524,3174,608.3,483.5,left,10289747,10290269,522,0.175935288169869,1
NS01,3,19,female,R,15,continuous,1,15,10288420,10291387,trial,1640,6.27,4,7179,5.06,4,53,2967,10290315,10290423,110,3365,807.4,838.6,likertHorizontal,10290315,10290423,108,0.0364004044489383,1
NS01,3,19,female,R,15,continuous,1,15,10288420,10291387,trial,1640,6.27,4,7179,5.06,4,53,2967,10290455,10290903,450,3495,925.5,1025.6,likertHorizontal,10290455,10290903,448,0.150994270306707,1
NS01,3,19,female,R,15,continuous,1,15,10288420,10291387,trial,1640,6.27,4,7179,5.06,4,53,2967,10290959,10291155,198,3390,1372.1,669.2,right,10290959,10291155,196,0.0660599932591844,1
NS01,3,19,female,R,15,continuous,1,15,10288420,10291387,trial,1640,6.27,4,7179,5.06,4,53,2967,10291181,10291613,434,3336,1434.4,593.1,right,10291181,10291387,206,0.0694304010785305,1
NS01,3,19,female,R,14,continuous,1,14,10283387,10287220,fixationCross,7600,5.9,4,7192,5.77,4,95,3833,10282263,10282447,186,3158,711.1,386.1,left,10283387,10283387,0,0,0
NS01,3,19,female,R,14,continuous,1,14,10283387,10287220,fixationCross,7600,5.9,4,7192,5.77,4,95,3833,10282477,10282787,312,3467,881.1,441.7,,10283387,10283387,0,0,0
NS01,3,19,female,R,14,continuous,1,14,10283387,10287220,fixationCross,7600,5.9,4,7192,5.77,4,95,3833,10282807,10283065,260,3576,801.6,440,,10283387,10283387,0,0,0
NS01,3,19,female,R,14,continuous,1,14,10283387,10287220,fixationCross,7600,5.9,4,7192,5.77,4,95,3833,10283087,10283319,234,3554,923.2,472.1,,10283387,10283387,0,0,0
NS01,3,19,female,R,14,continuous,1,14,10283387,10287220,trial,7600,5.9,4,7192,5.77,4,95,3833,10283341,10283543,204,3536,822.8,471.1,,10283387,10283543,156,0.0406991912340204,1
NS01,3,19,female,R,14,continuous,1,14,10283387,10287220,trial,7600,5.9,4,7192,5.77,4,95,3833,10283597,10283889,294,3537,441.6,531.4,left,10283597,10283889,292,0.0761805374380381,1
NS01,3,19,female,R,14,continuous,1,14,10283387,10287220,trial,7600,5.9,4,7192,5.77,4,95,3833,10283911,10284033,124,3414,360.8,531.3,left,10283911,10284033,122,0.0318288546830159,1
NS01,3,19,female,R,14,continuous,1,14,10283387,10287220,trial,7600,5.9,4,7192,5.77,4,95,3833,10284103,10284583,482,3032,1484.5,551.2,right,10284103,10284583,480,0.125228280720063,1
NS01,3,19,female,R,14,continuous,1,14,10283387,10287220,trial,7600,5.9,4,7192,5.77,4,95,3833,10284603,10285075,474,3108,1534.8,531.1,right,10284603,10285075,472,0.123141142708062,1
NS01,3,19,female,R,14,continuous,1,14,10283387,10287220,trial,7600,5.9,4,7192,5.77,4,95,3833,10285137,10285253,118,3302,1062,466.8,,10285137,10285253,116,0.0302635011740151,1
NS01,3,19,female,R,14,continuous,1,14,10283387,10287220,trial,7600,5.9,4,7192,5.77,4,95,3833,10285301,10285551,252,3273,498.8,476.3,left,10285301,10285551,250,0.0652230628750326,1
NS01,3,19,female,R,14,continuous,1,14,10283387,10287220,trial,7600,5.9,4,7192,5.77,4,95,3833,10285575,10285711,138,3356,390.2,503.1,left,10285575,10285711,136,0.0354813462040177,1
NS01,3,19,female,R,14,continuous,1,14,10283387,10287220,trial,7600,5.9,4,7192,5.77,4,95,3833,10285777,10286035,260,3155,1491.2,537.8,right,10285777,10286035,258,0.0673102008870337,1
NS01,3,19,female,R,14,continuous,1,14,10283387,10287220,trial,7600,5.9,4,7192,5.77,4,95,3833,10286051,10286317,268,3083,1547.8,523.9,right,10286051,10286317,266,0.0693973388990347,1
NS01,3,19,female,R,14,continuous,1,14,10283387,10287220,trial,7600,5.9,4,7192,5.77,4,95,3833,10286361,10286697,338,3289,1413,869,,10286361,10286697,336,0.0876597965040438,1
NS01,3,19,female,R,14,continuous,1,14,10283387,10287220,trial,7600,5.9,4,7192,5.77,4,95,3833,10286725,10286963,240,3412,1458.5,965.9,,10286725,10286963,238,0.062092355857031,1
NS01,3,19,female,R,14,continuous,1,14,10283387,10287220,trial,7600,5.9,4,7192,5.77,4,95,3833,10287051,10287477,428,3513,398.4,603.6,left,10287051,10287220,169,0.044090790503522,1
NS01,3,19,female,R,74,binary,2,24,10563957,10565357,fixationCross,7482,6.36,5,7237,5.43,2,1,1400,10563150,10563452,304,3068,1468.8,575.3,right,10563957,10563957,0,0,0
NS01,3,19,female,R,74,binary,2,24,10563957,10565357,fixationCross,7482,6.36,5,7237,5.43,2,1,1400,10563500,10563644,146,3357,1078.9,520.5,,10563957,10563957,0,0,0
NS01,3,19,female,R,74,binary,2,24,10563957,10565357,trial,7482,6.36,5,7237,5.43,2,1,1400,10563666,10564114,450,3486,956.8,520,,10563957,10564114,157,0.112142857142857,1
NS01,3,19,female,R,74,binary,2,24,10563957,10565357,trial,7482,6.36,5,7237,5.43,2,1,1400,10564164,10564758,596,3298,481.7,578.2,left,10564164,10564758,594,0.424285714285714,1
NS01,3,19,female,R,74,binary,2,24,10563957,10565357,trial,7482,6.36,5,7237,5.43,2,1,1400,10564780,10564972,194,2927,596.7,579.6,left,10564780,10564972,192,0.137142857142857,1
NS01,3,19,female,R,74,binary,2,24,10563957,10565357,postResponse,7482,6.36,5,7237,5.43,2,1,1400,10565032,10565702,672,2718,1406,552.4,right,10565032,10565357,325,0.232142857142857,1
NS01,3,19,female,R,21,continuous,1,21,10308087,10309870,fixationCross,2605,6.26,4,7300,5.64,4,1,1783,10307591,10307735,146,3431,937.5,486.3,,10308087,10308087,0,0,0
NS01,3,19,female,R,21,continuous,1,21,10308087,10309870,fixationCross,2605,6.26,4,7300,5.64,4,1,1783,10307753,10308013,262,3462,991.5,462.9,,10308087,10308087,0,0,0
NS01,3,19,female,R,21,continuous,1,21,10308087,10309870,trial,2605,6.26,4,7300,5.64,4,1,1783,10308031,10308251,222,3571,919,498.9,,10308087,10308251,164,0.0919798093101514,1
NS01,3,19,female,R,21,continuous,1,21,10308087,10309870,trial,2605,6.26,4,7300,5.64,4,1,1783,10308307,10308611,306,3477,505.9,558.8,left,10308307,10308611,304,0.170499158721256,1
NS01,3,19,female,R,21,continuous,1,21,10308087,10309870,trial,2605,6.26,4,7300,5.64,4,1,1783,10308621,10308763,144,3316,533.7,558.3,left,10308621,10308763,142,0.0796410544026921,1
NS01,3,19,female,R,21,continuous,1,21,10308087,10309870,trial,2605,6.26,4,7300,5.64,4,1,1783,10308823,10309167,346,3060,1435.5,562.1,right,10308823,10309167,344,0.192933258553001,1
NS01,3,19,female,R,21,continuous,1,21,10308087,10309870,trial,2605,6.26,4,7300,5.64,4,1,1783,10309185,10309345,162,2984,1476.9,608.3,right,10309185,10309345,160,0.089736399326977,1
NS01,3,19,female,R,21,continuous,1,21,10308087,10309870,trial,2605,6.26,4,7300,5.64,4,1,1783,10309427,10309531,106,3062,530.3,950,,10309427,10309531,104,0.0583286595625351,1
NS01,3,19,female,R,21,continuous,1,21,10308087,10309870,trial,2605,6.26,4,7300,5.64,4,1,1783,10309673,10310119,448,3200,456.2,588.3,left,10309673,10309870,197,0.11048794167134,1
NS01,3,19,female,R,21,continuous,1,21,10308087,10309870,postResponse,2605,6.26,4,7300,5.64,4,1,1783,10310143,10310221,80,3231,632.5,575.7,left,10309870,10309870,0,0,0
NS01,3,19,female,R,50,continuous,1,50,10437988,10439123,fixationCross,1675,5.24,4,7440,6.32,3,100,1135,10437469,10437729,262,3501,951.4,403.2,,10437988,10437988,0,0,0
NS01,3,19,female,R,50,continuous,1,50,10437988,10439123,fixationCross,1675,5.24,4,7440,6.32,3,100,1135,10437757,10437809,54,3680,915.8,503.5,,10437988,10437988,0,0,0
NS01,3,19,female,R,50,continuous,1,50,10437988,10439123,trial,1675,5.24,4,7440,6.32,3,100,1135,10437829,10438123,296,3683,957.9,541.7,,10437988,10438123,135,0.118942731277533,1
NS01,3,19,female,R,50,continuous,1,50,10437988,10439123,trial,1675,5.24,4,7440,6.32,3,100,1135,10438177,10438429,254,3440,541.2,544.9,left,10438177,10438429,252,0.222026431718062,1
NS01,3,19,female,R,50,continuous,1,50,10437988,10439123,trial,1675,5.24,4,7440,6.32,3,100,1135,10438487,10438763,278,3108,1394.1,532.5,right,10438487,10438763,276,0.243171806167401,1
NS01,3,19,female,R,50,continuous,1,50,10437988,10439123,postResponse,1675,5.24,4,7440,6.32,3,100,1135,10438791,10439445,656,3142,1448.1,672.4,right,10438791,10439123,332,0.292511013215859,1
NS01,3,19,female,R,52,binary,2,2,10507523,10508823,fixationCross,2056,6.34,4,7460,6.81,3,2,1300,10506880,10507228,350,3966,976,645,,10507523,10507523,0,0,0
NS01,3,19,female,R,52,binary,2,2,10507523,10508823,fixationCross,2056,6.34,4,7460,6.81,3,2,1300,10507254,10507514,262,4171,963.2,575.7,,10507523,10507523,0,0,0
NS01,3,19,female,R,52,binary,2,2,10507523,10508823,trial,2056,6.34,4,7460,6.81,3,2,1300,10507532,10507682,152,4245,924.9,548.5,,10507532,10507682,150,0.115384615384615,1
NS01,3,19,female,R,52,binary,2,2,10507523,10508823,trial,2056,6.34,4,7460,6.81,3,2,1300,10507744,10507990,248,4147,389.1,663.3,left,10507744,10507990,246,0.189230769230769,1
NS01,3,19,female,R,52,binary,2,2,10507523,10508823,trial,2056,6.34,4,7460,6.81,3,2,1300,10508010,10508282,274,3811,432.6,706.4,left,10508010,10508282,272,0.209230769230769,1
NS01,3,19,female,R,52,binary,2,2,10507523,10508823,trial,2056,6.34,4,7460,6.81,3,2,1300,10508674,10508798,126,3356,1475.9,951.8,,10508674,10508798,124,0.0953846153846154,1
NS01,3,19,female,R,52,binary,2,2,10507523,10508823,trial,2056,6.34,4,7460,6.81,3,2,1300,10508834,10509094,262,3361,1435.8,563.6,right,10508823,10508823,0,0,0
NS01,3,19,female,R,29,continuous,1,29,10373221,10374721,fixationCross,7240,6.02,5,7500,5.33,3,1,1500,10372685,10372685,2,3184,966.6,518.4,,10373221,10373221,0,0,0
NS01,3,19,female,R,29,continuous,1,29,10373221,10374721,fixationCross,7240,6.02,5,7500,5.33,3,1,1500,10372699,10372957,260,3472,945.8,408.2,,10373221,10373221,0,0,0
NS01,3,19,female,R,29,continuous,1,29,10373221,10374721,trial,7240,6.02,5,7500,5.33,3,1,1500,10372983,10373363,382,3670,987.7,470,,10373221,10373363,142,0.0946666666666667,1
NS01,3,19,female,R,29,continuous,1,29,10373221,10374721,trial,7240,6.02,5,7500,5.33,3,1,1500,10373421,10373803,384,3392,505.6,549.4,left,10373421,10373803,382,0.254666666666667,1
NS01,3,19,female,R,29,continuous,1,29,10373221,10374721,trial,7240,6.02,5,7500,5.33,3,1,1500,10373869,10374147,280,2974,1450.1,525.7,right,10373869,10374147,278,0.185333333333333,1
NS01,3,19,female,R,29,continuous,1,29,10373221,10374721,trial,7240,6.02,5,7500,5.33,3,1,1500,10374175,10374935,762,2984,1503.6,661.9,right,10374175,10374721,546,0.364,1
NS01,3,19,female,R,12,continuous,1,12,10276054,10278521,fixationCross,6250,6.32,4,7505,6.1,4,81,2467,10275369,10275465,98,3462,1174.6,397.8,,10276054,10276054,0,0,0
NS01,3,19,female,R,12,continuous,1,12,10276054,10278521,fixationCross,6250,6.32,4,7505,6.1,4,81,2467,10275505,10275749,246,3731,924.2,416.6,,10276054,10276054,0,0,0
NS01,3,19,female,R,12,continuous,1,12,10276054,10278521,trial,6250,6.32,4,7505,6.1,4,81,2467,10275773,10276105,334,3776,985.1,501.1,,10276054,10276105,51,0.0206728820429672,1
NS01,3,19,female,R,12,continuous,1,12,10276054,10278521,trial,6250,6.32,4,7505,6.1,4,81,2467,10276123,10276207,86,3625,911.8,512.8,,10276123,10276207,84,0.0340494527766518,1
NS01,3,19,female,R,12,continuous,1,12,10276054,10278521,trial,6250,6.32,4,7505,6.1,4,81,2467,10276263,10276433,172,3525,459.4,521.5,left,10276263,10276433,170,0.0689096068098906,1
NS01,3,19,female,R,12,continuous,1,12,10276054,10278521,trial,6250,6.32,4,7505,6.1,4,81,2467,10276449,10276661,214,3291,503.1,485.5,left,10276449,10276661,212,0.0859343331982165,1
NS01,3,19,female,R,12,continuous,1,12,10276054,10278521,trial,6250,6.32,4,7505,6.1,4,81,2467,10276723,10277101,380,3004,1439.8,539.8,right,10276723,10277101,378,0.153222537494933,1
NS01,3,19,female,R,12,continuous,1,12,10276054,10278521,trial,6250,6.32,4,7505,6.1,4,81,2467,10277125,10277461,338,3163,1480.8,615.2,right,10277125,10277461,336,0.136197811106607,1
NS01,3,19,female,R,12,continuous,1,12,10276054,10278521,trial,6250,6.32,4,7505,6.1,4,81,2467,10277511,10277713,204,3548,1230.5,968.2,,10277511,10277713,202,0.0818808269152817,1
NS01,3,19,female,R,12,continuous,1,12,10276054,10278521,trial,6250,6.32,4,7505,6.1,4,81,2467,10277785,10277957,174,3613,474.9,541,left,10277785,10277957,172,0.0697203080664775,1
NS01,3,19,female,R,12,continuous,1,12,10276054,10278521,trial,6250,6.32,4,7505,6.1,4,81,2467,10277979,10278801,824,3612,491.7,505.7,left,10277979,10278521,542,0.219700040535063,1
NS01,3,19,female,R,42,continuous,1,42,10416222,10417456,fixationCross,1333,6.11,4,7620,5.78,4,1,1234,10415451,10415633,184,2948,629.8,559.8,left,10416222,10416222,0,0,0
NS01,3,19,female,R,42,continuous,1,42,10416222,10417456,fixationCross,1333,6.11,4,7620,5.78,4,1,1234,10415659,10415929,272,3010,831.7,518,,10416222,10416222,0,0,0
NS01,3,19,female,R,42,continuous,1,42,10416222,10417456,trial,1333,6.11,4,7620,5.78,4,1,1234,10415949,10416231,284,3084,911.3,493.2,,10416222,10416231,9,0.00729335494327391,1
NS01,3,19,female,R,42,continuous,1,42,10416222,10417456,trial,1333,6.11,4,7620,5.78,4,1,1234,10416251,10416387,138,3119,815.1,475.6,,10416251,10416387,136,0.110210696920583,1
NS01,3,19,female,R,42,continuous,1,42,10416222,10417456,trial,1333,6.11,4,7620,5.78,4,1,1234,10416439,10416709,272,3192,455.7,503.9,left,10416439,10416709,270,0.218800648298217,1
NS01,3,19,female,R,42,continuous,1,42,10416222,10417456,trial,1333,6.11,4,7620,5.78,4,1,1234,10416735,10416953,220,3060,636.1,572.9,left,10416735,10416953,218,0.176661264181524,1
NS01,3,19,female,R,42,continuous,1,42,10416222,10417456,trial,1333,6.11,4,7620,5.78,4,1,1234,10417011,10417513,504,2959,1366.3,617.6,right,10417011,10417456,445,0.360615883306321,1
NS01,3,19,female,R,42,continuous,1,42,10416222,10417456,postResponse,1333,6.11,4,7620,5.78,4,1,1234,10417531,10417805,276,3008,1438.6,614,right,10417456,10417456,0,0,0
NS01,3,19,female,R,51,binary,2,1,10503790,10506440,fixationCross,2302,6.43,4,7830,5.26,2,1,2650,10503082,10503474,394,3646,1242.1,677.9,right,10503790,10503790,0,0,0
NS01,3,19,female,R,51,binary,2,1,10503790,10506440,fixationCross,2302,6.43,4,7830,5.26,2,1,2650,10503516,10503732,218,3705,958.3,575.7,,10503790,10503790,0,0,0
NS01,3,19,female,R,51,binary,2,1,10503790,10506440,trial,2302,6.43,4,7830,5.26,2,1,2650,10503748,10504012,266,3671,940.8,551.1,,10503790,10504012,222,0.0837735849056604,1
NS01,3,19,female,R,51,binary,2,1,10503790,10506440,trial,2302,6.43,4,7830,5.26,2,1,2650,10504074,10504426,354,3618,438.4,593.4,left,10504074,10504426,352,0.132830188679245,1
NS01,3,19,female,R,51,binary,2,1,10503790,10506440,trial,2302,6.43,4,7830,5.26,2,1,2650,10505182,10505330,150,3661,1431.1,957.8,,10505182,10505330,148,0.0558490566037736,1
NS01,3,19,female,R,51,binary,2,1,10503790,10506440,trial,2302,6.43,4,7830,5.26,2,1,2650,10505364,10505608,246,3707,1487.5,614.6,right,10505364,10505608,244,0.0920754716981132,1
NS01,3,19,female,R,51,binary,2,1,10503790,10506440,trial,2302,6.43,4,7830,5.26,2,1,2650,10505636,10505810,176,3775,1411.4,513.5,right,10505636,10505810,174,0.0656603773584906,1
NS01,3,19,female,R,51,binary,2,1,10503790,10506440,trial,2302,6.43,4,7830,5.26,2,1,2650,10505890,10506192,304,3768,399.1,587.9,left,10505890,10506192,302,0.113962264150943,1
NS01,3,19,female,R,51,binary,2,1,10503790,10506440,trial,2302,6.43,4,7830,5.26,2,1,2650,10506254,10506350,98,3614,1374.8,562.4,right,10506254,10506350,96,0.0362264150943396,1
NS01,3,19,female,R,51,binary,2,1,10503790,10506440,trial,2302,6.43,4,7830,5.26,2,1,2650,10506456,10506486,32,3841,476.9,965.5,,10506440,10506440,0,0,0
NS01,3,19,female,R,51,binary,2,1,10503790,10506440,postResponse,2302,6.43,4,7830,5.26,2,1,2650,10506718,10506776,60,3834,834.6,814.2,likertHorizontal,10506440,10506440,0,0,0
NS01,3,19,female,R,35,continuous,1,35,10394905,10396872,fixationCross,2980,5.61,4,8211,5.76,4,100,1967,10394653,10394837,186,3446,900.4,470.2,,10394905,10394905,0,0,0
NS01,3,19,female,R,35,continuous,1,35,10394905,10396872,trial,2980,5.61,4,8211,5.76,4,100,1967,10394859,10395071,214,3676,950.9,481.1,,10394905,10395071,166,0.0843924758515506,1
NS01,3,19,female,R,35,continuous,1,35,10394905,10396872,trial,2980,5.61,4,8211,5.76,4,100,1967,10395129,10395769,642,3250,478.7,533.1,left,10395129,10395769,640,0.32536858159634,1
NS01,3,19,female,R,35,continuous,1,35,10394905,10396872,trial,2980,5.61,4,8211,5.76,4,100,1967,10395835,10396699,866,2911,1440.8,568.4,right,10395835,10396699,864,0.439247585155059,1
NS01,3,19,female,R,35,continuous,1,35,10394905,10396872,trial,2980,5.61,4,8211,5.76,4,100,1967,10396727,10397073,348,2878,1579.9,667.2,right,10396727,10396872,145,0.0737163192679207,1
NS01,3,19,female,R,7,continuous,1,7,10252403,10256404,fixationCross,7515,6.19,4,8312,5.37,4,52,4001,10251705,10251741,38,3562,754.8,554.2,,10252403,10252403,0,0,0
NS01,3,19,female,R,7,continuous,1,7,10252403,10256404,fixationCross,7515,6.19,4,8312,5.37,4,52,4001,10251787,10252087,302,3723,1087.4,558,,10252403,10252403,0,0,0
NS01,3,19,female,R,7,continuous,1,7,10252403,10256404,fixationCross,7515,6.19,4,8312,5.37,4,52,4001,10252113,10252273,162,3959,972.8,518.2,,10252403,10252403,0,0,0
NS01,3,19,female,R,7,continuous,1,7,10252403,10256404,trial,7515,6.19,4,8312,5.37,4,52,4001,10252473,10252589,118,4039,981.6,495.6,,10252473,10252589,116,0.028992751812047,1
NS01,3,19,female,R,7,continuous,1,7,10252403,10256404,trial,7515,6.19,4,8312,5.37,4,52,4001,10252645,10252929,286,4000,497.8,545.8,left,10252645,10252929,284,0.0709822544363909,1
NS01,3,19,female,R,7,continuous,1,7,10252403,10256404,trial,7515,6.19,4,8312,5.37,4,52,4001,10252949,10253117,170,3714,406.2,513.1,left,10252949,10253117,168,0.0419895026243439,1
NS01,3,19,female,R,7,continuous,1,7,10252403,10256404,trial,7515,6.19,4,8312,5.37,4,52,4001,10253133,10253253,122,3562,350.4,499.4,left,10253133,10253253,120,0.0299925018745314,1
NS01,3,19,female,R,7,continuous,1,7,10252403,10256404,trial,7515,6.19,4,8312,5.37,4,52,4001,10253317,10253585,270,3255,1391.8,566.7,right,10253317,10253585,268,0.0669832541864534,1
