participantNo,block,task,blockTrial,response,trialStage,trialStartTime,trialFinishTime,rt,trial,eye,fixStart,fixEnd,fixLength,fixPosX,fixPosY,dilation,aoi,fixStartTr,fixEndTr,fixDurationTr,fixDurationProp,intra_choice
2,1,binary,1,1,fixationCross,4334788,4337438,2650,1,R,4334492,4334750,260,942.6,846.6,4084,likertHorizontal,4334788,4334788,0,0,0
2,1,binary,1,1,trial,4334788,4337438,2650,1,R,4334944,4335026,84,965.3,544.4,4114,,4334944,4335026,82,0.0309433962264151,1
2,1,binary,1,1,trial,4334788,4337438,2650,1,R,4335130,4335224,96,1329.6,506.2,4157,right,4335130,4335224,94,0.0354716981132076,1
2,1,binary,1,1,trial,4334788,4337438,2650,1,R,4335286,4335390,106,636.4,918.5,3987,,4335286,4335390,104,0.0392452830188679,1
2,1,binary,1,1,trial,4334788,4337438,2650,1,R,4335414,4335642,230,468.7,968.6,3774,,4335414,4335642,228,0.0860377358490566,1
2,1,binary,1,1,trial,4334788,4337438,2650,1,R,4335710,4335868,160,1476.8,955.3,3739,,4335710,4335868,158,0.059622641509434,1
2,1,binary,1,1,trial,4334788,4337438,2650,1,R,4335888,4335994,108,1437.1,998.6,3723,,4335888,4335994,106,0.04,1
2,1,binary,1,1,trial,4334788,4337438,2650,1,R,4336050,4336214,166,1458.4,537.3,3841,right,4336050,4336214,164,0.0618867924528302,1
2,1,binary,1,1,trial,4334788,4337438,2650,1,R,4336282,4336796,516,523.2,570.9,3612,left,4336282,4336796,514,0.193962264150943,1
2,1,binary,1,1,trial,4334788,4337438,2650,1,R,4336832,4336944,114,488.9,920,3407,,4336832,4336944,112,0.0422641509433962,1
2,1,binary,1,1,trial,4334788,4337438,2650,1,R,4336960,4337296,338,485.3,959.9,3448,,4336960,4337296,336,0.126792452830189,1
2,1,binary,1,1,trial,4334788,4337438,2650,1,R,4337308,4337692,386,501.5,980.1,3516,,4337308,4337438,130,0.0490566037735849,1
2,1,binary,1,1,postResponse,4334788,4337438,2650,1,R,4337762,4337798,38,929.2,539.8,3514,,4337438,4337438,0,0,0
2,1,binary,2,2,trial,4338171,4340638,2467,2,R,4337898,4338328,432,934.6,539.9,3672,,4338171,4338328,157,0.0636400486420754,1
2,1,binary,2,2,trial,4338171,4340638,2467,2,R,4338380,4338682,304,1383.8,604.4,3689,right,4338380,4338682,302,0.122415889744629,1
2,1,binary,2,2,trial,4338171,4340638,2467,2,R,4338750,4339030,282,477.2,562.2,3345,left,4338750,4339030,280,0.113498175922173,1
2,1,binary,2,2,trial,4338171,4340638,2467,2,R,4339048,4339216,170,535.8,593.8,3218,left,4339048,4339216,168,0.0680989055533036,1
2,1,binary,2,2,trial,4338171,4340638,2467,2,R,4339280,4339770,492,1424.5,593.4,3343,right,4339280,4339770,490,0.198621807863802,1
2,1,binary,2,2,trial,4338171,4340638,2467,2,R,4339796,4340200,406,1598.4,530.7,3378,right,4339796,4340200,404,0.163761653830563,1
2,1,binary,2,2,trial,4338171,4340638,2467,2,R,4340250,4340522,274,1435.5,1021.3,3436,,4340250,4340522,272,0.110255370895825,1
2,1,binary,2,2,trial,4338171,4340638,2467,2,R,4340566,4340926,362,1392.4,588.6,3575,right,4340566,4340638,72,0.0291852452371301,1
2,1,binary,3,1,trial,4341372,4344689,3317,3,R,4341084,4341536,454,1064.4,522.6,3731,,4341372,4341536,164,0.0494422671088333,1
2,1,binary,3,1,trial,4341372,4344689,3317,3,R,4341580,4341760,182,1428.5,549.4,3896,right,4341580,4341760,180,0.0542659029243292,1
2,1,binary,3,1,trial,4341372,4344689,3317,3,R,4341774,4341960,188,1471.1,574.2,3663,right,4341774,4341960,186,0.0560747663551402,1
2,1,binary,3,1,trial,4341372,4344689,3317,3,R,4342032,4342204,174,526.9,535.1,3428,left,4342032,4342204,172,0.0518540850165813,1
2,1,binary,3,1,trial,4341372,4344689,3317,3,R,4342224,4342522,300,531.9,490,3317,left,4342224,4342522,298,0.0898402170636117,1
2,1,binary,3,1,trial,4341372,4344689,3317,3,R,4342536,4342852,318,577.3,506.8,3285,left,4342536,4342852,316,0.0952668073560446,1
2,1,binary,3,1,trial,4341372,4344689,3317,3,R,4342916,4343610,696,1471.8,563.2,3428,right,4342916,4343610,694,0.209225203497136,1
2,1,binary,3,1,trial,4341372,4344689,3317,3,R,4343638,4343880,244,1479.4,717.4,3557,right,4343638,4343880,242,0.072957491709376,1
2,1,binary,3,1,trial,4341372,4344689,3317,3,R,4343954,4344328,376,513.9,543.6,3466,left,4343954,4344328,374,0.112752487187217,1
2,1,binary,3,1,trial,4341372,4344689,3317,3,R,4344350,4344628,280,535.7,483.4,3477,left,4344350,4344628,278,0.0838106722942418,1
2,1,binary,3,1,postResponse,4341372,4344689,3317,3,R,4344648,4345024,378,601.6,506.5,3525,left,4344648,4344689,41,0.0123605667772083,1
2,1,binary,4,1,trial,4345371,4347105,1734,4,R,4345124,4345438,316,610.7,509.7,3656,left,4345371,4345438,67,0.038638985005767,1
2,1,binary,4,1,trial,4345371,4347105,1734,4,R,4345476,4345612,138,930.9,543.6,3797,,4345476,4345612,136,0.0784313725490196,1
2,1,binary,4,1,trial,4345371,4347105,1734,4,R,4345660,4346002,344,493.1,555.5,3641,left,4345660,4346002,342,0.197231833910035,1
2,1,binary,4,1,trial,4345371,4347105,1734,4,R,4346068,4346350,284,1441.8,508.9,3493,right,4346068,4346350,282,0.162629757785467,1
2,1,binary,4,1,trial,4345371,4347105,1734,4,R,4346422,4347002,582,480.6,563.9,3334,left,4346422,4347002,580,0.334486735870819,1
2,1,binary,4,1,postResponse,4345371,4347105,1734,4,R,4347018,4347464,448,539.3,544.7,3250,left,4347018,4347105,87,0.0501730103806228,1
2,1,binary,5,2,trial,4347838,4350339,2501,5,R,4347564,4348068,506,549.6,545.4,3479,left,4347838,4348068,230,0.0919632147141144,1
2,1,binary,5,2,trial,4347838,4350339,2501,5,R,4348088,4348170,84,502.1,544,3594,left,4348088,4348170,82,0.0327868852459016,1
2,1,binary,5,2,trial,4347838,4350339,2501,5,R,4348240,4348364,126,1510.7,499.9,3428,right,4348240,4348364,124,0.0495801679328269,1
2,1,binary,5,2,trial,4347838,4350339,2501,5,R,4348498,4348676,180,1446,530,3380,right,4348498,4348676,178,0.071171531387445,1
2,1,binary,5,2,trial,4347838,4350339,2501,5,R,4348686,4348856,172,1425.7,521.3,3578,right,4348686,4348856,170,0.0679728108756497,1
2,1,binary,5,2,trial,4347838,4350339,2501,5,R,4348882,4349182,302,1604.4,547.7,3549,right,4348882,4349182,300,0.119952019192323,1
2,1,binary,5,2,trial,4347838,4350339,2501,5,R,4349208,4349524,318,1513.1,673.2,3550,right,4349208,4349524,316,0.126349460215914,1
2,1,binary,5,2,trial,4347838,4350339,2501,5,R,4349600,4349924,326,530.2,559.6,3524,left,4349600,4349924,324,0.129548180727709,1
2,1,binary,5,2,trial,4347838,4350339,2501,5,R,4349994,4350190,198,1560.9,575.2,3402,right,4349994,4350190,196,0.0783686525389844,1
2,1,binary,5,2,postResponse,4347838,4350339,2501,5,R,4350214,4350678,466,1449.9,520.8,3449,right,4350214,4350339,125,0.0499800079968013,1
2,1,binary,6,2,trial,4351088,4353056,1968,6,R,4350778,4351112,336,1449.9,523.1,3760,right,4351088,4351112,24,0.0121951219512195,1
2,1,binary,6,2,trial,4351088,4353056,1968,6,R,4351160,4351280,122,996.8,532.2,3779,,4351160,4351280,120,0.0609756097560976,1
2,1,binary,6,2,trial,4351088,4353056,1968,6,R,4351330,4351720,392,558.1,539.4,3603,left,4351330,4351720,390,0.198170731707317,1
2,1,binary,6,2,trial,4351088,4353056,1968,6,R,4351784,4352060,278,1421.8,534.6,3431,right,4351784,4352060,276,0.140243902439024,1
2,1,binary,6,2,trial,4351088,4353056,1968,6,R,4352078,4352636,560,1335.1,565,3337,right,4352078,4352636,558,0.283536585365854,1
2,1,binary,6,2,trial,4351088,4353056,1968,6,R,4352666,4352868,204,1554.1,520.3,3325,right,4352666,4352868,202,0.102642276422764,1
2,1,binary,6,2,trial,4351088,4353056,1968,6,R,4352938,4353322,386,563.1,562.1,3304,left,4352938,4353056,118,0.0599593495934959,1
2,1,binary,6,2,postResponse,4351088,4353056,1968,6,R,4353344,4353386,44,737.1,542.5,3368,,4353056,4353056,0,0,0
2,1,binary,7,2,trial,4353705,4355555,1850,7,R,4353462,4353872,412,774.5,545.5,3509,,4353705,4353872,167,0.0902702702702703,1
2,1,binary,7,2,trial,4353705,4355555,1850,7,R,4353908,4354130,224,534,503.7,3653,left,4353908,4354130,222,0.12,1
2,1,binary,7,2,trial,4353705,4355555,1850,7,R,4354194,4354424,232,1430,523.3,3638,right,4354194,4354424,230,0.124324324324324,1
2,1,binary,7,2,trial,4353705,4355555,1850,7,R,4354626,4354918,294,1441.1,517.8,3643,right,4354626,4354918,292,0.157837837837838,1
2,1,binary,7,2,trial,4353705,4355555,1850,7,R,4354988,4355468,482,529.8,505.5,3474,left,4354988,4355468,480,0.259459459459459,1
2,1,binary,7,2,postResponse,4353705,4355555,1850,7,R,4355480,4355888,410,539,476.7,3398,left,4355480,4355555,75,0.0405405405405405,1
2,1,binary,8,2,trial,4356221,4358255,2034,8,R,4355962,4356382,422,692.6,494.7,3552,left,4356221,4356382,161,0.0791543756145526,1
2,1,binary,8,2,trial,4356221,4358255,2034,8,R,4356420,4356600,182,477,547.6,3630,left,4356420,4356600,180,0.0884955752212389,1
2,1,binary,8,2,trial,4356221,4358255,2034,8,R,4356616,4356696,82,424.9,556.1,3479,left,4356616,4356696,80,0.0393313667649951,1
2,1,binary,8,2,trial,4356221,4358255,2034,8,R,4356720,4356922,204,561.5,486.8,3352,left,4356720,4356922,202,0.0993117010816126,1
2,1,binary,8,2,trial,4356221,4358255,2034,8,R,4356990,4357194,206,1486.6,540.1,3296,right,4356990,4357194,204,0.100294985250737,1
2,1,binary,8,2,trial,4356221,4358255,2034,8,R,4357220,4357376,158,1320,568.3,3232,right,4357220,4357376,156,0.0766961651917404,1
2,1,binary,8,2,trial,4356221,4358255,2034,8,R,4357388,4357878,492,1273.2,559.5,3206,right,4357388,4357878,490,0.240904621435595,1
2,1,binary,8,2,trial,4356221,4358255,2034,8,R,4357940,4358096,158,519.9,516.2,3245,left,4357940,4358096,156,0.0766961651917404,1
2,1,binary,8,2,trial,4356221,4358255,2034,8,R,4358116,4358536,422,573.3,494.5,3268,left,4358116,4358255,139,0.068338249754179,1
2,1,binary,9,1,trial,4358922,4360722,1800,9,R,4358660,4359108,450,874.5,496.8,3431,,4358922,4359108,186,0.103333333333333,1
2,1,binary,9,1,trial,4358922,4360722,1800,9,R,4359156,4359308,154,480.4,555.5,3622,left,4359156,4359308,152,0.0844444444444445,1
2,1,binary,9,1,trial,4358922,4360722,1800,9,R,4359336,4359522,188,421.5,438.8,3545,left,4359336,4359522,186,0.103333333333333,1
2,1,binary,9,1,trial,4358922,4360722,1800,9,R,4359542,4359742,202,418,417.9,3465,left,4359542,4359742,200,0.111111111111111,1
2,1,binary,9,1,trial,4358922,4360722,1800,9,R,4359810,4360276,468,1395.1,517.3,3502,right,4359810,4360276,466,0.258888888888889,1
2,1,binary,9,1,trial,4358922,4360722,1800,9,R,4360358,4360520,164,369,442.9,3371,left,4360358,4360520,162,0.09,1
2,1,binary,9,1,postResponse,4358922,4360722,1800,9,R,4360536,4361040,506,420.2,431.4,3254,left,4360536,4360722,186,0.103333333333333,1
2,1,binary,10,2,trial,4361422,4363355,1933,10,R,4361154,4361618,466,517.2,449.3,3341,left,4361422,4361618,196,0.10139679255044,1
2,1,binary,10,2,trial,4361422,4363355,1933,10,R,4361660,4361902,244,472.4,589.4,3312,left,4361660,4361902,242,0.125193998965339,1
2,1,binary,10,2,trial,4361422,4363355,1933,10,R,4361976,4362124,150,1445.1,466.5,3252,right,4361976,4362124,148,0.0765649249870667,1
2,1,binary,10,2,trial,4361422,4363355,1933,10,R,4362146,4362508,364,1357.8,490.8,3215,right,4362146,4362508,362,0.187273667873771,1
2,1,binary,10,2,trial,4361422,4363355,1933,10,R,4362524,4362888,366,1392.3,459.2,3250,right,4362524,4362888,364,0.188308329022245,1
2,1,binary,10,2,trial,4361422,4363355,1933,10,R,4362900,4363150,252,1357.9,481.2,3333,right,4362900,4363150,250,0.129332643559234,1
2,1,binary,10,2,trial,4361422,4363355,1933,10,R,4363220,4363586,368,490.9,511.9,3345,left,4363220,4363355,135,0.0698396275219866,1
2,1,binary,11,1,trial,4364055,4366906,2851,11,R,4363784,4364200,418,635.7,470.3,3450,left,4364055,4364200,145,0.0508593475973343,1
2,1,binary,11,1,trial,4364055,4366906,2851,11,R,4364238,4364610,374,459.8,579.3,3371,left,4364238,4364610,372,0.130480533146265,1
2,1,binary,11,1,trial,4364055,4366906,2851,11,R,4364680,4364826,148,1449.3,518,3299,right,4364680,4364826,146,0.0512101017186952,1
2,1,binary,11,1,trial,4364055,4366906,2851,11,R,4364852,4365088,238,1337.7,437,3332,right,4364852,4365088,236,0.0827779726411785,1
2,1,binary,11,1,trial,4364055,4366906,2851,11,R,4365120,4365370,252,1346.3,584.2,3526,right,4365120,4365370,250,0.0876885303402315,1
2,1,binary,11,1,trial,4364055,4366906,2851,11,R,4365392,4365732,342,1393,521.8,3516,right,4365392,4365732,340,0.119256401262715,1
2,1,binary,11,1,trial,4364055,4366906,2851,11,R,4365758,4366058,302,1556.4,575.9,3473,right,4365758,4366058,300,0.105226236408278,1
2,1,binary,11,1,trial,4364055,4366906,2851,11,R,4366140,4366302,164,432.8,596.9,3413,left,4366140,4366302,162,0.05682216766047,1
2,1,binary,11,1,trial,4364055,4366906,2851,11,R,4366316,4366580,266,467.1,589.5,3311,left,4366316,4366580,264,0.0925990880392845,1
2,1,binary,11,1,postResponse,4364055,4366906,2851,11,R,4366594,4367238,646,459.2,563,3205,left,4366594,4366906,312,0.109435285864609,1
2,1,binary,12,1,trial,4367589,4369705,2116,12,R,4367312,4367870,560,477.5,566.2,3463,left,4367589,4367870,281,0.132797731568998,1
2,1,binary,12,1,trial,4367589,4369705,2116,12,R,4367954,4368198,246,1495.1,559.7,3553,right,4367954,4368198,244,0.11531190926276,1
2,1,binary,12,1,trial,4367589,4369705,2116,12,R,4368222,4368556,336,1512.6,494.9,3574,right,4368222,4368556,334,0.157844990548204,1
2,1,binary,12,1,trial,4367589,4369705,2116,12,R,4368630,4368918,290,500.8,539.3,3423,left,4368630,4368918,288,0.136105860113422,1
2,1,binary,12,1,trial,4367589,4369705,2116,12,R,4368932,4369182,252,466.9,573.3,3350,left,4368932,4369182,250,0.118147448015123,1
2,1,binary,12,1,trial,4367589,4369705,2116,12,R,4369208,4369426,220,627,569.1,3335,left,4369208,4369426,218,0.103024574669187,1
2,1,binary,12,1,trial,4367589,4369705,2116,12,R,4369458,4369752,296,420.3,580.3,3351,left,4369458,4369705,247,0.116729678638941,1
2,1,binary,12,1,postResponse,4367589,4369705,2116,12,R,4369768,4370036,270,473.6,573.2,3350,left,4369705,4369705,0,0,0
2,1,binary,13,2,trial,4370355,4372322,1967,13,R,4370110,4370550,442,478.4,572.1,3416,left,4370355,4370550,195,0.0991357397051347,1
2,1,binary,13,2,trial,4370355,4372322,1967,13,R,4370574,4370900,328,509.3,498.2,3335,left,4370574,4370900,326,0.165734621250635,1
2,1,binary,13,2,trial,4370355,4372322,1967,13,R,4370968,4371328,362,1416.2,588.6,3268,right,4370968,4371328,360,0.183019827147941,1
2,1,binary,13,2,trial,4370355,4372322,1967,13,R,4371358,4371646,290,1531.3,677.1,3418,right,4371358,4371646,288,0.146415861718353,1
2,1,binary,13,2,trial,4370355,4372322,1967,13,R,4371686,4371922,238,1497.5,484.8,3417,right,4371686,4371922,236,0.11997966446365,1
2,1,binary,13,2,trial,4370355,4372322,1967,13,R,4371994,4372264,272,520.3,514.6,3330,left,4371994,4372264,270,0.137264870360956,1
2,1,binary,13,2,postResponse,4370355,4372322,1967,13,R,4372326,4372674,350,1383.2,613.6,3465,right,4372322,4372322,0,0,0
2,1,binary,14,1,fixationCross,4373022,4374389,1367,14,R,4372748,4372766,20,1380.8,609.3,3588,right,4373022,4373022,0,0,0
2,1,binary,14,1,trial,4373022,4374389,1367,14,R,4372808,4373196,390,1042.5,465,3662,,4373022,4373196,174,0.127286027798098,1
2,1,binary,14,1,trial,4373022,4374389,1367,14,R,4373244,4373494,252,540.9,551.9,3580,left,4373244,4373494,250,0.182882223847842,1
2,1,binary,14,1,trial,4373022,4374389,1367,14,R,4373558,4373862,306,1476.8,569.7,3320,right,4373558,4373862,304,0.222384784198976,1
2,1,binary,14,1,trial,4373022,4374389,1367,14,R,4373934,4374690,758,498.7,586.1,3143,left,4373934,4374389,455,0.332845647403072,1
2,1,binary,15,2,trial,4375089,4378155,3066,15,R,4374822,4375276,456,567.5,534.3,3247,left,4375089,4375276,187,0.0609915198956295,1
2,1,binary,15,2,trial,4375089,4378155,3066,15,R,4375294,4375444,152,529.7,572.1,3331,left,4375294,4375444,150,0.0489236790606654,1
2,1,binary,15,2,trial,4375089,4378155,3066,15,R,4375510,4375764,256,1418.8,587.4,3353,right,4375510,4375764,254,0.0828440965427267,1
2,1,binary,15,2,trial,4375089,4378155,3066,15,R,4375786,4375976,192,1438.7,493.1,3437,right,4375786,4375976,190,0.0619699934768428,1
2,1,binary,15,2,trial,4375089,4378155,3066,15,R,4376038,4376166,130,585.7,553.4,3471,left,4376038,4376166,128,0.0417482061317678,1
2,1,binary,15,2,trial,4375089,4378155,3066,15,R,4376182,4376500,320,530.1,567.6,3425,left,4376182,4376500,318,0.103718199608611,1
2,1,binary,15,2,trial,4375089,4378155,3066,15,R,4376564,4377028,466,1463.1,569.6,3482,right,4376564,4377028,464,0.151337247227658,1
2,1,binary,15,2,trial,4375089,4378155,3066,15,R,4377100,4377474,376,524.6,559.1,3427,left,4377100,4377474,374,0.121983039791259,1
2,1,binary,15,2,trial,4375089,4378155,3066,15,R,4377496,4377714,220,608.3,596.3,3399,left,4377496,4377714,218,0.071102413568167,1
2,1,binary,15,2,trial,4375089,4378155,3066,15,R,4377778,4377984,208,1509.5,577.7,3424,right,4377778,4377984,206,0.0671885192433138,1
2,1,binary,15,2,trial,4375089,4378155,3066,15,R,4378008,4378346,340,1402.7,524.3,3460,right,4378008,4378155,147,0.0479452054794521,1
2,1,binary,16,1,trial,4378838,4381155,2317,16,R,4378586,4378972,388,816.3,512.1,3529,,4378838,4378972,134,0.0578334052654294,1
2,1,binary,16,1,trial,4378838,4381155,2317,16,R,4379018,4379260,244,438.2,489.3,3507,left,4379018,4379260,242,0.104445403539059,1
2,1,binary,16,1,trial,4378838,4381155,2317,16,R,4379272,4379666,396,428,458.6,3282,left,4379272,4379666,394,0.170047475183427,1
2,1,binary,16,1,trial,4378838,4381155,2317,16,R,4379734,4379976,244,1404.2,521.3,3392,right,4379734,4379976,242,0.104445403539059,1
2,1,binary,16,1,trial,4378838,4381155,2317,16,R,4379992,4380210,220,1449.5,538.7,3532,right,4379992,4380210,218,0.0940871817004748,1
2,1,binary,16,1,trial,4378838,4381155,2317,16,R,4380282,4380420,140,463.8,480.5,3454,left,4380282,4380420,138,0.0595597755718602,1
2,1,binary,16,1,trial,4378838,4381155,2317,16,R,4380436,4380718,284,430.2,447.7,3323,left,4380436,4380718,282,0.121709106603366,1
2,1,binary,16,1,trial,4378838,4381155,2317,16,R,4380746,4381400,656,492,638.2,3267,left,4380746,4381155,409,0.176521363832542,1
2,1,binary,16,1,postResponse,4378838,4381155,2317,16,R,4381426,4381486,62,550.2,493.3,3293,left,4381155,4381155,0,0,0
2,1,binary,17,1,trial,4381839,4385289,3450,17,R,4381586,4382194,610,561.5,494.9,3450,left,4381839,4382194,355,0.102898550724638,1
2,1,binary,17,1,trial,4381839,4385289,3450,17,R,4382258,4382654,398,1372,533.5,3347,right,4382258,4382654,396,0.114782608695652,1
2,1,binary,17,1,trial,4381839,4385289,3450,17,R,4382724,4382948,226,527,556.6,3228,left,4382724,4382948,224,0.0649275362318841,1
2,1,binary,17,1,trial,4381839,4385289,3450,17,R,4382978,4383182,206,559,691.2,3204,left,4382978,4383182,204,0.0591304347826087,1
2,1,binary,17,1,trial,4381839,4385289,3450,17,R,4383224,4383656,434,375.6,457.4,3142,left,4383224,4383656,432,0.125217391304348,1
2,1,binary,17,1,trial,4381839,4385289,3450,17,R,4383686,4383946,262,584.5,503,3118,left,4383686,4383946,260,0.0753623188405797,1
2,1,binary,17,1,trial,4381839,4385289,3450,17,R,4383980,4384924,946,546.2,711.6,3138,left,4383980,4384924,944,0.273623188405797,1
2,1,binary,17,1,postResponse,4381839,4385289,3450,17,R,4384956,4385624,670,530.3,479.4,3213,left,4384956,4385289,333,0.0965217391304348,1
2,1,binary,18,1,trial,4385955,4388089,2134,18,R,4385698,4386176,480,540.9,482,3417,left,4385955,4386176,221,0.103561387066542,1
2,1,binary,18,1,trial,4385955,4388089,2134,18,R,4386208,4386366,160,482.9,657.8,3468,left,4386208,4386366,158,0.0740393626991565,1
2,1,binary,18,1,trial,4385955,4388089,2134,18,R,4386432,4386692,262,1394,563.9,3366,right,4386432,4386692,260,0.121836925960637,1
2,1,binary,18,1,trial,4385955,4388089,2134,18,R,4386708,4387130,424,1448.4,555.7,3382,right,4386708,4387130,422,0.197750702905342,1
2,1,binary,18,1,trial,4385955,4388089,2134,18,R,4387146,4387360,216,1508.7,574,3308,right,4387146,4387360,214,0.100281162136832,1
2,1,binary,18,1,trial,4385955,4388089,2134,18,R,4387434,4388110,678,523.3,605.8,3146,left,4387434,4388089,655,0.306935332708529,1
2,1,binary,18,1,postResponse,4385955,4388089,2134,18,R,4388132,4388420,290,574.6,520.6,3170,left,4388089,4388089,0,0,0
2,1,binary,19,2,trial,4388739,4390522,1783,19,R,4388494,4388926,434,581.9,523.2,3383,left,4388739,4388926,187,0.104879416713404,1
2,1,binary,19,2,trial,4388739,4390522,1783,19,R,4389010,4389174,166,1472.1,577.7,3506,right,4389010,4389174,164,0.0919798093101514,1
2,1,binary,19,2,trial,4388739,4390522,1783,19,R,4389198,4389354,158,1541.1,521.8,3420,right,4389198,4389354,156,0.0874929893438026,1
2,1,binary,19,2,trial,4388739,4390522,1783,19,R,4389384,4389600,218,1377.1,494.4,3445,right,4389384,4389600,216,0.121144139091419,1
2,1,binary,19,2,trial,4388739,4390522,1783,19,R,4389626,4390042,418,1541.3,528,3483,right,4389626,4390042,416,0.23331463825014,1
2,1,binary,19,2,trial,4388739,4390522,1783,19,R,4390124,4390420,298,589.4,606.5,3438,left,4390124,4390420,296,0.166012338754907,1
2,1,binary,19,2,trial,4388739,4390522,1783,19,R,4390446,4390738,294,445.4,530.8,3264,left,4390446,4390522,76,0.0426247896803141,1
2,1,binary,19,2,postResponse,4388739,4390522,1783,19,R,4390812,4390854,44,1213.4,485.1,3245,right,4390522,4390522,0,0,0
2,1,binary,20,2,fixationCross,4391188,4393039,1851,20,R,4390928,4390944,18,1218.9,488.1,3245,right,4391188,4391188,0,0,0
2,1,binary,20,2,trial,4391188,4393039,1851,20,R,4390986,4391360,376,823.2,447.4,3362,,4391188,4391360,172,0.0929227444624527,1
2,1,binary,20,2,trial,4391188,4393039,1851,20,R,4391402,4391548,148,498.8,546.5,3397,left,4391402,4391548,146,0.0788762830902215,1
2,1,binary,20,2,trial,4391188,4393039,1851,20,R,4391570,4391690,122,525.8,454.1,3307,left,4391570,4391690,120,0.0648298217179903,1
2,1,binary,20,2,trial,4391188,4393039,1851,20,R,4391758,4391902,146,1493.1,548.8,3302,right,4391758,4391902,144,0.0777957860615883,1
2,1,binary,20,2,trial,4391188,4393039,1851,20,R,4391920,4392134,216,1537,594.9,3279,right,4391920,4392134,214,0.115613182063749,1
2,1,binary,20,2,trial,4391188,4393039,1851,20,R,4392146,4392336,192,1548,574.3,3328,right,4392146,4392336,190,0.102647217720151,1
2,1,binary,20,2,trial,4391188,4393039,1851,20,R,4392362,4392872,512,1403.7,524.4,3249,right,4392362,4392872,510,0.275526742301459,1
2,1,binary,20,2,postResponse,4391188,4393039,1851,20,R,4392894,4393370,478,1543.7,555,3352,right,4392894,4393039,145,0.0783360345759049,1
2,1,binary,21,2,trial,4393705,4396972,3267,21,R,4393444,4393864,422,900.3,482.9,3482,,4393705,4393864,159,0.0486685032139578,1
2,1,binary,21,2,trial,4393705,4396972,3267,21,R,4393910,4394112,204,500.5,527.9,3520,left,4393910,4394112,202,0.0618304254667891,1
2,1,binary,21,2,trial,4393705,4396972,3267,21,R,4394132,4394388,258,418.4,528.4,3257,left,4394132,4394388,256,0.0783593510866238,1
2,1,binary,21,2,trial,4393705,4396972,3267,21,R,4394402,4394662,262,375.9,520.7,3082,left,4394402,4394662,260,0.0795837159473523,1
2,1,binary,21,2,trial,4393705,4396972,3267,21,R,4394682,4394820,140,478.3,538.7,3061,left,4394682,4394820,138,0.0422405876951331,1
2,1,binary,21,2,trial,4393705,4396972,3267,21,R,4394886,4395228,344,1401.1,561.3,3141,right,4394886,4395228,342,0.104683195592286,1
2,1,binary,21,2,trial,4393705,4396972,3267,21,R,4395248,4395504,258,1494.5,601.1,3342,right,4395248,4395504,256,0.0783593510866238,1
2,1,binary,21,2,trial,4393705,4396972,3267,21,R,4395526,4396292,768,1590.1,576,3367,right,4395526,4396292,766,0.234465870829507,1
2,1,binary,21,2,trial,4393705,4396972,3267,21,R,4396320,4396522,204,1364.6,547.8,3400,right,4396320,4396522,202,0.0618304254667891,1
2,1,binary,21,2,trial,4393705,4396972,3267,21,R,4396546,4396794,250,1427.9,423.9,3418,right,4396546,4396794,248,0.0759106213651668,1
2,1,binary,21,2,trial,4393705,4396972,3267,21,R,4396824,4397158,336,1351.7,574.4,3460,right,4396824,4396972,148,0.0453014998469544,1
2,1,binary,22,2,trial,4397656,4400389,2733,22,R,4397402,4397802,402,872.1,499.8,3581,,4397656,4397802,146,0.0534211489206001,1
2,1,binary,22,2,trial,4397656,4400389,2733,22,R,4397848,4398028,182,501.6,573.1,3510,left,4397848,4398028,180,0.0658616904500549,1
2,1,binary,22,2,trial,4397656,4400389,2733,22,R,4398038,4398234,198,474.7,590.4,3376,left,4398038,4398234,196,0.0717160629345042,1
2,1,binary,22,2,trial,4397656,4400389,2733,22,R,4398302,4398514,214,1460.6,608.5,3386,right,4398302,4398514,212,0.0775704354189535,1
2,1,binary,22,2,trial,4397656,4400389,2733,22,R,4398530,4398796,268,1419.9,575.2,3372,right,4398530,4398796,266,0.09732894255397,1
2,1,binary,22,2,trial,4397656,4400389,2733,22,R,4398816,4398980,166,1448.3,496.8,3306,right,4398816,4398980,164,0.0600073179656056,1
2,1,binary,22,2,trial,4397656,4400389,2733,22,R,4399054,4399250,198,483.8,599.2,3198,left,4399054,4399250,196,0.0717160629345042,1
2,1,binary,22,2,trial,4397656,4400389,2733,22,R,4399262,4399462,202,466.8,585.7,3203,left,4399262,4399462,200,0.0731796560556165,1
2,1,binary,22,2,trial,4397656,4400389,2733,22,R,4399476,4399754,280,471.7,551.9,3223,left,4399476,4399754,278,0.101719721917307,1
2,1,binary,22,2,trial,4397656,4400389,2733,22,R,4399824,4400098,276,1459.3,591.4,3317,right,4399824,4400098,274,0.100256128796195,1
2,1,binary,22,2,trial,4397656,4400389,2733,22,R,4400112,4400602,492,1434.2,568.9,3262,right,4400112,4400389,277,0.101353823637029,1
2,1,binary,22,2,postResponse,4397656,4400389,2733,22,R,4400672,4400722,52,749.5,511.5,3197,,4400389,4400389,0,0,0
2,1,binary,23,2,trial,4401073,4402773,1700,23,R,4400796,4401212,418,752.7,515.2,3322,,4401073,4401212,139,0.081764705882353,1
2,1,binary,23,2,trial,4401073,4402773,1700,23,R,4401254,4401568,316,440.1,583.4,3328,left,4401254,4401568,314,0.184705882352941,1
2,1,binary,23,2,trial,4401073,4402773,1700,23,R,4401634,4401908,276,1329,602.1,3313,right,4401634,4401908,274,0.161176470588235,1
2,1,binary,23,2,postResponse,4401073,4402773,1700,23,R,4401920,4403104,1186,1377,604.7,3399,right,4401920,4402773,853,0.501764705882353,1
2,1,binary,24,1,trial,4403456,4406206,2750,24,R,4403204,4403516,314,1429.3,531.4,3596,right,4403456,4403516,60,0.0218181818181818,1
2,1,binary,24,1,trial,4403456,4406206,2750,24,R,4403562,4403688,128,971,527.1,3671,,4403562,4403688,126,0.0458181818181818,1
2,1,binary,24,1,trial,4403456,4406206,2750,24,R,4403734,4404304,572,543.3,529.9,3400,left,4403734,4404304,570,0.207272727272727,1
2,1,binary,24,1,trial,4403456,4406206,2750,24,R,4404316,4404628,314,504.8,549.6,3232,left,4404316,4404628,312,0.113454545454545,1
2,1,binary,24,1,trial,4403456,4406206,2750,24,R,4404646,4404818,174,550.6,501.8,3189,left,4404646,4404818,172,0.0625454545454545,1
2,1,binary,24,1,trial,4403456,4406206,2750,24,R,4404844,4405142,300,468.2,590.9,3163,left,4404844,4405142,298,0.108363636363636,1
2,1,binary,24,1,trial,4403456,4406206,2750,24,R,4405216,4405486,272,1481.7,491.8,3169,right,4405216,4405486,270,0.0981818181818182,1
2,1,binary,24,1,trial,4403456,4406206,2750,24,R,4405510,4405772,264,1437.7,387.8,3164,right,4405510,4405772,262,0.0952727272727273,1
2,1,binary,24,1,postResponse,4403456,4406206,2750,24,R,4405852,4406536,686,471.8,551.2,3075,left,4405852,4406206,354,0.128727272727273,1
2,1,binary,25,2,trial,4406872,4408756,1884,25,R,4406610,4407110,502,504.5,534.3,3250,left,4406872,4407110,238,0.126326963906582,1
2,1,binary,25,2,trial,4406872,4408756,1884,25,R,4407124,4407386,264,493,571.6,3326,left,4407124,4407386,262,0.139065817409766,1
2,1,binary,25,2,trial,4406872,4408756,1884,25,R,4407452,4407644,194,1382.1,546.2,3344,right,4407452,4407644,192,0.101910828025478,1
2,1,binary,25,2,trial,4406872,4408756,1884,25,R,4407660,4407786,128,1320.1,563,3382,right,4407660,4407786,126,0.0668789808917197,1
2,1,binary,25,2,trial,4406872,4408756,1884,25,R,4408006,4408592,588,1403.3,564.1,3559,right,4408006,4408592,586,0.31104033970276,1
2,1,binary,25,2,postResponse,4406872,4408756,1884,25,R,4408610,4409086,478,1493,543.9,3423,right,4408610,4408756,146,0.0774946921443737,1
2,1,binary,26,1,fixationCross,4433090,4435673,2583,26,R,4432817,4433059,244,173.2,49.8,3087,,4433090,4433090,0,0,0
2,1,binary,26,1,trial,4433090,4435673,2583,26,R,4433205,4433343,140,942.1,504.9,3367,,4433205,4433343,138,0.0534262485481998,1
2,1,binary,26,1,trial,4433090,4435673,2583,26,R,4433387,4433557,172,1335,601.9,3569,right,4433387,4433557,170,0.0658149438637244,1
2,1,binary,26,1,trial,4433090,4435673,2583,26,R,4433613,4433765,154,1462.4,979.3,3791,,4433613,4433765,152,0.0588463027487418,1
2,1,binary,26,1,trial,4433090,4435673,2583,26,R,4433785,4433899,116,1422.7,1011.1,3797,,4433785,4433899,114,0.0441347270615563,1
2,1,binary,26,1,trial,4433090,4435673,2583,26,R,4433969,4434175,208,571.4,600.3,3638,left,4433969,4434175,206,0.0797522260936895,1
2,1,binary,26,1,trial,4433090,4435673,2583,26,R,4434199,4434399,202,564.2,490.8,3499,left,4434199,4434399,200,0.0774293457220287,1
2,1,binary,26,1,trial,4433090,4435673,2583,26,R,4434425,4434661,238,378.6,609.2,3300,left,4434425,4434661,236,0.0913666279519938,1
2,1,binary,26,1,trial,4433090,4435673,2583,26,R,4434691,4434949,260,581.2,526.7,3197,left,4434691,4434949,258,0.099883855981417,1
2,1,binary,26,1,trial,4433090,4435673,2583,26,R,4435013,4435233,222,1419.4,551.9,3224,right,4435013,4435233,220,0.0851722802942315,1
2,1,binary,26,1,trial,4433090,4435673,2583,26,R,4435295,4435457,164,636.7,562.7,3313,left,4435295,4435457,162,0.0627177700348432,1
2,1,binary,26,1,postResponse,4433090,4435673,2583,26,R,4435475,4436005,532,563.9,530.7,3303,left,4435475,4435673,198,0.0766550522648084,1
2,1,binary,27,2,trial,4436356,4437756,1400,27,R,4436079,4436583,506,569.3,533.7,3425,left,4436356,4436583,227,0.162142857142857,1
2,1,binary,27,2,trial,4436356,4437756,1400,27,R,4436677,4436845,170,490.5,514.1,3393,left,4436677,4436845,168,0.12,1
2,1,binary,27,2,trial,4436356,4437756,1400,27,R,4436869,4437035,168,505.3,453.3,3320,left,4436869,4437035,166,0.118571428571429,1
2,1,binary,27,2,trial,4436356,4437756,1400,27,R,4437067,4437189,124,550.5,619.2,3327,left,4437067,4437189,122,0.0871428571428572,1
2,1,binary,27,2,trial,4436356,4437756,1400,27,R,4437257,4437395,140,1465.5,541,3412,right,4437257,4437395,138,0.0985714285714286,1
2,1,binary,27,2,trial,4436356,4437756,1400,27,R,4437417,4437589,174,1425.3,465.2,3377,right,4437417,4437589,172,0.122857142857143,1
2,1,binary,27,2,trial,4436356,4437756,1400,27,R,4437599,4438021,424,1410.3,485.7,3465,right,4437599,4437756,157,0.112142857142857,1
2,1,binary,28,1,fixationCross,4438406,4440157,1751,28,R,4438163,4438287,126,836.6,583,3424,,4438406,4438406,0,0,0
2,1,binary,28,1,trial,4438406,4440157,1751,28,R,4438315,4438561,248,668.4,502.5,3509,left,4438406,4438561,155,0.0885208452312964,1
2,1,binary,28,1,trial,4438406,4440157,1751,28,R,4438593,4438785,194,495,505,3512,left,4438593,4438785,192,0.109651627641348,1
2,1,binary,28,1,trial,4438406,4440157,1751,28,R,4438801,4438983,184,492.1,461.3,3309,left,4438801,4438983,182,0.103940605368361,1
2,1,binary,28,1,trial,4438406,4440157,1751,28,R,4439051,4439475,426,1439.8,564.3,3252,right,4439051,4439475,424,0.242147344374643,1
2,1,binary,28,1,trial,4438406,4440157,1751,28,R,4439547,4439763,218,499.9,496.8,3185,left,4439547,4439763,216,0.123358081096516,1
2,1,binary,28,1,postResponse,4438406,4440157,1751,28,R,4439779,4440487,710,484,462.2,3062,left,4439779,4440157,378,0.215876641918904,1
2,1,binary,29,2,trial,4440823,4442989,2166,29,R,4440561,4441037,478,497.3,466.9,3302,left,4440823,4441037,214,0.0987996306555863,1
2,1,binary,29,2,trial,4440823,4442989,2166,29,R,4441059,4441209,152,542,549.1,3414,left,4441059,4441209,150,0.0692520775623269,1
2,1,binary,29,2,trial,4440823,4442989,2166,29,R,4441229,4441363,136,610.7,493.4,3348,left,4441229,4441363,134,0.061865189289012,1
2,1,binary,29,2,trial,4440823,4442989,2166,29,R,4441431,4441915,486,1538.8,525.8,3400,right,4441431,4441915,484,0.223453370267775,1
2,1,binary,29,2,trial,4440823,4442989,2166,29,R,4441945,4442363,420,1313.7,511.4,3353,right,4441945,4442363,418,0.192982456140351,1
2,1,binary,29,2,trial,4440823,4442989,2166,29,R,4442541,4442641,102,1440.8,508,3356,right,4442541,4442641,100,0.0461680517082179,1
2,1,binary,29,2,trial,4440823,4442989,2166,29,R,4442663,4443253,592,1548.4,515.1,3413,right,4442663,4442989,326,0.15050784856879,1
2,1,binary,30,2,trial,4443706,4445773,2067,30,R,4443419,4443743,326,1088.7,426,3562,,4443706,4443743,37,0.0179003386550556,1
2,1,binary,30,2,trial,4443706,4445773,2067,30,R,4443773,4443891,120,929.3,522.5,3705,,4443773,4443891,118,0.0570875665215288,1
2,1,binary,30,2,trial,4443706,4445773,2067,30,R,4443933,4444097,166,590.7,543.2,3646,left,4443933,4444097,164,0.0793420416061926,1
2,1,binary,30,2,trial,4443706,4445773,2067,30,R,4444115,4444381,268,513.4,537.6,3469,left,4444115,4444381,266,0.128688921141751,1
2,1,binary,30,2,trial,4443706,4445773,2067,30,R,4444393,4444531,140,507.8,519.7,3300,left,4444393,4444531,138,0.0667634252539913,1
2,1,binary,30,2,trial,4443706,4445773,2067,30,R,4444597,4444823,228,1408.4,580,3298,right,4444597,4444823,226,0.109337203676826,1
2,1,binary,30,2,trial,4443706,4445773,2067,30,R,4444841,4445495,656,1499.4,582.8,3387,right,4444841,4445495,654,0.316400580551524,1
2,1,binary,30,2,trial,4443706,4445773,2067,30,R,4445519,4445635,118,1363.3,606.4,3395,right,4445519,4445635,116,0.0561199806482825,1
2,1,binary,30,2,postResponse,4443706,4445773,2067,30,R,4445703,4446103,402,519.5,555.9,3293,left,4445703,4445773,70,0.0338655055636188,1
2,1,binary,31,1,trial,4446440,4448856,2416,31,R,4446177,4446651,476,573.9,509.1,3270,left,4446440,4446651,211,0.0873344370860927,1
2,1,binary,31,1,trial,4446440,4448856,2416,31,R,4446669,4446823,156,491.4,541.7,3315,left,4446669,4446823,154,0.0637417218543046,1
2,1,binary,31,1,trial,4446440,4448856,2416,31,R,4446839,4447139,302,435.5,548.5,3132,left,4446839,4447139,300,0.124172185430464,1
2,1,binary,31,1,trial,4446440,4448856,2416,31,R,4447207,4447363,158,1401.1,531,3062,right,4447207,4447363,156,0.0645695364238411,1
2,1,binary,31,1,trial,4446440,4448856,2416,31,R,4447377,4447795,420,1424.7,571.5,3139,right,4447377,4447795,418,0.173013245033113,1
2,1,binary,31,1,trial,4446440,4448856,2416,31,R,4447807,4448031,226,1437.5,554.1,3224,right,4447807,4448031,224,0.0927152317880795,1
2,1,binary,31,1,trial,4446440,4448856,2416,31,R,4448107,4448379,274,407.6,530.9,3176,left,4448107,4448379,272,0.112582781456954,1
2,1,binary,31,1,trial,4446440,4448856,2416,31,R,4448391,4448603,214,441.2,545.8,3173,left,4448391,4448603,212,0.0877483443708609,1
2,1,binary,31,1,postResponse,4446440,4448856,2416,31,R,4448625,4449187,564,528.7,530.8,3229,left,4448625,4448856,231,0.095612582781457,1
2,1,binary,32,2,trial,4449506,4451656,2150,32,R,4449261,4449819,560,522.8,492.9,3431,left,4449506,4449819,313,0.145581395348837,1
2,1,binary,32,2,trial,4449506,4451656,2150,32,R,4449835,4449935,102,582.4,496.1,3476,left,4449835,4449935,100,0.0465116279069768,1
2,1,binary,32,2,trial,4449506,4451656,2150,32,R,4450001,4450303,304,1447.4,557.7,3521,right,4450001,4450303,302,0.14046511627907,1
2,1,binary,32,2,trial,4449506,4451656,2150,32,R,4450317,4450735,420,1415.3,553.1,3409,right,4450317,4450735,418,0.194418604651163,1
2,1,binary,32,2,trial,4449506,4451656,2150,32,R,4450747,4451105,360,1449.8,577.2,3229,right,4450747,4451105,358,0.166511627906977,1
2,1,binary,32,2,trial,4449506,4451656,2150,32,R,4451181,4451371,192,539.4,559.9,3075,left,4451181,4451371,190,0.0883720930232558,1
2,1,binary,32,2,trial,4449506,4451656,2150,32,R,4451391,4451521,132,595.5,492.5,3042,left,4451391,4451521,130,0.0604651162790698,1
2,1,binary,32,2,trial,4449506,4451656,2150,32,R,4451583,4451925,344,1417.2,531.9,3169,right,4451583,4451656,73,0.033953488372093,1
2,1,binary,33,1,trial,4452339,4455089,2750,33,R,4452089,4452505,418,745.9,479,3282,,4452339,4452505,166,0.0603636363636364,1
2,1,binary,33,1,trial,4452339,4455089,2750,33,R,4452531,4452729,200,565.5,525.3,3466,left,4452531,4452729,198,0.072,1
2,1,binary,33,1,trial,4452339,4455089,2750,33,R,4452753,4452965,214,448,549.6,3343,left,4452753,4452965,212,0.0770909090909091,1
2,1,binary,33,1,trial,4452339,4455089,2750,33,R,4453035,4453625,592,1428.6,550.3,3390,right,4453035,4453625,590,0.214545454545455,1
2,1,binary,33,1,trial,4452339,4455089,2750,33,R,4453643,4453863,222,1462.3,616.6,3410,right,4453643,4453863,220,0.08,1
2,1,binary,33,1,trial,4452339,4455089,2750,33,R,4453885,4454099,216,1394.1,666.8,3360,right,4453885,4454099,214,0.0778181818181818,1
2,1,binary,33,1,trial,4452339,4455089,2750,33,R,4454171,4454745,576,513.4,557.7,3222,left,4454171,4454745,574,0.208727272727273,1
2,1,binary,33,1,trial,4452339,4455089,2750,33,R,4454789,4455063,276,460.1,993.2,3287,,4454789,4455063,274,0.0996363636363636,1
2,1,binary,33,1,trial,4452339,4455089,2750,33,R,4455075,4455319,246,496.5,1001,3348,,4455075,4455089,14,0.00509090909090909,1
2,1,binary,33,1,postResponse,4452339,4455089,2750,33,R,4455385,4455421,38,830.2,554.1,3358,,4455089,4455089,0,0,0
2,1,binary,34,1,trial,4455757,4458140,2383,34,R,4455495,4455913,420,831.3,543.1,3424,,4455757,4455913,156,0.0654637012169534,1
2,1,binary,34,1,trial,4455757,4458140,2383,34,R,4455957,4456191,236,472.1,502.7,3435,left,4455957,4456191,234,0.0981955518254301,1
2,1,binary,34,1,trial,4455757,4458140,2383,34,R,4456257,4456687,432,1371.6,578.9,3339,right,4456257,4456687,430,0.180444817456987,1
2,1,binary,34,1,trial,4455757,4458140,2383,34,R,4456757,4456989,234,473.3,511.3,3245,left,4456757,4456989,232,0.0973562736047,1
2,1,binary,34,1,trial,4455757,4458140,2383,34,R,4457007,4457331,326,460.8,448.4,3199,left,4457007,4457331,324,0.135963071758288,1
2,1,binary,34,1,trial,4455757,4458140,2383,34,R,4457353,4457529,178,447.2,541.1,3216,left,4457353,4457529,176,0.0738564834242551,1
2,1,binary,34,1,trial,4455757,4458140,2383,34,R,4457601,4457819,220,1453.7,593.6,3328,right,4457601,4457819,218,0.0914813260595887,1
2,1,binary,34,1,trial,4455757,4458140,2383,34,R,4457839,4458365,528,1362,585,3323,right,4457839,4458140,301,0.126311372219891,1
2,1,binary,34,1,postResponse,4455757,4458140,2383,34,R,4458433,4458471,40,778,498.7,3258,,4458140,4458140,0,0,0
2,1,binary,35,1,trial,4458807,4461074,2267,35,R,4458547,4458943,398,777.7,502.2,3369,,4458807,4458943,136,0.0599911777679753,1
2,1,binary,35,1,trial,4458807,4461074,2267,35,R,4458985,4459125,142,473.1,506.2,3511,left,4458985,4459125,140,0.0617556241729158,1
2,1,binary,35,1,trial,4458807,4461074,2267,35,R,4459141,4459375,236,449.6,463.1,3371,left,4459141,4459375,234,0.103220114689016,1
2,1,binary,35,1,trial,4458807,4461074,2267,35,R,4459405,4459547,144,494.4,592.3,3303,left,4459405,4459547,142,0.062637847375386,1
2,1,binary,35,1,trial,4458807,4461074,2267,35,R,4459615,4460001,388,1428.5,592.8,3383,right,4459615,4460001,386,0.170269078076753,1
2,1,binary,35,1,trial,4458807,4461074,2267,35,R,4460019,4460253,236,1482.1,632.8,3403,right,4460019,4460253,234,0.103220114689016,1
2,1,binary,35,1,trial,4458807,4461074,2267,35,R,4460277,4460481,206,1590.2,658.6,3318,right,4460277,4460481,204,0.089986766651963,1
2,1,binary,35,1,trial,4458807,4461074,2267,35,R,4460565,4460865,302,444.1,470.5,3105,left,4460565,4460865,300,0.132333480370534,1
2,1,binary,35,1,trial,4458807,4461074,2267,35,R,4460891,4461249,360,507.5,590.2,3034,left,4460891,4461074,183,0.0807234230260256,1
2,1,binary,36,1,trial,4461756,4464240,2484,36,R,4461483,4461983,502,565.5,524.4,3239,left,4461756,4461983,227,0.0913848631239936,1
2,1,binary,36,1,trial,4461756,4464240,2484,36,R,4461999,4462139,142,549.5,568.5,3302,left,4461999,4462139,140,0.0563607085346216,1
2,1,binary,36,1,trial,4461756,4464240,2484,36,R,4462159,4462333,176,492.1,503.9,3284,left,4462159,4462333,174,0.070048309178744,1
2,1,binary,36,1,trial,4461756,4464240,2484,36,R,4462399,4462567,170,1342.8,511.3,3363,right,4462399,4462567,168,0.0676328502415459,1
2,1,binary,36,1,trial,4461756,4464240,2484,36,R,4462591,4462833,244,1404.6,434.5,3446,right,4462591,4462833,242,0.0974235104669887,1
2,1,binary,36,1,trial,4461756,4464240,2484,36,R,4462853,4463331,480,1509.8,472,3514,right,4462853,4463331,478,0.192431561996779,1
2,1,binary,36,1,trial,4461756,4464240,2484,36,R,4463353,4463445,94,1396.7,463.8,3497,right,4463353,4463445,92,0.037037037037037,1
2,1,binary,36,1,trial,4461756,4464240,2484,36,R,4463523,4463783,262,484.9,515.2,3360,left,4463523,4463783,260,0.104669887278583,1
2,1,binary,36,1,trial,4461756,4464240,2484,36,R,4463807,4464533,728,571.3,592.5,3195,left,4463807,4464240,433,0.174315619967794,1
2,1,binary,37,1,fixationCross,4464939,4467090,2151,37,R,4464671,4464853,184,747.5,471.5,3058,,4464939,4464939,0,0,0
2,1,binary,37,1,trial,4464939,4467090,2151,37,R,4464879,4465113,236,629.2,458.6,3166,left,4464939,4465113,174,0.0808926080892608,1
2,1,binary,37,1,trial,4464939,4467090,2151,37,R,4465141,4465361,222,509.1,545.8,3219,left,4465141,4465361,220,0.102278010227801,1
2,1,binary,37,1,trial,4464939,4467090,2151,37,R,4465429,4465787,360,1410.7,533.1,3226,right,4465429,4465787,358,0.166434216643422,1
2,1,binary,37,1,trial,4464939,4467090,2151,37,R,4465807,4465865,60,1456.9,587.8,3324,right,4465807,4465865,58,0.0269642026964203,1
2,1,binary,37,1,trial,4464939,4467090,2151,37,R,4465939,4467025,1088,496,545.6,3328,left,4465939,4467025,1086,0.504881450488145,1
2,1,binary,37,1,trial,4464939,4467090,2151,37,R,4467093,4467293,202,1403.9,572.4,3404,right,4467090,4467090,0,0,0
2,1,binary,38,2,trial,4467790,4469590,1800,38,R,4467519,4467939,422,818.4,523.4,3565,,4467790,4467939,149,0.0827777777777778,1
2,1,binary,38,2,trial,4467790,4469590,1800,38,R,4467977,4468163,188,567.4,554.5,3470,left,4467977,4468163,186,0.103333333333333,1
2,1,binary,38,2,trial,4467790,4469590,1800,38,R,4468185,4468325,142,473.7,560.9,3397,left,4468185,4468325,140,0.0777777777777778,1
2,1,binary,38,2,trial,4467790,4469590,1800,38,R,4468397,4468643,248,1445.7,565.6,3400,right,4468397,4468643,246,0.136666666666667,1
2,1,binary,38,2,trial,4467790,4469590,1800,38,R,4468663,4468817,156,1375.8,515,3418,right,4468663,4468817,154,0.0855555555555556,1
2,1,binary,38,2,trial,4467790,4469590,1800,38,R,4468831,4469079,250,1336.3,513.1,3460,right,4468831,4469079,248,0.137777777777778,1
2,1,binary,38,2,trial,4467790,4469590,1800,38,R,4469111,4469445,336,1434.3,697.9,3459,right,4469111,4469445,334,0.185555555555556,1
2,1,binary,38,2,postResponse,4467790,4469590,1800,38,R,4469481,4469919,440,1418.6,485.9,3447,right,4469481,4469590,109,0.0605555555555556,1
2,1,binary,39,1,trial,4470257,4472790,2533,39,R,4470059,4470433,376,691.4,499,3464,left,4470257,4470433,176,0.0694828266877221,1
2,1,binary,39,1,trial,4470257,4472790,2533,39,R,4470461,4470593,134,543.7,594,3455,left,4470461,4470593,132,0.0521121200157916,1
2,1,binary,39,1,trial,4470257,4472790,2533,39,R,4470627,4470969,344,357.8,423.8,3210,left,4470627,4470969,342,0.13501776549546,1
2,1,binary,39,1,trial,4470257,4472790,2533,39,R,4470995,4471183,190,462.3,548,3174,left,4470995,4471183,188,0.0742202921437031,1
2,1,binary,39,1,trial,4470257,4472790,2533,39,R,4471253,4471543,292,1432.7,549.6,3266,right,4471253,4471543,290,0.114488748519542,1
2,1,binary,39,1,trial,4470257,4472790,2533,39,R,4471563,4471817,256,1342.1,505.1,3236,right,4471563,4471817,254,0.100276352151599,1
2,1,binary,39,1,trial,4470257,4472790,2533,39,R,4471839,4471949,112,1412.1,561.9,3223,right,4471839,4471949,110,0.0434267666798263,1
2,1,binary,39,1,trial,4470257,4472790,2533,39,R,4472021,4472321,302,495.8,614.6,3203,left,4472021,4472321,300,0.118436636399526,1
2,1,binary,39,1,trial,4470257,4472790,2533,39,R,4472343,4472505,164,595.9,604.9,3320,left,4472343,4472505,162,0.0639557836557442,1
2,1,binary,39,1,trial,4470257,4472790,2533,39,R,4472547,4472855,310,400.7,407.1,3372,left,4472547,4472790,243,0.0959336754836163,1
2,1,binary,39,1,postResponse,4470257,4472790,2533,39,R,4473001,4473123,124,573.4,500,3433,left,4472790,4472790,0,0,0
2,1,binary,40,1,trial,4473457,4475156,1699,40,R,4473197,4473869,674,572.4,503.6,3495,left,4473457,4473869,412,0.242495585638611,1
2,1,binary,40,1,trial,4473457,4475156,1699,40,R,4473887,4474073,188,642.6,488.2,3254,left,4473887,4474073,186,0.109476162448499,1
2,1,binary,40,1,trial,4473457,4475156,1699,40,R,4474137,4474487,352,1418.6,620.3,3273,right,4474137,4474487,350,0.206003531489111,1
2,1,binary,40,1,trial,4473457,4475156,1699,40,R,4474503,4474619,118,1426.5,673.3,3183,right,4474503,4474619,116,0.0682754561506769,1
2,1,binary,40,1,trial,4473457,4475156,1699,40,R,4474687,4474953,268,619.9,511.5,3092,left,4474687,4474953,266,0.156562683931725,1
2,1,binary,40,1,trial,4473457,4475156,1699,40,R,4474973,4475459,488,549.9,505.5,3095,left,4474973,4475156,183,0.107710417892878,1
2,1,binary,41,2,trial,4475806,4479040,3234,41,R,4475563,4475963,402,772.2,525.6,3283,,4475806,4475963,157,0.0485466914038343,1
2,1,binary,41,2,trial,4475806,4479040,3234,41,R,4475991,4476189,200,574,574.5,3451,left,4475991,4476189,198,0.0612244897959184,1
2,1,binary,41,2,trial,4475806,4479040,3234,41,R,4476251,4476519,270,1415.2,562.7,3503,right,4476251,4476519,268,0.08286951144094,1
2,1,binary,41,2,trial,4475806,4479040,3234,41,R,4476539,4476789,252,1339.4,550.2,3439,right,4476539,4476789,250,0.0773036487322202,1
2,1,binary,41,2,trial,4475806,4479040,3234,41,R,4476809,4476949,142,1267.6,577.5,3423,right,4476809,4476949,140,0.0432900432900433,1
2,1,binary,41,2,trial,4475806,4479040,3234,41,R,4476973,4477089,118,1404,493.2,3442,right,4476973,4477089,116,0.0358688930117502,1
2,1,binary,41,2,trial,4475806,4479040,3234,41,R,4477207,4477575,370,505.4,544.4,3427,left,4477207,4477575,368,0.113790970933828,1
2,1,binary,41,2,trial,4475806,4479040,3234,41,R,4477599,4477775,178,439.3,651.8,3442,left,4477599,4477775,176,0.054421768707483,1
2,1,binary,41,2,trial,4475806,4479040,3234,41,R,4477801,4478169,370,605.6,660.1,3355,left,4477801,4478169,368,0.113790970933828,1
2,1,binary,41,2,trial,4475806,4479040,3234,41,R,4478191,4478403,214,571.9,568.5,3316,left,4478191,4478403,212,0.0655534941249227,1
2,1,binary,41,2,trial,4475806,4479040,3234,41,R,4478429,4478781,354,404.4,642.4,3323,left,4478429,4478781,352,0.108843537414966,1
2,1,binary,41,2,trial,4475806,4479040,3234,41,R,4478853,4479269,418,1387.4,574.1,3411,right,4478853,4479040,187,0.0578231292517007,1
2,1,binary,41,2,postResponse,4475806,4479040,3234,41,R,4479331,4479371,42,902.4,486.4,3367,,4479040,4479040,0,0,0
2,1,binary,42,1,trial,4479706,4481757,2051,42,R,4479481,4479921,442,669.2,483.2,3372,left,4479706,4479921,215,0.104826913700634,1
2,1,binary,42,1,trial,4479706,4481757,2051,42,R,4479947,4480105,160,576,580.7,3356,left,4479947,4480105,158,0.0770355923939542,1
2,1,binary,42,1,trial,4479706,4481757,2051,42,R,4480131,4480413,284,374.1,591,3193,left,4480131,4480413,282,0.137493905411994,1
2,1,binary,42,1,trial,4479706,4481757,2051,42,R,4480485,4480783,300,1423.2,567.5,3107,right,4480485,4480783,298,0.145294978059483,1
2,1,binary,42,1,trial,4479706,4481757,2051,42,R,4480803,4481151,350,1424.3,635.9,3305,right,4480803,4481151,348,0.169673330082886,1
2,1,binary,42,1,trial,4479706,4481757,2051,42,R,4481223,4481443,222,474.8,607.6,3268,left,4481223,4481443,220,0.107264748902974,1
2,1,binary,42,1,postResponse,4479706,4481757,2051,42,R,4481465,4482087,624,528.7,547.8,3109,left,4481465,4481757,292,0.142369575816675,1
2,1,binary,43,1,trial,4482423,4484306,1883,43,R,4482163,4482659,498,540.5,549.1,3370,left,4482423,4482659,236,0.125331917153479,1
2,1,binary,43,1,trial,4482423,4484306,1883,43,R,4482737,4482969,234,1489.6,584.8,3471,right,4482737,4482969,232,0.123207647371216,1
2,1,binary,43,1,trial,4482423,4484306,1883,43,R,4482989,4483151,164,1446.8,531.4,3389,right,4482989,4483151,162,0.0860329261816251,1
2,1,binary,43,1,trial,4482423,4484306,1883,43,R,4483175,4483467,294,1217.7,518.5,3249,right,4483175,4483467,292,0.155071694105151,1
2,1,binary,43,1,trial,4482423,4484306,1883,43,R,4483495,4483615,122,1440.4,552.2,3237,right,4483495,4483615,120,0.0637280934678704,1
2,1,binary,43,1,trial,4482423,4484306,1883,43,R,4483687,4483899,214,552.6,605.8,3112,left,4483687,4483899,212,0.112586298459904,1
2,1,binary,43,1,trial,4482423,4484306,1883,43,R,4483921,4484125,206,430,595.5,3026,left,4483921,4484125,204,0.10833775889538,1
2,1,binary,43,1,trial,4482423,4484306,1883,43,R,4484151,4484605,456,368.5,448.9,2966,left,4484151,4484306,155,0.082315454062666,1
2,1,binary,44,2,trial,4484973,4486873,1900,44,R,4484711,4485167,458,638.9,527.3,3157,left,4484973,4485167,194,0.102105263157895,1
2,1,binary,44,2,trial,4484973,4486873,1900,44,R,4485199,4485541,344,448.4,558.1,3261,left,4485199,4485541,342,0.18,1
2,1,binary,44,2,trial,4484973,4486873,1900,44,R,4485555,4485641,88,416.4,553,3208,left,4485555,4485641,86,0.0452631578947369,1
2,1,binary,44,2,trial,4484973,4486873,1900,44,R,4485709,4486039,332,1390.7,524.7,3343,right,4485709,4486039,330,0.173684210526316,1
2,1,binary,44,2,trial,4484973,4486873,1900,44,R,4486059,4486201,144,1463.8,516.6,3368,right,4486059,4486201,142,0.0747368421052632,1
2,1,binary,44,2,trial,4484973,4486873,1900,44,R,4486221,4486613,394,1359.6,517.3,3296,right,4486221,4486613,392,0.206315789473684,1
2,1,binary,44,2,trial,4484973,4486873,1900,44,R,4486629,4487117,490,1417.6,498.3,3363,right,4486629,4486873,244,0.128421052631579,1
2,1,binary,45,1,fixationCross,4487573,4489257,1684,45,R,4487305,4487389,86,758.5,485.8,3439,,4487573,4487573,0,0,0
2,1,binary,45,1,trial,4487573,4489257,1684,45,R,4487527,4487777,252,701.3,482.6,3491,left,4487573,4487777,204,0.121140142517815,1
2,1,binary,45,1,trial,4487573,4489257,1684,45,R,4487805,4487969,166,556.3,552.7,3530,left,4487805,4487969,164,0.0973871733966746,1
2,1,binary,45,1,trial,4487573,4489257,1684,45,R,4487987,4488255,270,488.3,564,3373,left,4487987,4488255,268,0.159144893111639,1
2,1,binary,45,1,trial,4487573,4489257,1684,45,R,4488319,4488513,196,1356.6,599,3312,right,4488319,4488513,194,0.11520190023753,1
2,1,binary,45,1,trial,4487573,4489257,1684,45,R,4488531,4488727,198,1420.5,583.2,3314,right,4488531,4488727,196,0.116389548693587,1
2,1,binary,45,1,trial,4487573,4489257,1684,45,R,4488803,4489145,344,462.9,569.8,3211,left,4488803,4489145,342,0.203087885985748,1
2,1,binary,45,1,postResponse,4487573,4489257,1684,45,R,4489163,4489587,426,498.5,530.5,3149,left,4489163,4489257,94,0.0558194774346793,1
2,1,binary,46,2,trial,4489940,4492891,2951,46,R,4489687,4490405,720,505.6,535.9,3305,left,4489940,4490405,465,0.15757370382921,1
2,1,binary,46,2,trial,4489940,4492891,2951,46,R,4490477,4490703,228,1487.2,568.7,3399,right,4490477,4490703,226,0.0765842087427991,1
2,1,binary,46,2,trial,4489940,4492891,2951,46,R,4490727,4490915,190,1419.1,493.3,3394,right,4490727,4490915,188,0.0637072178922399,1
2,1,binary,46,2,trial,4489940,4492891,2951,46,R,4490941,4491105,166,1269.9,402.5,3367,right,4490941,4491105,164,0.055574381565571,1
2,1,binary,46,2,trial,4489940,4492891,2951,46,R,4491137,4491431,296,1511.9,430.8,3393,right,4491137,4491431,294,0.0996272450016943,1
2,1,binary,46,2,trial,4489940,4492891,2951,46,R,4491461,4491705,246,1506.3,551.5,3423,right,4491461,4491705,244,0.0826838359878007,1
2,1,binary,46,2,trial,4489940,4492891,2951,46,R,4491719,4492125,408,1502.2,526.9,3452,right,4491719,4492125,406,0.137580481192816,1
2,1,binary,46,2,trial,4489940,4492891,2951,46,R,4492149,4492511,364,1541.2,614.7,3518,right,4492149,4492511,362,0.12267028126059,1
2,1,binary,46,2,trial,4489940,4492891,2951,46,R,4492533,4492643,112,1409.7,594.1,3543,right,4492533,4492643,110,0.0372754998305659,1
2,1,binary,46,2,trial,4489940,4492891,2951,46,R,4492717,4493071,356,502.9,571.9,3396,left,4492717,4492891,174,0.0589630633683497,1
2,1,binary,47,2,trial,4493557,4496057,2500,47,R,4493297,4493735,440,757.9,526.7,3425,,4493557,4493735,178,0.0712,1
2,1,binary,47,2,trial,4493557,4496057,2500,47,R,4493775,4493991,218,510.6,568.7,3388,left,4493775,4493991,216,0.0864,1
2,1,binary,47,2,trial,4493557,4496057,2500,47,R,4494009,4494215,208,452.2,586.6,3206,left,4494009,4494215,206,0.0824,1
2,1,binary,47,2,trial,4493557,4496057,2500,47,R,4494285,4494815,532,1432.6,581.2,3275,right,4494285,4494815,530,0.212,1
2,1,binary,47,2,trial,4493557,4496057,2500,47,R,4494893,4495225,334,457.3,599.3,3129,left,4494893,4495225,332,0.1328,1
2,1,binary,47,2,trial,4493557,4496057,2500,47,R,4495247,4495483,238,536.5,572,3052,left,4495247,4495483,236,0.0944,1
2,1,binary,47,2,trial,4493557,4496057,2500,47,R,4495547,4495881,336,1400.4,586.6,3165,right,4495547,4495881,334,0.1336,1
2,1,binary,47,2,postResponse,4493557,4496057,2500,47,R,4495897,4496389,494,1446.8,604.2,3247,right,4495897,4496057,160,0.064,1
2,1,binary,48,2,trial,4496757,4499457,2700,48,R,4496537,4496911,376,716.4,535.2,3321,left,4496757,4496911,154,0.057037037037037,1
2,1,binary,48,2,trial,4496757,4499457,2700,48,R,4496941,4497117,178,531.2,563.9,3396,left,4496941,4497117,176,0.0651851851851852,1
2,1,binary,48,2,trial,4496757,4499457,2700,48,R,4497137,4497617,482,449.9,590,3190,left,4497137,4497617,480,0.177777777777778,1
2,1,binary,48,2,trial,4496757,4499457,2700,48,R,4497689,4498345,658,1437.4,555.8,3261,right,4497689,4498345,656,0.242962962962963,1
2,1,binary,48,2,trial,4496757,4499457,2700,48,R,4498359,4499063,706,1402.7,584.6,3397,right,4498359,4499063,704,0.260740740740741,1
2,1,binary,48,2,trial,4496757,4499457,2700,48,R,4499077,4499231,156,1460,575.6,3456,right,4499077,4499231,154,0.057037037037037,1
2,1,binary,48,2,trial,4496757,4499457,2700,48,R,4499305,4499739,436,476.2,608.1,3320,left,4499305,4499457,152,0.0562962962962963,1
2,1,binary,49,1,trial,4500157,4503907,3750,49,R,4499889,4500313,426,729.1,492.4,3262,left,4500157,4500313,156,0.0416,1
2,1,binary,49,1,trial,4500157,4503907,3750,49,R,4500349,4500533,186,512.1,553.2,3363,left,4500349,4500533,184,0.0490666666666667,1
2,1,binary,49,1,trial,4500157,4503907,3750,49,R,4500551,4500817,268,454.6,524.7,3230,left,4500551,4500817,266,0.0709333333333333,1
2,1,binary,49,1,trial,4500157,4503907,3750,49,R,4500833,4501103,272,454.6,475.3,3139,left,4500833,4501103,270,0.072,1
2,1,binary,49,1,trial,4500157,4503907,3750,49,R,4501123,4501263,142,477,531.6,3153,left,4501123,4501263,140,0.0373333333333333,1
2,1,binary,49,1,trial,4500157,4503907,3750,49,R,4501331,4501623,294,1382.6,550,3266,right,4501331,4501623,292,0.0778666666666667,1
2,1,binary,49,1,trial,4500157,4503907,3750,49,R,4501647,4501955,310,1478.3,505.4,3315,right,4501647,4501955,308,0.0821333333333333,1
2,1,binary,49,1,trial,4500157,4503907,3750,49,R,4501977,4502407,432,1434.2,611.1,3306,right,4501977,4502407,430,0.114666666666667,1
2,1,binary,49,1,trial,4500157,4503907,3750,49,R,4502479,4502739,262,511.5,547.9,3258,left,4502479,4502739,260,0.0693333333333333,1
2,1,binary,49,1,trial,4500157,4503907,3750,49,R,4502761,4503065,306,461.8,489.9,3229,left,4502761,4503065,304,0.0810666666666667,1
2,1,binary,49,1,trial,4500157,4503907,3750,49,R,4503093,4503921,830,477.3,679.5,3276,left,4503093,4503907,814,0.217066666666667,1
2,1,binary,49,1,trial,4500157,4503907,3750,49,R,4503941,4504215,276,566.4,641.7,3297,left,4503907,4503907,0,0,0
2,1,binary,50,1,trial,4504590,4506924,2334,50,R,4504337,4504759,424,640.3,504.2,3347,left,4504590,4504759,169,0.072407883461868,1
2,1,binary,50,1,trial,4504590,4506924,2334,50,R,4504793,4504971,180,517.8,565.8,3369,left,4504793,4504971,178,0.0762639245929734,1
2,1,binary,50,1,trial,4504590,4506924,2334,50,R,4504991,4505115,126,503.8,495.8,3224,left,4504991,4505115,124,0.0531276778063411,1
2,1,binary,50,1,trial,4504590,4506924,2334,50,R,4505181,4505375,196,1371,543.4,3257,right,4505181,4505375,194,0.0831191088260497,1
2,1,binary,50,1,trial,4504590,4506924,2334,50,R,4505391,4505665,276,1421.2,570.9,3281,right,4505391,4505665,274,0.117395029991431,1
2,1,binary,50,1,trial,4504590,4506924,2334,50,R,4505859,4506085,228,507.7,548,3271,left,4505859,4506085,226,0.0968294772922022,1
2,1,binary,50,1,postResponse,4504590,4506924,2334,50,R,4506101,4507255,1156,491,505.5,3241,left,4506101,4506924,823,0.35261353898886,1
2,2,continuous,1,19,trial,4566541,4573575,7034,51,R,4566270,4566680,412,914.4,388.6,3986,,4566541,4566680,139,0.0197611600796133,1
2,2,continuous,1,19,trial,4566541,4573575,7034,51,R,4566730,4566860,132,1360,523.3,4025,right,4566730,4566860,130,0.0184816605061132,1
2,2,continuous,1,19,trial,4566541,4573575,7034,51,R,4566880,4567020,142,1309,520.8,3994,right,4566880,4567020,140,0.0199033266988911,1
2,2,continuous,1,19,trial,4566541,4573575,7034,51,R,4567068,4567224,158,950.7,959.7,3977,likertHorizontal,4567068,4567224,156,0.0221779926073358,1
2,2,continuous,1,19,trial,4566541,4573575,7034,51,R,4567274,4567474,202,1423.9,992.3,3944,,4567274,4567474,200,0.0284333238555587,1
2,2,continuous,1,19,trial,4566541,4573575,7034,51,R,4567536,4567816,282,523.7,945,3894,,4567536,4567816,280,0.0398066533977822,1
2,2,continuous,1,19,trial,4566541,4573575,7034,51,R,4567870,4568056,188,523.8,503.4,3750,left,4567870,4568056,186,0.0264429911856696,1
2,2,continuous,1,19,trial,4566541,4573575,7034,51,R,4568078,4568366,290,564.4,430.6,3650,left,4568078,4568366,288,0.0409439863520046,1
2,2,continuous,1,19,trial,4566541,4573575,7034,51,R,4568396,4568552,158,513,600.1,3610,left,4568396,4568552,156,0.0221779926073358,1
2,2,continuous,1,19,trial,4566541,4573575,7034,51,R,4568612,4568744,134,1326.7,537.5,3726,right,4568612,4568744,132,0.0187659937446688,1
2,2,continuous,1,19,trial,4566541,4573575,7034,51,R,4568764,4568892,130,1289.5,526.1,3700,right,4568764,4568892,128,0.0181973272675576,1
2,2,continuous,1,19,trial,4566541,4573575,7034,51,R,4568934,4569130,198,1597.5,462.8,3718,right,4568934,4569130,196,0.0278646573784475,1
2,2,continuous,1,19,trial,4566541,4573575,7034,51,R,4569146,4569246,102,1566.3,500.2,3738,right,4569146,4569246,100,0.0142166619277794,1
2,2,continuous,1,19,trial,4566541,4573575,7034,51,R,4569280,4569452,174,1380.5,696.2,3748,right,4569280,4569452,172,0.0244526585157805,1
2,2,continuous,1,19,trial,4566541,4573575,7034,51,R,4569476,4569766,292,1293,659,3706,right,4569476,4569766,290,0.0412283195905601,1
2,2,continuous,1,19,trial,4566541,4573575,7034,51,R,4569786,4570052,268,1299.9,618,3612,right,4569786,4570052,266,0.0378163207278931,1
2,2,continuous,1,19,trial,4566541,4573575,7034,51,R,4570064,4570184,122,1276.2,612.5,3576,right,4570064,4570184,120,0.0170599943133352,1
2,2,continuous,1,19,trial,4566541,4573575,7034,51,R,4570224,4570594,372,1582,500.2,3526,right,4570224,4570594,370,0.0526016491327836,1
2,2,continuous,1,19,trial,4566541,4573575,7034,51,R,4570624,4570896,274,1391,707.1,3517,right,4570624,4570896,272,0.0386693204435599,1
2,2,continuous,1,19,trial,4566541,4573575,7034,51,R,4570952,4571104,154,793.8,947.9,3462,likertHorizontal,4570952,4571104,152,0.0216093261302246,1
2,2,continuous,1,19,trial,4566541,4573575,7034,51,R,4571142,4571256,116,511.6,992.2,3412,,4571142,4571256,114,0.0162069945976685,1
2,2,continuous,1,19,trial,4566541,4573575,7034,51,R,4571298,4571540,244,532.2,555.5,3359,left,4571298,4571540,242,0.034404321865226,1
2,2,continuous,1,19,trial,4566541,4573575,7034,51,R,4571564,4571932,370,550.2,448.6,3374,left,4571564,4571932,368,0.052317315894228,1
2,2,continuous,1,19,trial,4566541,4573575,7034,51,R,4571984,4572166,184,546.2,1008.7,3478,,4571984,4572166,182,0.0258743247085584,1
2,2,continuous,1,19,trial,4566541,4573575,7034,51,R,4572188,4572562,376,635.2,954.9,3583,,4572188,4572562,374,0.0531703156098948,1
2,2,continuous,1,19,trial,4566541,4573575,7034,51,R,4572622,4572752,132,1382,991.1,3677,,4572622,4572752,130,0.0184816605061132,1
2,2,continuous,1,19,trial,4566541,4573575,7034,51,R,4572880,4573270,392,648.6,863.5,3660,,4572880,4573270,390,0.0554449815183395,1
2,2,continuous,1,19,trial,4566541,4573575,7034,51,R,4573298,4573498,202,569.8,986.1,3664,,4573298,4573498,200,0.0284333238555587,1
2,2,continuous,1,19,trial,4566541,4573575,7034,51,R,4573554,4573846,294,705.8,646.4,3641,left,4573554,4573575,21,0.00298549900483367,1
2,2,continuous,2,11,fixationCross,4574258,4580325,6067,52,R,4574006,4574114,110,958.5,498.6,3734,,4574258,4574258,0,0,0
2,2,continuous,2,11,trial,4574258,4580325,6067,52,R,4574176,4574470,296,632.6,436.7,3775,left,4574258,4574470,212,0.0349431349925828,1
2,2,continuous,2,11,trial,4574258,4580325,6067,52,R,4574504,4574684,182,498.8,611.9,3739,left,4574504,4574684,180,0.0296686995220043,1
2,2,continuous,2,11,trial,4574258,4580325,6067,52,R,4574752,4574908,158,1471,558.9,3727,right,4574752,4574908,156,0.0257128729190704,1
2,2,continuous,2,11,trial,4574258,4580325,6067,52,R,4574930,4575050,122,1552.2,543.7,3682,right,4574930,4575050,120,0.0197791330146695,1
2,2,continuous,2,11,trial,4574258,4580325,6067,52,R,4575074,4575208,136,1446.5,453.7,3643,right,4575074,4575208,134,0.0220866985330476,1
2,2,continuous,2,11,trial,4574258,4580325,6067,52,R,4575280,4575492,214,475.5,572,3462,left,4575280,4575492,212,0.0349431349925828,1
2,2,continuous,2,11,trial,4574258,4580325,6067,52,R,4575506,4575684,180,466.6,603.8,3456,left,4575506,4575684,178,0.0293390473050931,1
2,2,continuous,2,11,trial,4574258,4580325,6067,52,R,4575730,4575916,188,492,1011.8,3509,,4575730,4575916,186,0.0306576561727378,1
2,2,continuous,2,11,trial,4574258,4580325,6067,52,R,4575988,4576138,152,1417.6,536.5,3592,right,4575988,4576138,150,0.0247239162683369,1
2,2,continuous,2,11,trial,4574258,4580325,6067,52,R,4576170,4576394,226,1440.8,439,3596,right,4576170,4576394,224,0.0369210482940498,1
2,2,continuous,2,11,trial,4574258,4580325,6067,52,R,4576420,4576624,206,1454.8,531.1,3622,right,4576420,4576624,204,0.0336245261249382,1
2,2,continuous,2,11,trial,4574258,4580325,6067,52,R,4576702,4577004,304,514.2,608.8,3441,left,4576702,4577004,302,0.049777484753585,1
2,2,continuous,2,11,trial,4574258,4580325,6067,52,R,4577030,4577286,258,404.5,529.1,3414,left,4577030,4577286,256,0.0421954837646283,1
2,2,continuous,2,11,trial,4574258,4580325,6067,52,R,4577298,4577466,170,376.7,518.4,3431,left,4577298,4577466,168,0.0276907862205373,1
2,2,continuous,2,11,trial,4574258,4580325,6067,52,R,4577512,4577880,370,500.4,973.2,3511,,4577512,4577880,368,0.0606560079116532,1
2,2,continuous,2,11,trial,4574258,4580325,6067,52,R,4577916,4578124,210,708.2,957.2,3567,,4577916,4578124,208,0.0342838305587605,1
2,2,continuous,2,11,trial,4574258,4580325,6067,52,R,4578142,4578348,208,599.1,955.2,3591,,4578142,4578348,206,0.0339541783418494,1
2,2,continuous,2,11,trial,4574258,4580325,6067,52,R,4578392,4578558,168,614.4,609,3621,left,4578392,4578558,166,0.0273611340036262,1
2,2,continuous,2,11,trial,4574258,4580325,6067,52,R,4578578,4578802,226,588.1,659.1,3653,left,4578578,4578802,224,0.0369210482940498,1
2,2,continuous,2,11,trial,4574258,4580325,6067,52,R,4578844,4579014,172,420,442.5,3600,left,4578844,4579014,170,0.0280204384374485,1
2,2,continuous,2,11,trial,4574258,4580325,6067,52,R,4579064,4579472,410,506.9,979.8,3663,,4579064,4579472,408,0.0672490522498764,1
2,2,continuous,2,11,trial,4574258,4580325,6067,52,R,4579512,4579718,208,494.9,562.8,3655,left,4579512,4579718,206,0.0339541783418494,1
2,2,continuous,2,11,trial,4574258,4580325,6067,52,R,4579788,4579934,148,1468.2,542.5,3757,right,4579788,4579934,146,0.0240646118345146,1
2,2,continuous,2,11,trial,4574258,4580325,6067,52,R,4580002,4580520,520,599.6,948.8,3700,,4580002,4580325,323,0.0532388330311521,1
2,2,continuous,2,11,postResponse,4574258,4580325,6067,52,R,4580582,4580658,78,714.9,558.4,3586,left,4580325,4580325,0,0,0
2,2,continuous,3,73,trial,4581008,4585241,4233,53,R,4580758,4581200,444,620.2,488.3,3662,left,4581008,4581200,192,0.0453579021970234,1
2,2,continuous,3,73,trial,4581008,4585241,4233,53,R,4581224,4581414,192,518.3,546.1,3647,left,4581224,4581414,190,0.0448854240491377,1
2,2,continuous,3,73,trial,4581008,4585241,4233,53,R,4581482,4581862,382,1423.8,573.3,3451,right,4581482,4581862,380,0.0897708480982755,1
2,2,continuous,3,73,trial,4581008,4585241,4233,53,R,4581914,4582122,210,914.4,973.2,3406,likertHorizontal,4581914,4582122,208,0.0491377273801087,1
2,2,continuous,3,73,trial,4581008,4585241,4233,53,R,4582184,4582340,158,447.3,621.9,3410,left,4582184,4582340,156,0.0368532955350815,1
2,2,continuous,3,73,trial,4581008,4585241,4233,53,R,4582364,4582462,100,510.2,551.9,3475,left,4582364,4582462,98,0.0231514292463974,1
2,2,continuous,3,73,trial,4581008,4585241,4233,53,R,4582588,4582746,160,533.3,550.7,3465,left,4582588,4582746,158,0.0373257736829672,1
2,2,continuous,3,73,trial,4581008,4585241,4233,53,R,4582810,4583154,346,1410.3,590.7,3570,right,4582810,4583154,344,0.0812662414363336,1
2,2,continuous,3,73,trial,4581008,4585241,4233,53,R,4583222,4583416,196,563.9,578.4,3432,left,4583222,4583416,194,0.0458303803449091,1
2,2,continuous,3,73,trial,4581008,4585241,4233,53,R,4583434,4583596,164,535.4,553.9,3389,left,4583434,4583596,162,0.0382707299787385,1
2,2,continuous,3,73,trial,4581008,4585241,4233,53,R,4583648,4584004,358,1061.5,983.9,3455,likertHorizontal,4583648,4584004,356,0.0841011103236475,1
2,2,continuous,3,73,trial,4581008,4585241,4233,53,R,4584028,4584256,230,1079.6,956.7,3562,likertHorizontal,4584028,4584256,228,0.0538625088589653,1
2,2,continuous,3,73,trial,4581008,4585241,4233,53,R,4584282,4584626,346,1225.5,942.9,3638,,4584282,4584626,344,0.0812662414363336,1
2,2,continuous,3,73,trial,4581008,4585241,4233,53,R,4584696,4584852,158,541.3,554,3623,left,4584696,4584852,156,0.0368532955350815,1
2,2,continuous,3,73,trial,4581008,4585241,4233,53,R,4584912,4585186,276,1196,879.6,3601,,4584912,4585186,274,0.0647295062603355,1
2,2,continuous,3,73,trial,4581008,4585241,4233,53,R,4585210,4585444,236,1171.6,951.4,3618,likertHorizontal,4585210,4585241,31,0.00732341129222774,1
2,2,continuous,3,73,postResponse,4581008,4585241,4233,53,R,4585524,4585572,50,662.6,493,3613,left,4585241,4585241,0,0,0
2,2,continuous,4,100,fixationCross,4585908,4589058,3150,54,R,4585646,4585734,90,656.5,493.1,3639,left,4585908,4585908,0,0,0
2,2,continuous,4,100,trial,4585908,4589058,3150,54,R,4585766,4586072,308,814.5,426.9,3708,,4585908,4586072,164,0.0520634920634921,1
2,2,continuous,4,100,trial,4585908,4589058,3150,54,R,4586114,4586310,198,511.5,536.9,3755,left,4586114,4586310,196,0.0622222222222222,1
2,2,continuous,4,100,trial,4585908,4589058,3150,54,R,4586336,4586478,144,356.3,435.3,3616,left,4586336,4586478,142,0.0450793650793651,1
2,2,continuous,4,100,trial,4585908,4589058,3150,54,R,4586548,4586804,258,1351.4,526.9,3552,right,4586548,4586804,256,0.0812698412698413,1
2,2,continuous,4,100,trial,4585908,4589058,3150,54,R,4586826,4587112,288,1469.2,582.1,3675,right,4586826,4587112,286,0.0907936507936508,1
2,2,continuous,4,100,trial,4585908,4589058,3150,54,R,4587156,4587340,186,1442.5,1003,3717,,4587156,4587340,184,0.0584126984126984,1
2,2,continuous,4,100,trial,4585908,4589058,3150,54,R,4587382,4587560,180,1483.1,597,3754,right,4587382,4587560,178,0.0565079365079365,1
2,2,continuous,4,100,trial,4585908,4589058,3150,54,R,4587584,4587920,338,1330.2,592.6,3818,right,4587584,4587920,336,0.106666666666667,1
2,2,continuous,4,100,trial,4585908,4589058,3150,54,R,4587940,4588318,380,1287.7,522.1,3747,right,4587940,4588318,378,0.12,1
2,2,continuous,4,100,trial,4585908,4589058,3150,54,R,4588346,4588654,310,1290.3,624.9,3765,right,4588346,4588654,308,0.0977777777777778,1
2,2,continuous,4,100,trial,4585908,4589058,3150,54,R,4588714,4588910,198,594.7,605.9,3648,left,4588714,4588910,196,0.0622222222222222,1
2,2,continuous,4,100,trial,4585908,4589058,3150,54,R,4588942,4589330,390,372.3,449.1,3383,left,4588942,4589058,116,0.0368253968253968,1
2,2,continuous,5,1,trial,4589758,4592658,2900,55,R,4589488,4589934,448,717.2,533,3556,left,4589758,4589934,176,0.0606896551724138,1
2,2,continuous,5,1,trial,4589758,4592658,2900,55,R,4589976,4590194,220,458.2,669.9,3612,left,4589976,4590194,218,0.0751724137931035,1
2,2,continuous,5,1,trial,4589758,4592658,2900,55,R,4590216,4590350,136,464.8,592.7,3403,left,4590216,4590350,134,0.0462068965517241,1
2,2,continuous,5,1,trial,4589758,4592658,2900,55,R,4590422,4590658,238,1524.3,533.5,3422,right,4590422,4590658,236,0.0813793103448276,1
2,2,continuous,5,1,trial,4589758,4592658,2900,55,R,4590678,4590914,238,1599.9,556.3,3502,right,4590678,4590914,236,0.0813793103448276,1
2,2,continuous,5,1,trial,4589758,4592658,2900,55,R,4590936,4591060,126,1573.2,466.8,3562,right,4590936,4591060,124,0.0427586206896552,1
2,2,continuous,5,1,trial,4589758,4592658,2900,55,R,4591136,4591454,320,542.2,668.3,3493,left,4591136,4591454,318,0.109655172413793,1
2,2,continuous,5,1,trial,4589758,4592658,2900,55,R,4591470,4591728,260,475.9,660.9,3458,left,4591470,4591728,258,0.0889655172413793,1
2,2,continuous,5,1,trial,4589758,4592658,2900,55,R,4591778,4591864,88,543,1019.8,3437,,4591778,4591864,86,0.0296551724137931,1
2,2,continuous,5,1,trial,4589758,4592658,2900,55,R,4591884,4592076,194,542.6,969,3448,,4591884,4592076,192,0.0662068965517241,1
2,2,continuous,5,1,trial,4589758,4592658,2900,55,R,4592120,4592396,278,492.7,614.5,3505,left,4592120,4592396,276,0.0951724137931034,1
2,2,continuous,5,1,trial,4589758,4592658,2900,55,R,4592420,4592862,444,517.8,559.7,3508,left,4592420,4592658,238,0.0820689655172414,1
2,2,continuous,6,58,fixationCross,4593308,4597292,3984,56,R,4593064,4593264,202,644.4,480.1,3520,left,4593308,4593308,0,0,0
2,2,continuous,6,58,trial,4593308,4597292,3984,56,R,4593286,4593478,194,555.6,487.5,3720,left,4593308,4593478,170,0.0426706827309237,1
2,2,continuous,6,58,trial,4593308,4597292,3984,56,R,4593502,4593712,212,543.6,580.5,3649,left,4593502,4593712,210,0.052710843373494,1
2,2,continuous,6,58,trial,4593308,4597292,3984,56,R,4593780,4594002,224,1442.2,528.3,3499,right,4593780,4594002,222,0.0557228915662651,1
2,2,continuous,6,58,trial,4593308,4597292,3984,56,R,4594014,4594260,248,1477,523.6,3401,right,4594014,4594260,246,0.0617469879518072,1
2,2,continuous,6,58,trial,4593308,4597292,3984,56,R,4594284,4594420,138,1392,612.8,3340,right,4594284,4594420,136,0.034136546184739,1
2,2,continuous,6,58,trial,4593308,4597292,3984,56,R,4594490,4594716,228,547.7,576.1,3247,left,4594490,4594716,226,0.0567269076305221,1
2,2,continuous,6,58,trial,4593308,4597292,3984,56,R,4594732,4594944,214,509.6,574.4,3248,left,4594732,4594944,212,0.0532128514056225,1
2,2,continuous,6,58,trial,4593308,4597292,3984,56,R,4594962,4595348,388,542.9,538.3,3289,left,4594962,4595348,386,0.0968875502008032,1
2,2,continuous,6,58,trial,4593308,4597292,3984,56,R,4595416,4595582,168,1467.1,571.9,3425,right,4595416,4595582,166,0.0416666666666667,1
2,2,continuous,6,58,trial,4593308,4597292,3984,56,R,4595600,4595934,336,1479.6,522.8,3422,right,4595600,4595934,334,0.0838353413654619,1
2,2,continuous,6,58,trial,4593308,4597292,3984,56,R,4595984,4596096,114,1137.1,984.4,3357,likertHorizontal,4595984,4596096,112,0.0281124497991968,1
2,2,continuous,6,58,trial,4593308,4597292,3984,56,R,4596124,4596262,140,1418,1008.7,3384,,4596124,4596262,138,0.0346385542168675,1
2,2,continuous,6,58,trial,4593308,4597292,3984,56,R,4596436,4596548,114,974.8,927.4,3490,likertHorizontal,4596436,4596548,112,0.0281124497991968,1
2,2,continuous,6,58,trial,4593308,4597292,3984,56,R,4596596,4596838,244,1394.1,577.8,3653,right,4596596,4596838,242,0.0607429718875502,1
2,2,continuous,6,58,trial,4593308,4597292,3984,56,R,4596884,4597082,200,1041.9,966.8,3588,likertHorizontal,4596884,4597082,198,0.0496987951807229,1
2,2,continuous,6,58,trial,4593308,4597292,3984,56,R,4597092,4597536,446,1021,968.3,3613,likertHorizontal,4597092,4597292,200,0.0502008032128514,1
2,2,continuous,7,29,trial,4597941,4602975,5034,57,R,4597698,4598092,396,698.9,486.5,3697,left,4597941,4598092,151,0.0299960270162892,1
2,2,continuous,7,29,trial,4597941,4602975,5034,57,R,4598126,4598302,178,503,533.3,3654,left,4598126,4598302,176,0.0349622566547477,1
2,2,continuous,7,29,trial,4597941,4602975,5034,57,R,4598330,4598598,270,499.1,681.4,3593,left,4598330,4598598,268,0.0532379817242749,1
2,2,continuous,7,29,trial,4597941,4602975,5034,57,R,4598666,4598950,286,1402.2,575.6,3650,right,4598666,4598950,284,0.0564163686928884,1
2,2,continuous,7,29,trial,4597941,4602975,5034,57,R,4598968,4599388,422,1454.5,592.8,3575,right,4598968,4599388,420,0.0834326579261025,1
2,2,continuous,7,29,trial,4597941,4602975,5034,57,R,4599408,4599726,320,1446,519.6,3296,right,4599408,4599726,318,0.0631704410011919,1
2,2,continuous,7,29,trial,4597941,4602975,5034,57,R,4599776,4599922,148,1447.1,1010.1,3131,,4599776,4599922,146,0.0290027810885975,1
2,2,continuous,7,29,trial,4597941,4602975,5034,57,R,4599998,4600230,234,518.3,535.3,3189,left,4599998,4600230,232,0.0460866110448947,1
2,2,continuous,7,29,trial,4597941,4602975,5034,57,R,4600260,4600618,360,487.6,675.2,3328,left,4600260,4600618,358,0.0711164084227255,1
2,2,continuous,7,29,trial,4597941,4602975,5034,57,R,4600638,4600764,128,527.1,605.9,3335,left,4600638,4600764,126,0.0250297973778308,1
2,2,continuous,7,29,trial,4597941,4602975,5034,57,R,4600900,4601016,118,978,977.5,3419,likertHorizontal,4600900,4601016,116,0.0230433055224474,1
2,2,continuous,7,29,trial,4597941,4602975,5034,57,R,4601062,4601244,184,1418.1,1010.6,3614,,4601062,4601244,182,0.0361541517679778,1
2,2,continuous,7,29,trial,4597941,4602975,5034,57,R,4601298,4601400,104,1470.8,593.4,3741,right,4601298,4601400,102,0.0202622169249106,1
2,2,continuous,7,29,trial,4597941,4602975,5034,57,R,4601468,4601720,254,554.2,580.4,3623,left,4601468,4601720,252,0.0500595947556615,1
2,2,continuous,7,29,trial,4597941,4602975,5034,57,R,4601764,4601988,226,865.4,995.4,3601,likertHorizontal,4601764,4601988,224,0.044497417560588,1
2,2,continuous,7,29,trial,4597941,4602975,5034,57,R,4602020,4602182,164,654,952.2,3662,,4602020,4602182,162,0.032181168057211,1
2,2,continuous,7,29,trial,4597941,4602975,5034,57,R,4602236,4602476,242,547.6,563.5,3704,left,4602236,4602476,240,0.0476758045292014,1
2,2,continuous,7,29,trial,4597941,4602975,5034,57,R,4602520,4602844,326,726.5,941.7,3832,,4602520,4602844,324,0.0643623361144219,1
2,2,continuous,7,29,trial,4597941,4602975,5034,57,R,4602884,4603204,322,491.1,993,3795,,4602884,4602975,91,0.0180770758839889,1
2,2,continuous,7,29,postResponse,4597941,4602975,5034,57,R,4603280,4603308,30,680.6,573.7,3703,left,4602975,4602975,0,0,0
2,2,continuous,8,100,trial,4603625,4606408,2783,58,R,4603382,4603710,330,676.5,566.7,3689,left,4603625,4603710,85,0.0305425799496946,1
2,2,continuous,8,100,trial,4603625,4606408,2783,58,R,4603756,4603860,106,990.3,533.2,3700,,4603756,4603860,104,0.0373697448796263,1
2,2,continuous,8,100,trial,4603625,4606408,2783,58,R,4603908,4604166,260,518,524.4,3567,left,4603908,4604166,258,0.0927057132590729,1
2,2,continuous,8,100,trial,4603625,4606408,2783,58,R,4604184,4604380,198,498.5,485.7,3443,left,4604184,4604380,196,0.0704275961192957,1
2,2,continuous,8,100,trial,4603625,4606408,2783,58,R,4604396,4604752,358,474.7,538.6,3255,left,4604396,4604752,356,0.127919511318721,1
2,2,continuous,8,100,trial,4603625,4606408,2783,58,R,4604818,4605074,258,1386.7,604.1,3318,right,4604818,4605074,256,0.0919870643190801,1
2,2,continuous,8,100,trial,4603625,4606408,2783,58,R,4605118,4605338,222,1446.7,988.4,3471,,4605118,4605338,220,0.0790513833992095,1
2,2,continuous,8,100,trial,4603625,4606408,2783,58,R,4605412,4605620,210,553.6,527.3,3501,left,4605412,4605620,208,0.0747394897592526,1
2,2,continuous,8,100,trial,4603625,4606408,2783,58,R,4605640,4605842,204,466.1,512.6,3495,left,4605640,4605842,202,0.0725835429392742,1
2,2,continuous,8,100,trial,4603625,4606408,2783,58,R,4605860,4606112,254,406.7,492.5,3447,left,4605860,4606112,252,0.0905497664390945,1
2,2,continuous,8,100,trial,4603625,4606408,2783,58,R,4606130,4606236,108,389,549.6,3414,left,4606130,4606236,106,0.0380883938196191,1
2,2,continuous,8,100,trial,4603625,4606408,2783,58,R,4606270,4606664,396,577.9,650.9,3468,left,4606270,4606408,138,0.0495867768595041,1
2,2,continuous,8,100,postResponse,4603625,4606408,2783,58,R,4606690,4606744,56,705.1,509.7,3529,left,4606408,4606408,0,0,0
2,2,continuous,9,16,trial,4607075,4611958,4883,59,R,4606820,4607230,412,724.1,498.8,3649,left,4607075,4607230,155,0.0317427810772066,1
2,2,continuous,9,16,trial,4607075,4611958,4883,59,R,4607264,4607436,174,516.8,574.4,3705,left,4607264,4607436,172,0.0352242473889003,1
2,2,continuous,9,16,trial,4607075,4611958,4883,59,R,4607450,4607738,290,497.7,613.9,3588,left,4607450,4607738,288,0.0589801351628098,1
2,2,continuous,9,16,trial,4607075,4611958,4883,59,R,4607808,4607982,176,1486.2,587.1,3532,right,4607808,4607982,174,0.0356338316608642,1
2,2,continuous,9,16,trial,4607075,4611958,4883,59,R,4608008,4608350,344,1456.3,515.2,3512,right,4608008,4608350,342,0.0700389105058366,1
2,2,continuous,9,16,trial,4607075,4611958,4883,59,R,4608426,4608674,250,456.8,621.5,3437,left,4608426,4608674,248,0.0507884497235306,1
2,2,continuous,9,16,trial,4607075,4611958,4883,59,R,4608688,4608830,144,489,623.3,3365,left,4608688,4608830,142,0.0290804833094409,1
2,2,continuous,9,16,trial,4607075,4611958,4883,59,R,4608862,4609138,278,267.8,521.8,3351,left,4608862,4609138,276,0.056522629531026,1
2,2,continuous,9,16,trial,4607075,4611958,4883,59,R,4609176,4609420,246,541,487.1,3340,left,4609176,4609420,244,0.0499692811796027,1
2,2,continuous,9,16,trial,4607075,4611958,4883,59,R,4609430,4609818,390,564.5,506.7,3414,left,4609430,4609818,388,0.0794593487610076,1
2,2,continuous,9,16,trial,4607075,4611958,4883,59,R,4609840,4610128,290,499.8,447.2,3423,left,4609840,4610128,288,0.0589801351628098,1
2,2,continuous,9,16,trial,4607075,4611958,4883,59,R,4610202,4610374,174,1553.6,627.4,3482,right,4610202,4610374,172,0.0352242473889003,1
2,2,continuous,9,16,trial,4607075,4611958,4883,59,R,4610400,4610952,554,1462.5,523.3,3556,right,4610400,4610952,552,0.113045259062052,1
2,2,continuous,9,16,trial,4607075,4611958,4883,59,R,4610976,4611098,124,1332.4,607.8,3570,right,4610976,4611098,122,0.0249846405898014,1
2,2,continuous,9,16,trial,4607075,4611958,4883,59,R,4611162,4611906,746,603.2,926,3516,,4611162,4611906,744,0.152365349170592,1
2,2,continuous,9,16,trial,4607075,4611958,4883,59,R,4611916,4612196,282,625.4,943.5,3587,,4611916,4611958,42,0.00860126971124309,1
2,2,continuous,9,16,postResponse,4607075,4611958,4883,59,R,4612256,4612288,34,705.2,530.8,3599,left,4611958,4611958,0,0,0
2,2,continuous,10,85,fixationCross,4612608,4616491,3883,60,R,4612362,4612456,96,698.4,525.3,3587,left,4612608,4612608,0,0,0
2,2,continuous,10,85,trial,4612608,4616491,3883,60,R,4612482,4612766,286,583.3,453.2,3597,left,4612608,4612766,158,0.0406901879989699,1
2,2,continuous,10,85,trial,4612608,4616491,3883,60,R,4612794,4613108,316,425.6,584.2,3551,left,4612794,4613108,314,0.0808653103270667,1
2,2,continuous,10,85,trial,4612608,4616491,3883,60,R,4613176,4613410,236,1393.6,471.1,3459,right,4613176,4613410,234,0.0602626834921453,1
2,2,continuous,10,85,trial,4612608,4616491,3883,60,R,4613424,4613784,362,1405.6,447.2,3412,right,4613424,4613784,360,0.0927118207571465,1
2,2,continuous,10,85,trial,4612608,4616491,3883,60,R,4613834,4614032,200,1436.8,985.1,3341,,4613834,4614032,198,0.0509915014164306,1
2,2,continuous,10,85,trial,4612608,4616491,3883,60,R,4614082,4614220,140,1392.6,426.6,3413,right,4614082,4614220,138,0.0355395312902395,1
2,2,continuous,10,85,trial,4612608,4616491,3883,60,R,4614286,4614514,230,468.4,555.5,3403,left,4614286,4614514,228,0.0587174864795261,1
2,2,continuous,10,85,trial,4612608,4616491,3883,60,R,4614594,4614844,252,1360,931.4,3520,,4614594,4614844,250,0.0643832088591296,1
2,2,continuous,10,85,trial,4612608,4616491,3883,60,R,4614888,4615092,206,1425.3,450.7,3663,right,4614888,4615092,204,0.0525366984290497,1
2,2,continuous,10,85,trial,4612608,4616491,3883,60,R,4615102,4615388,288,1407.4,444.9,3633,right,4615102,4615388,286,0.0736543909348442,1
2,2,continuous,10,85,trial,4612608,4616491,3883,60,R,4615426,4615834,410,1493.6,692.1,3619,right,4615426,4615834,408,0.105073396858099,1
2,2,continuous,10,85,trial,4612608,4616491,3883,60,R,4615878,4616042,166,1412.4,473.9,3654,right,4615878,4616042,164,0.042235385011589,1
2,2,continuous,10,85,trial,4612608,4616491,3883,60,R,4616054,4616222,170,1408.3,453.1,3617,right,4616054,4616222,168,0.0432655163533351,1
2,2,continuous,10,85,trial,4612608,4616491,3883,60,R,4616270,4616476,208,1319.1,957.2,3535,,4616270,4616476,206,0.0530517640999227,1
2,2,continuous,10,85,trial,4612608,4616491,3883,60,R,4616486,4616672,188,1293.8,969.9,3575,,4616486,4616491,5,0.00128766417718259,1
2,2,continuous,11,15,fixationCross,4617142,4622109,4967,61,R,4616898,4616964,68,764.5,480.3,3639,,4617142,4617142,0,0,0
2,2,continuous,11,15,trial,4617142,4622109,4967,61,R,4616988,4617352,366,600.8,470.9,3640,left,4617142,4617352,210,0.0422790416750554,1
2,2,continuous,11,15,trial,4617142,4622109,4967,61,R,4617384,4617636,254,453.3,559.6,3528,left,4617384,4617636,252,0.0507348500100664,1
2,2,continuous,11,15,trial,4617142,4622109,4967,61,R,4617658,4617762,106,521.1,493.2,3457,left,4617658,4617762,104,0.0209381920676465,1
2,2,continuous,11,15,trial,4617142,4622109,4967,61,R,4617822,4618048,228,1305.9,562.8,3554,right,4617822,4618048,226,0.0455003019931548,1
2,2,continuous,11,15,trial,4617142,4622109,4967,61,R,4618068,4618278,212,1395.2,594.6,3619,right,4618068,4618278,210,0.0422790416750554,1
2,2,continuous,11,15,trial,4617142,4622109,4967,61,R,4618288,4618552,266,1367.9,609.6,3605,right,4618288,4618552,264,0.053150795248641,1
2,2,continuous,11,15,trial,4617142,4622109,4967,61,R,4618584,4618716,134,1292.4,472.8,3528,right,4618584,4618716,132,0.0265753976243205,1
2,2,continuous,11,15,trial,4617142,4622109,4967,61,R,4618850,4618970,122,959,906.4,3469,likertHorizontal,4618850,4618970,120,0.0241594523857459,1
2,2,continuous,11,15,trial,4617142,4622109,4967,61,R,4618988,4619186,200,946.7,965.1,3519,likertHorizontal,4618988,4619186,198,0.0398630964364808,1
2,2,continuous,11,15,trial,4617142,4622109,4967,61,R,4619244,4619530,288,519.2,546.3,3508,left,4619244,4619530,286,0.0575800281860278,1
2,2,continuous,11,15,trial,4617142,4622109,4967,61,R,4619550,4619888,340,421.3,515.2,3414,left,4619550,4619888,338,0.068049124219851,1
2,2,continuous,11,15,trial,4617142,4622109,4967,61,R,4619934,4620192,260,599.6,956.2,3473,,4619934,4620192,258,0.0519428226293537,1
2,2,continuous,11,15,trial,4617142,4622109,4967,61,R,4620212,4620386,176,522.4,953.3,3548,,4620212,4620386,174,0.0350312059593316,1
2,2,continuous,11,15,trial,4617142,4622109,4967,61,R,4620454,4620740,288,1372.8,553.5,3679,right,4620454,4620740,286,0.0575800281860278,1
2,2,continuous,11,15,trial,4617142,4622109,4967,61,R,4620766,4621154,390,1362.9,621.5,3654,right,4620766,4621154,388,0.0781155627139118,1
2,2,continuous,11,15,trial,4617142,4622109,4967,61,R,4621218,4621508,292,653,943.9,3469,,4621218,4621508,290,0.0583853432655527,1
2,2,continuous,11,15,trial,4617142,4622109,4967,61,R,4621552,4621844,294,513.6,502.8,3442,left,4621552,4621844,292,0.0587880008053151,1
2,2,continuous,11,15,trial,4617142,4622109,4967,61,R,4621866,4622158,294,407.6,483.6,3499,left,4621866,4622109,243,0.0489228910811355,1
2,2,continuous,11,15,postResponse,4617142,4622109,4967,61,R,4622184,4622442,260,520.4,530.1,3531,left,4622109,4622109,0,0,0
2,2,continuous,12,58,trial,4622775,4625842,3067,62,R,4622516,4622924,410,760.3,519.3,3611,,4622775,4622924,149,0.048581675904793,1
2,2,continuous,12,58,trial,4622775,4625842,3067,62,R,4622952,4623098,148,513.2,518.3,3721,left,4622952,4623098,146,0.0476035213563743,1
2,2,continuous,12,58,trial,4622775,4625842,3067,62,R,4623122,4623364,244,369,462.8,3452,left,4623122,4623364,242,0.0789044669057711,1
2,2,continuous,12,58,trial,4622775,4625842,3067,62,R,4623434,4623588,156,1379.6,539.7,3320,right,4623434,4623588,154,0.0502119334854907,1
2,2,continuous,12,58,trial,4622775,4625842,3067,62,R,4623606,4623978,374,1313.4,547,3342,right,4623606,4623978,372,0.121291164003913,1
2,2,continuous,12,58,trial,4622775,4625842,3067,62,R,4624032,4624186,156,888.4,995.5,3405,likertHorizontal,4624032,4624186,154,0.0502119334854907,1
2,2,continuous,12,58,trial,4622775,4625842,3067,62,R,4624346,4624434,90,765.3,902.4,3451,likertHorizontal,4624346,4624434,88,0.0286925334202804,1
2,2,continuous,12,58,trial,4622775,4625842,3067,62,R,4624458,4625198,742,982.1,964.3,3591,likertHorizontal,4624458,4625198,740,0.241278121943267,1
2,2,continuous,12,58,trial,4622775,4625842,3067,62,R,4625252,4625384,134,576,549.3,3583,left,4625252,4625384,132,0.0430388001304206,1
2,2,continuous,12,58,trial,4622775,4625842,3067,62,R,4625422,4625672,252,373.7,450.4,3500,left,4625422,4625672,250,0.0815128790348875,1
2,2,continuous,12,58,trial,4622775,4625842,3067,62,R,4625726,4626038,314,905.1,766,3474,likertHorizontal,4625726,4625842,116,0.0378219758721878,1
2,2,continuous,13,42,fixationCross,4626525,4632842,6317,63,R,4626274,4626336,64,782.4,503.1,3592,,4626525,4626525,0,0,0
2,2,continuous,13,42,trial,4626525,4632842,6317,63,R,4626374,4626718,346,600.4,494.8,3674,left,4626525,4626718,193,0.0305524774418237,1
2,2,continuous,13,42,trial,4626525,4632842,6317,63,R,4626744,4626952,210,533.3,583,3602,left,4626744,4626952,208,0.0329270223207219,1
2,2,continuous,13,42,trial,4626525,4632842,6317,63,R,4626970,4627130,162,516.9,551.3,3457,left,4626970,4627130,160,0.0253284787082476,1
2,2,continuous,13,42,trial,4626525,4632842,6317,63,R,4627196,4627386,192,1394.7,485.4,3405,right,4627196,4627386,190,0.030077568466044,1
2,2,continuous,13,42,trial,4626525,4632842,6317,63,R,4627410,4627850,442,1427.3,440.2,3452,right,4627410,4627850,440,0.0696533164476809,1
2,2,continuous,13,42,trial,4626525,4632842,6317,63,R,4627906,4628070,166,947.5,967.6,3573,likertHorizontal,4627906,4628070,164,0.0259616906759538,1
2,2,continuous,13,42,trial,4626525,4632842,6317,63,R,4628112,4628254,144,1388,987.4,3662,,4628112,4628254,142,0.0224790248535697,1
2,2,continuous,13,42,trial,4626525,4632842,6317,63,R,4628316,4628586,272,1430.6,480.3,3706,right,4628316,4628586,270,0.0427418078201678,1
2,2,continuous,13,42,trial,4626525,4632842,6317,63,R,4628602,4628864,264,1430.3,442.5,3734,right,4628602,4628864,262,0.0414753838847554,1
2,2,continuous,13,42,trial,4626525,4632842,6317,63,R,4628882,4629106,226,1482.1,468.5,3701,right,4628882,4629106,224,0.0354598701915466,1
2,2,continuous,13,42,trial,4626525,4632842,6317,63,R,4629126,4629324,200,1431.2,492.5,3663,right,4629126,4629324,198,0.0313439924014564,1
2,2,continuous,13,42,trial,4626525,4632842,6317,63,R,4629396,4629756,362,502.4,581.9,3508,left,4629396,4629756,360,0.0569890770935571,1
2,2,continuous,13,42,trial,4626525,4632842,6317,63,R,4629894,4630210,318,515.3,562.6,3392,left,4629894,4630210,316,0.050023745448789,1
2,2,continuous,13,42,trial,4626525,4632842,6317,63,R,4630276,4630868,594,1422.6,455.7,3378,right,4630276,4630868,592,0.0937153712205161,1
2,2,continuous,13,42,trial,4626525,4632842,6317,63,R,4630944,4631154,212,513.5,597.1,3336,left,4630944,4631154,210,0.033243628304575,1
2,2,continuous,13,42,trial,4626525,4632842,6317,63,R,4631172,4632024,854,517.1,555.7,3250,left,4631172,4632024,852,0.134874149121418,1
2,2,continuous,13,42,trial,4626525,4632842,6317,63,R,4632072,4632606,536,883.3,954,3317,likertHorizontal,4632072,4632606,534,0.0845337976887763,1
2,2,continuous,13,42,trial,4626525,4632842,6317,63,R,4632682,4633040,360,1431.9,496,3526,right,4632682,4632842,160,0.0253284787082476,1
2,2,continuous,14,1,fixationCross,4633526,4637042,3516,64,R,4633254,4633360,108,759.7,504,3572,,4633526,4633526,0,0,0
2,2,continuous,14,1,trial,4633526,4637042,3516,64,R,4633384,4633692,310,630.8,460.1,3616,left,4633526,4633692,166,0.0472127417519909,1
2,2,continuous,14,1,trial,4633526,4637042,3516,64,R,4633726,4634050,326,432.1,437.2,3466,left,4633726,4634050,324,0.0921501706484642,1
2,2,continuous,14,1,trial,4633526,4637042,3516,64,R,4634122,4634406,286,1452.4,547.5,3386,right,4634122,4634406,284,0.080773606370876,1
2,2,continuous,14,1,trial,4633526,4637042,3516,64,R,4634430,4634760,332,1565.4,586.1,3350,right,4634430,4634760,330,0.0938566552901024,1
2,2,continuous,14,1,trial,4633526,4637042,3516,64,R,4634788,4635016,230,1484.3,472.9,3250,right,4634788,4635016,228,0.0648464163822526,1
2,2,continuous,14,1,trial,4633526,4637042,3516,64,R,4635046,4635324,280,1319.5,702.8,3235,right,4635046,4635324,278,0.0790671217292378,1
2,2,continuous,14,1,trial,4633526,4637042,3516,64,R,4635370,4635658,290,1591.5,602.3,3302,right,4635370,4635658,288,0.0819112627986348,1
2,2,continuous,14,1,trial,4633526,4637042,3516,64,R,4635680,4635924,246,1576.9,523.9,3329,right,4635680,4635924,244,0.0693970420932878,1
2,2,continuous,14,1,trial,4633526,4637042,3516,64,R,4636006,4636180,176,473.4,451.6,3239,left,4636006,4636180,174,0.0494880546075085,1
2,2,continuous,14,1,trial,4633526,4637042,3516,64,R,4636200,4636332,134,422.3,386.9,3197,left,4636200,4636332,132,0.037542662116041,1
2,2,continuous,14,1,trial,4633526,4637042,3516,64,R,4636410,4636694,286,1543,530.4,3396,right,4636410,4636694,284,0.080773606370876,1
2,2,continuous,14,1,trial,4633526,4637042,3516,64,R,4636714,4636816,104,1585.6,520.7,3454,right,4636714,4636816,102,0.0290102389078498,1
2,2,continuous,14,1,trial,4633526,4637042,3516,64,R,4636896,4637036,142,470.5,430.6,3351,left,4636896,4637036,140,0.0398179749715586,1
2,2,continuous,14,1,postResponse,4633526,4637042,3516,64,R,4637058,4637372,316,435.5,381.3,3274,left,4637042,4637042,0,0,0
2,2,continuous,15,59,trial,4637725,4642626,4901,65,R,4637448,4637872,426,746.1,499.5,3511,,4637725,4637872,147,0.0299938788002449,1
2,2,continuous,15,59,trial,4637725,4642626,4901,65,R,4637914,4638026,114,425.2,487.4,3608,left,4637914,4638026,112,0.0228524790859008,1
2,2,continuous,15,59,trial,4637725,4642626,4901,65,R,4638050,4638286,238,410.5,453.5,3509,left,4638050,4638286,236,0.0481534380738625,1
2,2,continuous,15,59,trial,4637725,4642626,4901,65,R,4638358,4638630,274,1467.7,573.9,3567,right,4638358,4638630,272,0.0554988777800449,1
2,2,continuous,15,59,trial,4637725,4642626,4901,65,R,4638656,4638790,136,1608.7,557.2,3579,right,4638656,4638790,134,0.0273413589063456,1
2,2,continuous,15,59,trial,4637725,4642626,4901,65,R,4638828,4639158,332,1324,427,3579,right,4638828,4639158,330,0.0673331973066721,1
2,2,continuous,15,59,trial,4637725,4642626,4901,65,R,4639172,4639504,334,1366.8,428.6,3551,right,4639172,4639504,332,0.0677412772903489,1
2,2,continuous,15,59,trial,4637725,4642626,4901,65,R,4639528,4639842,316,1265.3,417.3,3510,right,4639528,4639842,314,0.0640685574372577,1
2,2,continuous,15,59,trial,4637725,4642626,4901,65,R,4639900,4639998,100,743.5,608,3516,,4639900,4639998,98,0.0199959192001632,1
2,2,continuous,15,59,trial,4637725,4642626,4901,65,R,4640038,4640164,128,423.3,485,3469,left,4640038,4640164,126,0.0257090389716384,1
2,2,continuous,15,59,trial,4637725,4642626,4901,65,R,4640182,4640288,108,412.8,450.5,3452,left,4640182,4640288,106,0.0216282391348704,1
2,2,continuous,15,59,trial,4637725,4642626,4901,65,R,4640350,4640534,186,994.9,833.5,3471,likertHorizontal,4640350,4640534,184,0.0375433584982657,1
2,2,continuous,15,59,trial,4637725,4642626,4901,65,R,4640558,4640774,218,1153.2,945.3,3540,likertHorizontal,4640558,4640774,216,0.0440726382370945,1
2,2,continuous,15,59,trial,4637725,4642626,4901,65,R,4640824,4640994,172,1551.4,509.1,3694,right,4640824,4640994,170,0.0346867986125281,1
2,2,continuous,15,59,trial,4637725,4642626,4901,65,R,4641012,4641468,458,1617.2,538.9,3640,right,4641012,4641468,456,0.0930422362783106,1
2,2,continuous,15,59,trial,4637725,4642626,4901,65,R,4641492,4641742,252,1494.2,561.8,3646,right,4641492,4641742,250,0.0510099979596001,1
2,2,continuous,15,59,trial,4637725,4642626,4901,65,R,4641772,4642034,264,1338.8,432.7,3585,right,4641772,4642034,262,0.0534584778616609,1
2,2,continuous,15,59,trial,4637725,4642626,4901,65,R,4642050,4642330,282,1270.9,425.5,3571,right,4642050,4642330,280,0.0571311977147521,1
2,2,continuous,15,59,trial,4637725,4642626,4901,65,R,4642402,4642516,116,489.8,430.7,3547,left,4642402,4642516,114,0.0232605590695776,1
2,2,continuous,15,59,postResponse,4637725,4642626,4901,65,R,4642534,4642958,426,425.3,444.7,3498,left,4642534,4642626,92,0.0187716792491328,1
2,2,continuous,16,20,fixationCross,4643309,4647225,3916,66,R,4643056,4643112,58,426.4,442.5,3486,left,4643309,4643309,0,0,0
2,2,continuous,16,20,trial,4643309,4647225,3916,66,R,4643140,4643544,406,630.7,446.3,3558,left,4643309,4643544,235,0.0600102145045965,1
2,2,continuous,16,20,trial,4643309,4647225,3916,66,R,4643576,4643786,212,537.2,650.3,3569,left,4643576,4643786,210,0.0536261491317671,1
2,2,continuous,16,20,trial,4643309,4647225,3916,66,R,4643896,4644042,148,1445,494.2,3479,right,4643896,4644042,146,0.0372829417773238,1
2,2,continuous,16,20,trial,4643309,4647225,3916,66,R,4644066,4644430,366,1492.7,433.4,3603,right,4644066,4644430,364,0.0929519918283963,1
2,2,continuous,16,20,trial,4643309,4647225,3916,66,R,4644506,4644722,218,501,597.4,3473,left,4644506,4644722,216,0.0551583248212462,1
2,2,continuous,16,20,trial,4643309,4647225,3916,66,R,4644738,4645374,638,517.9,647.6,3335,left,4644738,4645374,636,0.16241062308478,1
2,2,continuous,16,20,trial,4643309,4647225,3916,66,R,4645398,4645594,198,421.3,527.7,3323,left,4645398,4645594,196,0.0500510725229826,1
2,2,continuous,16,20,trial,4643309,4647225,3916,66,R,4645652,4645796,146,507.4,991.2,3355,,4645652,4645796,144,0.0367722165474974,1
2,2,continuous,16,20,trial,4643309,4647225,3916,66,R,4645872,4646002,132,1532,483.3,3427,right,4645872,4646002,130,0.033197139938713,1
2,2,continuous,16,20,trial,4643309,4647225,3916,66,R,4646026,4646448,424,1491.8,434.5,3576,right,4646026,4646448,422,0.107763023493361,1
2,2,continuous,16,20,trial,4643309,4647225,3916,66,R,4646520,4646720,202,661.1,955,3595,,4646520,4646720,200,0.0510725229826354,1
2,2,continuous,16,20,trial,4643309,4647225,3916,66,R,4646736,4647026,292,622.3,955.5,3562,,4646736,4647026,290,0.0740551583248213,1
2,2,continuous,16,20,trial,4643309,4647225,3916,66,R,4647036,4647420,386,671.5,948.8,3587,,4647036,4647225,189,0.0482635342185904,1
2,2,continuous,17,100,trial,4647925,4649992,2067,67,R,4647658,4648092,436,626.8,436.5,3648,left,4647925,4648092,167,0.0807934204160619,1
2,2,continuous,17,100,trial,4647925,4649992,2067,67,R,4648122,4648444,324,545.4,544.9,3579,left,4648122,4648444,322,0.155781325592646,1
2,2,continuous,17,100,trial,4647925,4649992,2067,67,R,4648506,4648750,246,1355.1,547.6,3425,right,4648506,4648750,244,0.118045476536043,1
2,2,continuous,17,100,trial,4647925,4649992,2067,67,R,4648768,4649448,682,1436.2,559.1,3472,right,4648768,4649448,680,0.328979196903725,1
2,2,continuous,17,100,trial,4647925,4649992,2067,67,R,4649474,4649706,234,1531.7,667.7,3517,right,4649474,4649706,232,0.112239961296565,1
2,2,continuous,17,100,trial,4647925,4649992,2067,67,R,4649720,4649876,158,1560.7,648.6,3532,right,4649720,4649876,156,0.0754716981132076,1
2,2,continuous,17,100,postResponse,4647925,4649992,2067,67,R,4649946,4650324,380,602.5,531.8,3370,left,4649946,4649992,46,0.0222544750846638,1
2,2,continuous,18,62,fixationCross,4650642,4653642,3000,68,R,4650398,4650414,18,601.4,529,3314,left,4650642,4650642,0,0,0
2,2,continuous,18,62,trial,4650642,4653642,3000,68,R,4650436,4650824,390,708.3,470.6,3369,left,4650642,4650824,182,0.0606666666666667,1
2,2,continuous,18,62,trial,4650642,4653642,3000,68,R,4650860,4651086,228,536.3,563.1,3438,left,4650860,4651086,226,0.0753333333333333,1
2,2,continuous,18,62,trial,4650642,4653642,3000,68,R,4651152,4651374,224,1368.4,512.7,3414,right,4651152,4651374,222,0.074,1
2,2,continuous,18,62,trial,4650642,4653642,3000,68,R,4651400,4651598,200,1570.7,607.1,3447,right,4651400,4651598,198,0.066,1
2,2,continuous,18,62,trial,4650642,4653642,3000,68,R,4651782,4651872,92,1555.2,609.4,3516,right,4651782,4651872,90,0.03,1
2,2,continuous,18,62,trial,4650642,4653642,3000,68,R,4651940,4652148,210,626,577.4,3540,left,4651940,4652148,208,0.0693333333333333,1
2,2,continuous,18,62,trial,4650642,4653642,3000,68,R,4652176,4652424,250,485.2,576.5,3426,left,4652176,4652424,248,0.0826666666666667,1
2,2,continuous,18,62,trial,4650642,4653642,3000,68,R,4652452,4652614,164,705.8,603.1,3343,left,4652452,4652614,162,0.054,1
2,2,continuous,18,62,trial,4650642,4653642,3000,68,R,4652662,4653376,716,1036.6,938.4,3529,likertHorizontal,4652662,4653376,714,0.238,1
2,2,continuous,18,62,trial,4650642,4653642,3000,68,R,4653418,4653860,444,1296.2,577.3,3714,right,4653418,4653642,224,0.0746666666666667,1
2,2,continuous,19,100,trial,4654342,4656859,2517,69,R,4654074,4654498,426,757.6,457.2,3696,,4654342,4654498,156,0.0619785458879619,1
2,2,continuous,19,100,trial,4654342,4656859,2517,69,R,4654538,4654766,230,519.8,598.6,3558,left,4654538,4654766,228,0.0905840286054827,1
2,2,continuous,19,100,trial,4654342,4656859,2517,69,R,4654786,4655044,260,438.5,565.4,3303,left,4654786,4655044,258,0.102502979737783,1
2,2,continuous,19,100,trial,4654342,4656859,2517,69,R,4655118,4655368,252,1485.8,609.7,3268,right,4655118,4655368,250,0.0993245927691697,1
2,2,continuous,19,100,trial,4654342,4656859,2517,69,R,4655378,4655830,454,1467.6,610.9,3357,right,4655378,4655830,452,0.179578863726659,1
2,2,continuous,19,100,trial,4654342,4656859,2517,69,R,4655888,4656102,216,1063.3,983.8,3355,likertHorizontal,4655888,4656102,214,0.0850218514104092,1
2,2,continuous,19,100,trial,4654342,4656859,2517,69,R,4656132,4656364,234,1347.7,991.1,3478,,4656132,4656364,232,0.0921732220897894,1
2,2,continuous,19,100,trial,4654342,4656859,2517,69,R,4656434,4656622,190,455.6,577.1,3643,left,4656434,4656622,188,0.0746920937624156,1
2,2,continuous,19,100,trial,4654342,4656859,2517,69,R,4656644,4656838,196,525.8,563.9,3633,left,4656644,4656838,194,0.0770758839888756,1
2,2,continuous,19,100,trial,4654342,4656859,2517,69,R,4656908,4657096,190,1513.2,593.5,3625,right,4656859,4656859,0,0,0
2,2,continuous,19,100,postResponse,4654342,4656859,2517,69,R,4657152,4657190,40,971,518.2,3603,,4656859,4656859,0,0,0
2,2,continuous,20,100,trial,4657509,4659725,2216,70,R,4657264,4657654,392,964.7,515,3847,,4657509,4657654,145,0.0654332129963899,1
2,2,continuous,20,100,trial,4657509,4659725,2216,70,R,4657702,4657832,132,574.7,555.6,3901,left,4657702,4657832,130,0.0586642599277978,1
2,2,continuous,20,100,trial,4657509,4659725,2216,70,R,4657894,4658170,278,1447.8,596.5,3712,right,4657894,4658170,276,0.124548736462094,1
2,2,continuous,20,100,trial,4657509,4659725,2216,70,R,4658192,4658324,134,1444.1,521.9,3696,right,4658192,4658324,132,0.0595667870036101,1
2,2,continuous,20,100,trial,4657509,4659725,2216,70,R,4658390,4658738,350,592.5,563.2,3622,left,4658390,4658738,348,0.157039711191336,1
2,2,continuous,20,100,trial,4657509,4659725,2216,70,R,4658800,4658958,160,1393.2,634.9,3766,right,4658800,4658958,158,0.0712996389891697,1
2,2,continuous,20,100,trial,4657509,4659725,2216,70,R,4658980,4659188,210,1496.3,635.3,3765,right,4658980,4659188,208,0.0938628158844765,1
2,2,continuous,20,100,trial,4657509,4659725,2216,70,R,4659204,4659456,254,1483.8,598.9,3782,right,4659204,4659456,252,0.113718411552347,1
2,2,continuous,20,100,trial,4657509,4659725,2216,70,R,4659478,4659706,230,1448.8,686.5,3797,right,4659478,4659706,228,0.102888086642599,1
2,2,continuous,20,100,trial,4657509,4659725,2216,70,R,4659734,4659926,194,1419.8,517.4,3778,right,4659725,4659725,0,0,0
2,2,continuous,20,100,postResponse,4657509,4659725,2216,70,R,4659988,4660058,72,790.8,475.1,3676,,4659725,4659725,0,0,0
2,2,continuous,21,76,trial,4660442,4664460,4018,71,R,4660156,4660600,446,787.3,471.6,3805,,4660442,4660600,158,0.0393230462916874,1
2,2,continuous,21,76,trial,4660442,4664460,4018,71,R,4660638,4660736,100,527.1,545,3768,left,4660638,4660736,98,0.024390243902439,1
2,2,continuous,21,76,trial,4660442,4664460,4018,71,R,4660800,4661096,298,1470.5,584.8,3729,right,4660800,4661096,296,0.0736684917869587,1
2,2,continuous,21,76,trial,4660442,4664460,4018,71,R,4661116,4661302,188,1428.9,520,3685,right,4661116,4661302,186,0.04629168740667,1
2,2,continuous,21,76,trial,4660442,4664460,4018,71,R,4661376,4661618,244,473.3,555.1,3438,left,4661376,4661618,242,0.0602289696366351,1
2,2,continuous,21,76,trial,4660442,4664460,4018,71,R,4661634,4662082,450,517.1,545.7,3392,left,4661634,4662082,448,0.111498257839721,1
2,2,continuous,21,76,trial,4660442,4664460,4018,71,R,4662094,4662274,182,486.3,543.3,3374,left,4662094,4662274,180,0.0447984071677451,1
2,2,continuous,21,76,trial,4660442,4664460,4018,71,R,4662298,4662598,302,385,628.5,3363,left,4662298,4662598,300,0.0746640119462419,1
2,2,continuous,21,76,trial,4660442,4664460,4018,71,R,4662640,4662794,156,663.5,948.2,3477,,4662640,4662794,154,0.0383275261324042,1
2,2,continuous,21,76,trial,4660442,4664460,4018,71,R,4662860,4663170,312,1494.4,601.6,3561,right,4662860,4663170,310,0.07715281234445,1
2,2,continuous,21,76,trial,4660442,4664460,4018,71,R,4663186,4663340,156,1545.9,574.9,3561,right,4663186,4663340,154,0.0383275261324042,1
2,2,continuous,21,76,trial,4660442,4664460,4018,71,R,4663360,4663530,172,1557.4,510.6,3557,right,4663360,4663530,170,0.0423096067695371,1
2,2,continuous,21,76,trial,4660442,4664460,4018,71,R,4663560,4663876,318,1390.9,552.2,3497,right,4663560,4663876,316,0.0786460925833748,1
2,2,continuous,21,76,trial,4660442,4664460,4018,71,R,4663920,4664324,406,1224.1,932.4,3514,,4663920,4664324,404,0.100547536087606,1
